Device	Device	Device	Device	Device	Device	Device	Device	Device	Device	Device	Device	Device	Device	Device	Device	Device	Device	Device	Device	Device	Device	Device	Device	Device	Device	Device	
Low Noise Accelerometer X	Low Noise Accelerometer X	Low Noise Accelerometer Z	Low Noise Accelerometer Z	Low Noise Accelerometer Y	Low Noise Accelerometer Y	Wide Range Accelerometer X	Wide Range Accelerometer X	Wide Range Accelerometer Z	Wide Range Accelerometer Z	Wide Range Accelerometer Y	Wide Range Accelerometer Y	Event_Marker	Timestamp	Timestamp	Magnetometer Z	Magnetometer Z	Magnetometer X	Magnetometer X	Magnetometer Y	Magnetometer Y	Gyroscope Y	Gyroscope Y	Gyroscope Z	Gyroscope Z	Gyroscope X	Gyroscope X	
CAL	UNCAL	CAL	UNCAL	CAL	UNCAL	CAL	UNCAL	CAL	UNCAL	UNCAL	CAL	CAL	UNCAL	CAL	CAL	UNCAL	CAL	UNCAL	UNCAL	CAL	UNCAL	CAL	CAL	UNCAL	CAL	UNCAL	
m/(s^2)	no units	m/(s^2)	no units	m/(s^2)	no units	m/(s^2)	no units	m/(s^2)	no units	no units	m/(s^2)	no units	no units	ms	local_flux	no units	local_flux	no units	no units	local_flux	no units	deg/s	deg/s	no units	deg/s	no units	
9.683396121510206	1943.0	-0.8823984422716644	2123.0	1.5096967237803367	1268.0	9.888412017167381	-16128.0	-0.745554874310239	1216.0	2304.0	1.4126302881667687	0.0	41805.0	1275.787353515625	-0.36086956521739133	735.0	1.1777777777777778	-174.0	-541.0	-0.439121756487026	-431.0	0.9951534311545446	1.7407144618988564	-110.0	7.214383066448911	-103.0	
9.732405484004982	1944.0	-0.8709546343490021	2122.0	1.4982530627134267	1264.0	9.770692826486817	-15936.0	-0.627835683629675	1024.0	2368.0	1.4518700183936235	0.0	42445.0	1295.318603515625	-0.358695652173913	736.0	1.1737373737373737	-176.0	-536.0	-0.44910179640718567	-365.0	-0.3218643547470784	1.4977183973492139	-85.0	6.223750962939106	-18.0	
9.756428559155621	1945.0	-0.9199696214190873	2126.0	1.485954950823148	1262.0	9.770692826486817	-15936.0	-0.627835683629675	1024.0	2368.0	1.4518700183936235	0.0	43085.0	1314.849853515625	-0.3760869565217391	728.0	1.1757575757575758	-175.0	-517.0	-0.48702594810379246	-288.0	-1.0273071213969298	1.1888637191725215	-58.0	5.059702729008646	27.0	
9.76801019120178	1942.0	-0.9453116374519173	2128.0	1.5219619252965342	1261.0	9.888412017167381	-16128.0	-0.7847946045370937	1280.0	2240.0	1.3733905579399142	0.0	43725.0	1334.381103515625	-0.36086956521739133	735.0	1.1777777777777778	-174.0	-528.0	-0.4650698602794412	-235.0	0.11238826486959937	0.8569266950815829	-39.0	4.242222124955867	-48.0	
9.793358492660806	1942.0	-0.8482821034384362	2120.0	1.5231857036512595	1259.0	9.849172286940528	-16064.0	-0.8240343347639485	1344.0	2176.0	1.3341508277130594	0.0	44365.0	1353.912353515625	-0.35434782608695653	738.0	1.1636363636363636	-181.0	-533.0	-0.45508982035928147	-194.0	0.09451526168782257	1.2279412080893988	-62.0	3.618826710500993	-47.0	
9.732396848886749	1940.0	-0.8231473889854952	2118.0	1.5469238199002169	1264.0	9.849172286940528	-16064.0	-0.5493562231759657	896.0	2304.0	1.4126302881667687	0.0	45005.0	1373.443603515625	-0.3717391304347826	730.0	1.185858585858586	-170.0	-524.0	-0.4730538922155689	-162.0	-0.6771523676280417	1.2861244519500221	-61.0	3.139851371585026	3.0	
9.866382295187988	1940.0	-0.8380460372223524	2119.0	1.5481146878808607	1253.0	9.966891477621092	-16256.0	-0.627835683629675	1024.0	2304.0	1.4126302881667687	0.0	45645.0	1392.974853515625	-0.3652173913043478	733.0	1.1818181818181819	-172.0	-535.0	-0.4510978043912176	-146.0	-1.083491468038924	0.7994018624583942	-26.0	2.900568754984572	29.0	
9.830889624244588	1938.0	-0.7036915424156858	2108.0	1.5731996916616622	1256.0	9.927651747394236	-16192.0	-0.5493562231759657	896.0	2304.0	1.4126302881667687	0.0	46285.0	1412.506103515625	-0.3565217391304348	737.0	1.1737373737373737	-176.0	-529.0	-0.46307385229540926	-132.0	0.9096224738865644	0.8041307760996733	-35.0	2.6677098589113246	-101.0	
9.708367297397434	1936.0	-0.7382769678927797	2111.0	1.5957249996805882	1266.0	9.888412017167381	-16128.0	-0.5493562231759657	896.0	2368.0	1.4518700183936235	0.0	46925.0	1432.037353515625	-0.3652173913043478	733.0	1.1818181818181819	-172.0	-520.0	-0.48103792415169666	-106.0	1.684270432988074	0.3912201749373564	-10.0	2.264526116962895	-152.0	
9.74614840684271	1936.0	-0.6171131595530472	2101.0	1.5973144488584383	1263.0	9.849172286940528	-16064.0	-0.4316370324954016	704.0	2432.0	1.491109748620478	0.0	47565.0	1451.568603515625	-0.3673913043478261	732.0	1.1777777777777778	-174.0	-535.0	-0.4510978043912176	-41.0	1.3560065100852838	0.7834461526659027	-32.0	1.2792156002983868	-131.0	
9.710052379041153	1934.0	-0.5437098964476033	2095.0	1.621783906753646	1266.0	9.888412017167381	-16128.0	-0.3531575720416922	576.0	2304.0	1.4126302881667687	0.0	48205.0	1471.099853515625	-0.35434782608695653	738.0	1.1676767676767676	-179.0	-525.0	-0.471057884231537	-7.0	1.6467933005107467	1.2186744113943304	-61.0	0.7591974662344363	-150.0	
9.674087816509022	1937.0	-0.5178754437062982	2093.0	1.5855380273424846	1269.0	9.809932556713672	-16000.0	-0.4316370324954016	704.0	2496.0	1.5303494788473329	0.0	48845.0	1490.631103515625	-0.3630434782608696	734.0	1.1777777777777778	-174.0	-513.0	-0.49500998003992025	-1.0	2.1493419829785685	0.9174821457423717	-43.0	0.6629172265580471	-183.0	
9.577040938831196	1938.0	-0.47909652285229687	2090.0	1.5729071550031621	1277.0	9.652973635806253	-15744.0	-0.19619865113427343	320.0	2368.0	1.4518700183936235	0.0	49485.0	1510.162353515625	-0.36086956521739133	735.0	1.1575757575757575	-184.0	-510.0	-0.500998003992016	-36.0	2.2233432130466357	0.11142868956168622	9.0	1.1944966058923474	-188.0	
9.649101529164888	1937.0	-0.5783342386990458	2098.0	1.5846835765191156	1271.0	9.770692826486817	-15936.0	-0.3531575720416922	576.0	2368.0	1.4518700183936235	0.0	50125.0	1529.693603515625	-0.3565217391304348	737.0	1.1616161616161615	-182.0	-525.0	-0.471057884231537	2.0	0.6516291029898476	0.06402781736656094	21.0	0.6322669789320787	-86.0	
9.685331181015423	1945.0	-0.7112581235095057	2109.0	1.4873310920208418	1268.0	9.652973635806253	-15744.0	-0.4316370324954016	704.0	2240.0	1.3733905579399142	0.0	50765.0	1549.224853515625	-0.3695652173913044	731.0	1.185858585858586	-170.0	-524.0	-0.4730538922155689	-23.0	0.4360644131303193	-0.38595311813827915	51.0	1.0146507627128034	-72.0	
9.584776198442063	1942.0	-0.9781891011590881	2131.0	1.5198008107318655	1276.0	9.731453096259962	-15872.0	-0.627835683629675	1024.0	2304.0	1.4126302881667687	0.0	51405.0	1568.756103515625	-0.3673913043478261	732.0	1.1797979797979798	-173.0	-534.0	-0.45309381237524954	-38.0	-0.12487132605622063	0.07874514271958508	22.0	1.2483970022339463	-35.0	
9.682073053981378	1945.0	-1.0403947746961073	2136.0	1.4840071442386353	1268.0	9.809932556713672	-16000.0	-0.8240343347639485	1344.0	2176.0	1.3341508277130594	0.0	52045.0	1588.287353515625	-0.358695652173913	736.0	1.1656565656565656	-180.0	-532.0	-0.45708582834331346	-116.0	-0.07637617009816312	0.6725950695514298	-21.0	2.4342238377466088	-37.0	
9.681827393679	1943.0	-1.040871644694843	2136.0	1.5080963044777929	1268.0	9.770692826486817	-15936.0	-0.8632740649908032	1408.0	2240.0	1.3733905579399142	0.0	52685.0	1607.818603515625	-0.3630434782608696	734.0	1.1797979797979798	-173.0	-523.0	-0.47504990019960086	-199.0	1.2295824544559277	1.0859286913851778	-58.0	3.683521665949738	-121.0	
9.669881588738392	1945.0	-1.0401485563418698	2136.0	1.4838876917697479	1269.0	9.731453096259962	-15872.0	-0.9025137952176578	1472.0	2176.0	1.3341508277130594	0.0	53325.0	1627.349853515625	-0.3630434782608696	734.0	1.1818181818181819	-172.0	-534.0	-0.45309381237524954	-261.0	1.5817340363846268	1.5934154525330189	-96.0	4.622965929598131	-143.0	
9.731927116077573	1946.0	-0.9436192423917336	2128.0	1.4734252474115566	1264.0	9.809932556713672	-16000.0	-0.7063151440833844	1152.0	2240.0	1.3733905579399142	0.0	53965.0	1646.881103515625	-0.36086956521739133	735.0	1.1676767676767676	-179.0	-523.0	-0.47504990019960086	-258.0	0.635346825654576	2.1558617211450204	-129.0	4.5868024252795765	-81.0	
9.828967517416721	1942.0	-0.9465427292231049	2128.0	1.5225591876409719	1256.0	9.888412017167381	-16128.0	-0.745554874310239	1216.0	2240.0	1.3733905579399142	0.0	54605.0	1666.412353515625	-0.3673913043478261	732.0	1.1777777777777778	-174.0	-521.0	-0.4790419161676647	-191.0	0.27252180893917255	2.191889791085925	-127.0	3.571419268602624	-58.0	
9.755213210321077	1941.0	-0.9940648394580256	2132.0	1.5333946162387506	1262.0	9.927651747394236	-16192.0	-0.7847946045370937	1280.0	2304.0	1.4126302881667687	0.0	55245.0	1685.943603515625	-0.3565217391304348	737.0	1.1737373737373737	-176.0	-526.0	-0.46906187624750506	-120.0	1.8664049990263298	1.5094567837325052	-86.0	2.475632527956505	-163.0	
9.756913403421704	1946.0	-0.8831604473989861	2123.0	1.4742796982349256	1262.0	9.849172286940528	-16064.0	-0.7063151440833844	1152.0	2240.0	1.3733905579399142	0.0	55885.0	1705.474853515625	-0.35434782608695653	738.0	1.1636363636363636	-181.0	-522.0	-0.4770459081836328	-63.0	2.321494490175074	1.8422944436909734	-108.0	1.6041614809537625	-193.0	
9.756426400376062	1944.0	-0.9080178100782106	2125.0	1.4981226401198455	1262.0	9.849172286940528	-16064.0	-0.627835683629675	1024.0	2304.0	1.4126302881667687	0.0	56525.0	1725.006103515625	-0.36086956521739133	735.0	1.185858585858586	-170.0	-523.0	-0.47504990019960086	-10.0	1.3452850417516833	1.717594411086957	-93.0	0.8078399252478825	-130.0	
9.903685036705857	1942.0	-0.7895468369253513	2115.0	1.5248763217568406	1250.0	9.966891477621092	-16256.0	-0.7063151440833844	1152.0	2304.0	1.4126302881667687	0.0	57165.0	1744.537353515625	-0.3717391304347826	730.0	1.1717171717171717	-177.0	-507.0	-0.5069860279441119	14.0	1.305417054401208	1.1652548410340382	-55.0	0.44321959371454306	-128.0	
9.770425777413964	1943.0	-0.7134585219879038	2109.0	1.512256419542212	1261.0	9.966891477621092	-16256.0	-0.5493562231759657	896.0	2304.0	1.4126302881667687	0.0	57805.0	1764.068603515625	-0.36086956521739133	735.0	1.1696969696969697	-178.0	-504.0	-0.5129740518962077	26.0	2.9463717145510353	1.2232623181451323	-66.0	0.24430054140962273	-235.0	
9.684604994006076	1944.0	-0.772447790210096	2114.0	1.4987601262548267	1268.0	9.770692826486817	-15936.0	-0.5885959534028203	960.0	2368.0	1.4518700183936235	0.0	58445.0	1783.599853515625	-0.36086956521739133	735.0	1.1777777777777778	-174.0	-519.0	-0.4830339321357286	73.0	3.0912368107807557	1.0768553221116948	-55.0	-0.4719770068910776	-245.0	
9.843943059325461	1946.0	-0.7142205271152255	2109.0	1.4768393939968008	1255.0	9.888412017167381	-16128.0	-0.47087676272225626	768.0	2048.0	1.25567136725935	0.0	59085.0	1803.131103515625	-0.358695652173913	736.0	1.1777777777777778	-174.0	-531.0	-0.4590818363273454	39.0	1.3922936251658358	1.024492319702846	-45.0	0.0621226911247675	-134.0	
9.820281998289714	1945.0	-0.6286348010244067	2102.0	1.4895068334184356	1257.0	9.927651747394236	-16192.0	-0.510116492949111	832.0	2176.0	1.3341508277130594	0.0	59725.0	1822.662353515625	-0.3565217391304348	737.0	1.1737373737373737	-176.0	-528.0	-0.4650698602794412	26.0	2.853001546863346	1.094828348083062	-57.0	0.24523424308649963	-229.0	
9.746646203786142	1943.0	-0.6520148535782063	2104.0	1.5126330604900309	1263.0	9.849172286940528	-16064.0	-0.4316370324954016	704.0	2368.0	1.4518700183936235	0.0	60365.0	1842.193603515625	-0.35434782608695653	738.0	1.1777777777777778	-174.0	-518.0	-0.4850299401197605	32.0	3.1337915541327193	0.10442281006299639	8.0	0.1511715901620949	-248.0	
9.783461942258372	1943.0	-0.6283730159604298	2102.0	1.5132376362509306	1260.0	9.809932556713672	-16000.0	-0.510116492949111	832.0	2240.0	1.3733905579399142	0.0	61005.0	1861.724853515625	-0.36086956521739133	735.0	1.1656565656565656	-180.0	-519.0	-0.4830339321357286	4.0	2.11649729096539	-0.756350458388559	69.0	0.5872000461017529	-182.0	
9.69849233479058	1947.0	-0.6378859938235406	2103.0	1.4641000393132846	1267.0	9.770692826486817	-15936.0	-0.47087676272225626	768.0	2112.0	1.2949110974862048	0.0	61645.0	1881.256103515625	-0.34347826086956523	743.0	1.1636363636363636	-181.0	-521.0	-0.4790419161676647	-56.0	2.519967657165626	-1.22573149821618	96.0	1.4957128709568612	-208.0	
9.734575409914788	1943.0	-0.6395783888837243	2103.0	1.512636717198262	1264.0	9.888412017167381	-16128.0	-0.39239730226854685	640.0	2176.0	1.3341508277130594	0.0	62285.0	1900.787353515625	-0.3521739130434783	739.0	1.185858585858586	-170.0	-520.0	-0.48103792415169666	-139.0	1.008471840139527	-1.695763317113518	131.0	2.7731852435757913	-109.0	
9.74700390034192	1941.0	-0.5915404918757192	2099.0	1.537337766614782	1263.0	9.849172286940528	-16064.0	-0.3531575720416922	576.0	2240.0	1.3733905579399142	0.0	62925.0	1920.318603515625	-0.35	740.0	1.1818181818181819	-172.0	-532.0	-0.45708582834331346	-208.0	1.5254079164461272	-1.6987567355956148	126.0	3.817445540607402	-142.0	
9.613022771599798	1943.0	-0.6005454663206156	2100.0	1.5118115200407432	1274.0	9.731453096259962	-15872.0	-0.4316370324954016	704.0	2240.0	1.3733905579399142	0.0	63565.0	1939.849853515625	-0.35	740.0	1.1676767676767676	-179.0	-523.0	-0.47504990019960086	-188.0	2.3794138235347213	-1.9409307950743901	139.0	3.504722972030813	-198.0	
9.660948250529447	1945.0	-0.7107656868010306	2109.0	1.487092187083067	1270.0	9.692213366033108	-15808.0	-0.47087676272225626	768.0	2176.0	1.3341508277130594	0.0	64205.0	1959.381103515625	-0.3565217391304348	737.0	1.185858585858586	-170.0	-522.0	-0.4770459081836328	-208.0	1.7574101806406779	-1.5200015444579185	113.0	3.8151255179654564	-157.0	
9.624492367392556	1944.0	-0.6858849740571968	2107.0	1.4990246281502206	1273.0	9.652973635806253	-15744.0	-0.510116492949111	832.0	2304.0	1.4126302881667687	0.0	64845.0	1978.912353515625	-0.35	740.0	1.185858585858586	-170.0	-536.0	-0.44910179640718567	-205.0	2.0673075637557043	-1.1799252173106676	89.0	3.7663991677084514	-177.0	
9.601186844133027	1940.0	-0.5278730749230144	2094.0	1.5485644629933044	1275.0	9.731453096259962	-15872.0	-0.27467811158798283	448.0	2432.0	1.491109748620478	0.0	65485.0	1998.443603515625	-0.3456521739130435	742.0	1.1696969696969697	-178.0	-526.0	-0.46906187624750506	-220.0	2.6894170219993265	-0.5876718497201795	46.0	3.9883149552552926	-217.0	
9.602035861293563	1942.0	-0.4664449732230562	2089.0	1.5250908486397405	1275.0	9.731453096259962	-15872.0	-0.11771919068056406	192.0	2304.0	1.4126302881667687	0.0	589.0	2017.974853515625	-0.35	740.0	1.1757575757575758	-175.0	-514.0	-0.4930139720558883	-258.0	2.3455059491632335	-0.2570184273144503	24.0	4.5697008340444905	-194.0	
9.663234530251767	1942.0	-0.4432955723137548	2087.0	1.5259343293384158	1270.0	9.731453096259962	-15872.0	-0.3139178418148375	512.0	2240.0	1.3733905579399142	0.0	1229.0	2037.506103515625	-0.3391304347826087	745.0	1.1777777777777778	-174.0	-527.0	-0.4670658682634731	-263.0	1.7533361581266136	0.3058923962310492	-11.0	4.651668159331282	-155.0	
9.722870947717439	1945.0	-0.6144748078502621	2101.0	1.4886743228444543	1265.0	9.809932556713672	-16000.0	-0.39239730226854685	640.0	2112.0	1.2949110974862048	0.0	1869.0	2057.037353515625	-0.3391304347826087	745.0	1.1636363636363636	-181.0	-527.0	-0.4670658682634731	-368.0	0.615085091082514	-0.008598738957649843	11.0	6.2600088449066655	-80.0	
9.77235867813962	1944.0	-0.5303663918848684	2094.0	1.5020584770794145	1261.0	9.888412017167381	-16128.0	-0.3531575720416922	576.0	2240.0	1.3733905579399142	0.0	2509.0	2076.568603515625	-0.34347826086956523	743.0	1.1777777777777778	-174.0	-524.0	-0.4730538922155689	-414.0	1.847107109338072	-0.2872498035321467	22.0	6.947308396587228	-160.0	
9.723353633203963	1945.0	-0.565713822489284	2097.0	1.4891667595529294	1265.0	9.849172286940528	-16064.0	-0.3531575720416922	576.0	2240.0	1.3733905579399142	0.0	3149.0	2096.099853515625	-0.358695652173913	736.0	1.1737373737373737	-176.0	-509.0	-0.502994011976048	-445.0	2.280466127835442	-0.396240921801421	26.0	7.414457696136095	-188.0	
9.711162167960975	1945.0	-0.5654676041350466	2097.0	1.489047307084042	1266.0	9.809932556713672	-16000.0	-0.3531575720416922	576.0	2240.0	1.3733905579399142	0.0	3789.0	2115.631103515625	-0.34347826086956523	743.0	1.1696969696969697	-178.0	-517.0	-0.48702594810379246	-466.0	1.991827504621557	-0.418912346521226	28.0	7.736735717349222	-169.0	
9.686772761136323	1942.0	-0.5291197334039415	2094.0	1.5253114700363595	1268.0	9.809932556713672	-16000.0	-0.27467811158798283	448.0	2368.0	1.4518700183936235	0.0	4429.0	2135.162353515625	-0.34347826086956523	743.0	1.183838383838384	-171.0	-521.0	-0.4790419161676647	-460.0	2.143123568700386	-0.5457323924520515	36.0	7.643968003856722	-179.0	
9.64923515321387	1943.0	-0.6378548604040617	2103.0	1.5118005499160494	1271.0	9.652973635806253	-15744.0	-0.39239730226854685	640.0	2176.0	1.3341508277130594	0.0	5069.0	2154.693603515625	-0.34347826086956523	743.0	1.1818181818181819	-172.0	-526.0	-0.46906187624750506	-470.0	2.193589557070814	-0.25547840047022874	16.0	7.795554598725871	-182.0	
9.686412905800989	1943.0	-0.5776422837655516	2098.0	1.5127744532083056	1268.0	9.770692826486817	-15936.0	-0.4316370324954016	704.0	2368.0	1.4518700183936235	0.0	5709.0	2174.224853515625	-0.3391304347826087	745.0	1.1717171717171717	-177.0	-517.0	-0.48702594810379246	-484.0	1.6767212146840027	0.0268510896118746	-1.0	8.013651038803733	-148.0	
9.685923743975788	1940.0	-0.5905478351038995	2099.0	1.5487850843899231	1268.0	9.770692826486817	-15936.0	-0.39239730226854685	640.0	2304.0	1.4126302881667687	0.0	6349.0	2193.756103515625	-0.3347826086956522	747.0	1.183838383838384	-171.0	-517.0	-0.48702594810379246	-449.0	2.228839903345519	0.519461531982714	-35.0	7.475810460282134	-184.0	
9.685805231383716	1941.0	-0.6146898927850207	2101.0	1.5364942859161068	1268.0	9.731453096259962	-15872.0	-0.39239730226854685	640.0	2304.0	1.4126302881667687	0.0	6989.0	2213.287353515625	-0.33043478260869563	749.0	1.1676767676767676	-179.0	-508.0	-0.5049900199600799	-394.0	2.7932279426424995	1.0083928241814273	-68.0	6.633664678748481	-221.0	
9.684967008120971	1944.0	-0.7358770511893624	2111.0	1.499129453786183	1268.0	9.770692826486817	-15936.0	-0.5493562231759657	896.0	2176.0	1.3341508277130594	0.0	7629.0	2232.818603515625	-0.32608695652173914	751.0	1.1717171717171717	-177.0	-532.0	-0.45708582834331346	-368.0	3.360049165208143	1.2996021362958	-89.0	6.232559204165409	-258.0	
9.561964154566851	1943.0	-0.8311752733683111	2119.0	1.5089946357999369	1278.0	9.574494175352545	-15616.0	-0.627835683629675	1024.0	2240.0	1.3733905579399142	0.0	8269.0	2252.349853515625	-0.3456521739130435	742.0	1.1595959595959595	-183.0	-521.0	-0.4790419161676647	-354.0	3.360703188816135	1.5779387939851102	-107.0	6.019624907275337	-258.0	
9.647672901721336	1946.0	-0.8321834968498705	2119.0	1.4736970627234132	1271.0	9.770692826486817	-15936.0	-0.627835683629675	1024.0	2176.0	1.3341508277130594	0.0	8909.0	2271.881103515625	-0.3282608695652174	750.0	1.187878787878788	-169.0	-528.0	-0.4650698602794412	-368.0	2.93286064614696	1.5542220134443474	-104.0	6.236831089356021	-230.0	
9.611449726209475	1941.0	-0.7351150460620407	2111.0	1.5345464793315944	1274.0	9.692213366033108	-15808.0	-0.510116492949111	832.0	2304.0	1.4126302881667687	0.0	9549.0	2291.412353515625	-0.3282608695652174	750.0	1.1717171717171717	-177.0	-511.0	-0.4990019960079841	-353.0	2.3659002989991813	1.8726729963572706	-122.0	6.014363810698222	-193.0	
9.599506080048423	1944.0	-0.7463437690499444	2112.0	1.4981701773268516	1275.0	9.613733905579398	-15680.0	-0.510116492949111	832.0	2240.0	1.3733905579399142	0.0	10189.0	2310.943603515625	-0.33260869565217394	748.0	1.1696969696969697	-178.0	-513.0	-0.49500998003992025	-298.0	2.7852145927302576	1.6670537450854521	-108.0	5.173668766620226	-221.0	
9.403968585792319	1948.0	-0.838972506106629	2120.0	1.4470957439293866	1291.0	9.496014714898834	-15488.0	-0.7063151440833844	1152.0	2048.0	1.25567136725935	0.0	10829.0	2330.474853515625	-0.3239130434782609	752.0	1.187878787878788	-169.0	-529.0	-0.46307385229540926	-233.0	2.808652705592672	1.9298537348878586	-123.0	4.1848412295980655	-223.0	
9.648883932996766	1948.0	-0.7341846561291787	2111.0	1.4505927759012056	1271.0	9.692213366033108	-15808.0	-0.510116492949111	832.0	2304.0	1.4126302881667687	0.0	11469.0	2350.006103515625	-0.3239130434782609	752.0	1.1676767676767676	-179.0	-516.0	-0.4890219560878244	-261.0	1.9587170354883017	0.9224997746259878	-53.0	4.619196099607095	-168.0	
9.48941656118752	1942.0	-0.7567949202007868	2113.0	1.521061156168903	1284.0	9.496014714898834	-15488.0	-0.5885959534028203	960.0	2368.0	1.4518700183936235	0.0	12109.0	2369.537353515625	-0.33043478260869563	749.0	1.1777777777777778	-174.0	-532.0	-0.45708582834331346	-272.0	-1.0156526511982369	1.0628538746177416	-49.0	4.816240176702097	26.0	
9.659478606274291	1935.0	-0.7375305294751975	2111.0	1.607291769924617	1270.0	9.692213366033108	-15808.0	-0.5493562231759657	896.0	2560.0	1.5695892090741874	0.0	12749.0	2389.068603515625	-0.32608695652173914	751.0	1.1717171717171717	-177.0	-522.0	-0.4770459081836328	-255.0	-2.200279168950102	1.035706055591458	-41.0	4.5695313087997675	103.0	
9.62387605785705	1938.0	-0.6751253377131591	2106.0	1.571415218044812	1273.0	9.692213366033108	-15808.0	-0.510116492949111	832.0	2496.0	1.5303494788473329	0.0	13389.0	2408.599853515625	-0.31956521739130433	754.0	1.1757575757575758	-175.0	-527.0	-0.4670658682634731	-229.0	-0.1695532169308751	1.914682770949654	-108.0	4.1537867869221605	-29.0	
9.64898949291149	1941.0	-0.6383317304027972	2103.0	1.535889710155207	1271.0	9.692213366033108	-15808.0	-0.47087676272225626	768.0	2240.0	1.3733905579399142	0.0	14029.0	2428.131103515625	-0.33695652173913043	746.0	1.1818181818181819	-172.0	-520.0	-0.48103792415169666	-175.0	-0.2202963927241437	2.265908785722126	-129.0	3.333001443014694	-26.0	
9.722131808030744	1938.0	-0.6039536065055922	2100.0	1.5731094928586244	1265.0	9.849172286940528	-16064.0	-0.39239730226854685	640.0	2368.0	1.4518700183936235	0.0	14669.0	2447.662353515625	-0.32608695652173914	751.0	1.1717171717171717	-177.0	-526.0	-0.46906187624750506	-125.0	-0.7992540079303817	1.9168323817435242	-101.0	2.578334745402498	11.0	
9.758951864062087	1940.0	-0.604215391569569	2100.0	1.5493786900261295	1262.0	9.888412017167381	-16128.0	-0.4316370324954016	704.0	2368.0	1.4518700183936235	0.0	15309.0	2467.193603515625	-0.33043478260869563	749.0	1.1737373737373737	-176.0	-507.0	-0.5069860279441119	-115.0	-1.3969078985167882	2.1594152914440894	-114.0	2.4322200295555105	50.0	
9.930727054926836	1944.0	-0.5457574768302007	2095.0	1.5034882499978335	1248.0	9.966891477621092	-16256.0	-0.27467811158798283	448.0	2176.0	1.3341508277130594	0.0	15949.0	2486.724853515625	-0.32608695652173914	751.0	1.1898989898989898	-168.0	-515.0	-0.4910179640718563	-155.0	-1.1879462776724588	2.4953495555760163	-139.0	3.038495432358474	37.0	
9.870616587092872	1945.0	-0.4711464720181782	2089.0	1.4915850625965295	1253.0	9.927651747394236	-16192.0	-0.27467811158798283	448.0	2112.0	1.2949110974862048	0.0	16589.0	2506.256103515625	-0.32173913043478264	753.0	1.1818181818181819	-172.0	-527.0	-0.4670658682634731	-155.0	0.1771952755788878	2.4153282072178484	-140.0	3.0248440168259605	-52.0	
9.895124506509598	1947.0	-0.4833522850681622	2090.0	1.4676116981180285	1251.0	9.966891477621092	-16256.0	-0.27467811158798283	448.0	2048.0	1.25567136725935	0.0	17229.0	2525.787353515625	-0.31956521739130433	754.0	1.1737373737373737	-176.0	-513.0	-0.49500998003992025	-177.0	-0.05923747156240135	1.4588796561205712	-76.0	3.361809104753647	-37.0	
9.748221407956022	1946.0	-0.5293970851776578	2094.0	1.477730411902482	1263.0	9.849172286940528	-16064.0	-0.3139178418148375	512.0	2048.0	1.25567136725935	0.0	17869.0	2545.318603515625	-0.32608695652173914	751.0	1.1777777777777778	-174.0	-500.0	-0.5209580838323354	-166.0	0.554434828778361	1.602770124203491	-88.0	3.1883720015221027	-77.0	
9.748096419025275	1944.0	-0.5176837088361489	2093.0	1.5019426813187584	1263.0	9.849172286940528	-16064.0	-0.27467811158798283	448.0	2304.0	1.4126302881667687	0.0	18509.0	2564.849853515625	-0.3347826086956522	747.0	1.1777777777777778	-174.0	-514.0	-0.4930139720558883	-220.0	1.1914290029965886	1.5555686261475383	-90.0	4.00329483544532	-118.0	
9.74931176785982	1948.0	-0.44358849079721074	2087.0	1.4545030159031558	1263.0	9.849172286940528	-16064.0	-0.23543838136112813	384.0	2176.0	1.3341508277130594	0.0	19149.0	2584.381103515625	-0.32608695652173914	751.0	1.1616161616161615	-182.0	-520.0	-0.48103792415169666	-306.0	1.7927733667323371	2.0610958167215863	-130.0	5.305266182682487	-156.0	
9.76078136365258	1949.0	-0.528927998533792	2094.0	1.4417161240126333	1262.0	9.770692826486817	-15936.0	-0.39239730226854685	640.0	2112.0	1.2949110974862048	0.0	19789.0	2603.912353515625	-0.32608695652173914	751.0	1.1616161616161615	-182.0	-516.0	-0.4890219560878244	-344.0	1.2022720727355376	2.2889718885350936	-144.0	5.889117963683292	-117.0	
9.859037113826274	1949.0	-0.45775626732622504	2088.0	1.4434103988264457	1254.0	9.966891477621092	-16256.0	-0.3139178418148375	512.0	2176.0	1.3341508277130594	0.0	20429.0	2623.443603515625	-0.33043478260869563	749.0	1.183838383838384	-171.0	-524.0	-0.4730538922155689	-382.0	0.39420666571827173	2.247132851400432	-139.0	6.475145385814301	-64.0	
9.822223534133606	1950.0	-0.49334991628487823	2091.0	1.4306381337688483	1257.0	9.849172286940528	-16064.0	-0.3139178418148375	512.0	2176.0	1.3341508277130594	0.0	21069.0	2642.974853515625	-0.3173913043478261	755.0	1.1717171717171717	-177.0	-509.0	-0.502994011976048	-364.0	1.4435408048313243	1.5553646082390797	-97.0	6.190887785868037	-133.0	
9.87075236992141	1952.0	-0.5426189050640708	2095.0	1.4065343466967657	1253.0	9.888412017167381	-16128.0	-0.3139178418148375	512.0	2112.0	1.2949110974862048	0.0	21709.0	2662.506103515625	-0.3282608695652174	750.0	1.1797979797979798	-173.0	-514.0	-0.4930139720558883	-327.0	1.8579908555079383	0.5895081505353496	-33.0	5.62400564277572	-161.0	
9.577323298386064	1957.0	-0.6818004456484655	2107.0	1.3419672767201467	1277.0	9.692213366033108	-15808.0	-0.5885959534028203	960.0	1920.0	1.1771919068056407	0.0	22349.0	2682.037353515625	-0.3173913043478261	755.0	1.1898989898989898	-168.0	-527.0	-0.4670658682634731	-378.0	3.5064888148667537	0.44374607659439425	-33.0	6.383186062421676	-268.0	
9.796881709013253	1953.0	-0.6262348843209895	2102.0	1.3929112875240306	1259.0	9.888412017167381	-16128.0	-0.510116492949111	832.0	2176.0	1.3341508277130594	0.0	22989.0	2701.568603515625	-0.3173913043478261	755.0	1.1696969696969697	-178.0	-525.0	-0.471057884231537	-380.0	1.4999393234603604	-0.7221626349287	54.0	6.433669808286309	-138.0	
9.78433038843493	1954.0	-0.6745112163283622	2106.0	1.3802548182270893	1260.0	9.927651747394236	-16192.0	-0.47087676272225626	768.0	1984.0	1.2164316370324952	0.0	23629.0	2721.099853515625	-0.3108695652173913	758.0	1.183838383838384	-171.0	-522.0	-0.4770459081836328	-469.0	0.9645373161782484	-0.3642305482107319	29.0	7.792635995659511	-102.0	
9.637789303996248	1953.0	-0.6839852774171242	2107.0	1.3907428595428992	1272.0	9.731453096259962	-15872.0	-0.510116492949111	832.0	2112.0	1.2949110974862048	0.0	24269.0	2740.631103515625	-0.3130434782608696	757.0	1.1676767676767676	-179.0	-501.0	-0.5189620758483035	-422.0	2.3737765190248687	0.07602468660096123	-5.0	7.063714706292641	-194.0	
9.747266830880763	1951.0	-0.6866781126039975	2107.0	1.4159070920020445	1263.0	9.927651747394236	-16192.0	-0.5493562231759657	896.0	1984.0	1.2164316370324952	0.0	24909.0	2760.162353515625	-0.31521739130434784	756.0	1.1777777777777778	-174.0	-511.0	-0.4990019960079841	-354.0	1.5517446735837503	0.2495694430770684	-10.0	6.037714492427661	-141.0	
9.698621641280441	1951.0	-0.6735029928468029	2106.0	1.4155523913036132	1267.0	9.731453096259962	-15872.0	-0.5885959534028203	960.0	2112.0	1.2949110974862048	0.0	25549.0	2779.693603515625	-0.31956521739130433	754.0	1.1595959595959595	-183.0	-490.0	-0.5409181636726548	-314.0	1.6702527657106514	0.43057342185487774	-21.0	5.428164392494985	-149.0	
9.772378107155646	1953.0	-0.637932693952759	2103.0	1.392549273409137	1261.0	9.888412017167381	-16128.0	-0.510116492949111	832.0	1920.0	1.1771919068056407	0.0	26189.0	2799.224853515625	-0.3108695652173913	758.0	1.1898989898989898	-168.0	-523.0	-0.47504990019960086	-266.0	1.9893714357557089	0.8423618845316895	-48.0	4.694935182980846	-170.0	
9.78492942773397	1952.0	-0.5896563619453862	2099.0	1.405205742706078	1260.0	9.849172286940528	-16064.0	-0.39239730226854685	640.0	2048.0	1.25567136725935	0.0	26829.0	2818.756103515625	-0.3130434782608696	757.0	1.1757575757575758	-175.0	-510.0	-0.500998003992016	-242.0	1.976225674529121	1.4275927323981195	-86.0	4.330047629186267	-169.0	
9.711666441243084	1955.0	-0.6362247321828358	2103.0	1.367862850825542	1266.0	9.809932556713672	-16000.0	-0.4316370324954016	704.0	2048.0	1.25567136725935	0.0	27469.0	2838.287353515625	-0.31521739130434784	756.0	1.187878787878788	-169.0	-510.0	-0.500998003992016	-206.0	2.414847338547297	1.3290107827781092	-80.0	3.77813289543582	-198.0	
9.821876631475618	1957.0	-0.6135833346917487	2101.0	1.3450949811606092	1257.0	9.849172286940528	-16064.0	-0.5885959534028203	960.0	1920.0	1.1771919068056407	0.0	28109.0	2857.818603515625	-0.3065217391304348	760.0	1.1555555555555554	-185.0	-501.0	-0.5189620758483035	-216.0	2.14868642611088	0.6517967596797769	-34.0	3.932885759313036	-181.0	
9.785532784592125	1952.0	-0.5287051302441637	2094.0	1.4058212885916719	1260.0	9.888412017167381	-16128.0	-0.27467811158798283	448.0	2112.0	1.2949110974862048	0.0	28749.0	2877.349853515625	-0.3108695652173913	758.0	1.1777777777777778	-174.0	-511.0	-0.4990019960079841	-244.0	2.178351962332054	0.12295269039018192	0.0	4.358444617258809	-183.0	
9.675324753139147	1951.0	-0.5632983390761273	2097.0	1.4164214689599068	1269.0	9.809932556713672	-16000.0	-0.4316370324954016	704.0	1984.0	1.2164316370324952	0.0	29389.0	2896.881103515625	-0.30217391304347824	762.0	1.185858585858586	-170.0	-526.0	-0.46906187624750506	-247.0	1.7477061671018777	-0.01381699854821733	11.0	4.408378451636967	-155.0	
9.711655647345292	1950.0	-0.5764656754784521	2098.0	1.4287012973090294	1266.0	9.809932556713672	-16000.0	-0.39239730226854685	640.0	2176.0	1.3341508277130594	0.0	30029.0	2916.412353515625	-0.3065217391304348	760.0	1.1797979797979798	-173.0	-518.0	-0.4850299401197605	-236.0	1.5658026745611067	0.3803480934448942	-14.0	4.2428971063342376	-143.0	
9.71189051374988	1947.0	-0.516229748775333	2093.0	1.4654505835533596	1266.0	9.770692826486817	-15936.0	-0.3531575720416922	576.0	2304.0	1.4126302881667687	0.0	30669.0	2935.943603515625	-0.3065217391304348	760.0	1.1777777777777778	-174.0	-509.0	-0.502994011976048	-200.0	3.3137607624312126	0.7603514711535755	-46.0	3.6778890083452698	-257.0	
9.663984463836254	1954.0	-0.5135758303628084	2093.0	1.3806607128407582	1270.0	9.731453096259962	-15872.0	-0.3531575720416922	576.0	1920.0	1.1771919068056407	0.0	31309.0	2955.474853515625	-0.3130434782608696	757.0	1.1616161616161615	-182.0	-512.0	-0.4970059880239522	-196.0	2.0835218181534465	0.5785444942850868	-28.0	3.629354895886907	-177.0	
9.761149854106147	1952.0	-0.5282126935356886	2094.0	1.405582383653897	1262.0	9.849172286940528	-16064.0	-0.39239730226854685	640.0	1984.0	1.2164316370324952	0.0	31949.0	2975.006103515625	-0.30869565217391304	759.0	1.1676767676767676	-179.0	-498.0	-0.5249500998003993	-216.0	1.5964051269644954	0.6752430343522393	-33.0	3.9384085723044997	-145.0	
9.651189641735108	1954.0	-0.5742808437097935	2098.0	1.3799257144862769	1271.0	9.731453096259962	-15872.0	-0.3139178418148375	512.0	1984.0	1.2164316370324952	0.0	32589.0	2994.537353515625	-0.3065217391304348	760.0	1.1676767676767676	-179.0	-500.0	-0.5209580838323354	-219.0	2.4765938135069563	1.1668794453925093	-70.0	3.9752340618649304	-202.0	
9.70080020230848	1954.0	-0.4899339927450319	2091.0	1.3812652886016583	1267.0	9.731453096259962	-15872.0	-0.3531575720416922	576.0	2048.0	1.25567136725935	0.0	33229.0	3014.068603515625	-0.3108695652173913	758.0	1.187878787878788	-169.0	-508.0	-0.5049900199600799	-196.0	1.8570623682655145	0.9541261619523094	-52.0	3.631619490385786	-162.0	
9.725795124770846	1958.0	-0.4772824431157913	2090.0	1.333448982238237	1265.0	9.770692826486817	-15936.0	-0.3139178418148375	512.0	1920.0	1.1771919068056407	0.0	33869.0	3033.599853515625	-0.29782608695652174	764.0	1.1898989898989898	-168.0	-515.0	-0.4910179640718563	-213.0	1.346530921329599	0.28966177292206197	-6.0	3.895279937934993	-129.0	
9.688248881730155	1955.0	-0.5382103247524047	2095.0	1.3686088193047168	1268.0	9.849172286940528	-16064.0	-0.39239730226854685	640.0	1984.0	1.2164316370324952	0.0	34509.0	3053.131103515625	-0.29347826086956524	766.0	1.1757575757575758	-175.0	-507.0	-0.5069860279441119	-242.0	0.993516924031287	-0.15318615086108434	24.0	4.339874716691246	-106.0	
9.786386119311778	1956.0	-0.491180651225959	2091.0	1.3580122956447132	1260.0	9.849172286940528	-16064.0	-0.3139178418148375	512.0	2048.0	1.25567136725935	0.0	35149.0	3072.662353515625	-0.30434782608695654	761.0	1.187878787878788	-169.0	-524.0	-0.4730538922155689	-224.0	0.8802362485710928	-0.4641863279656201	46.0	4.067243264890715	-99.0	
9.70043387063447	1952.0	-0.502601109084012	2092.0	1.405231339663697	1267.0	9.809932556713672	-16000.0	-0.3531575720416922	576.0	2048.0	1.25567136725935	0.0	35789.0	3092.193603515625	-0.29347826086956524	766.0	1.1777777777777778	-174.0	-519.0	-0.4830339321357286	-235.0	1.2076629040539808	-0.11885464469320617	21.0	4.231269378564024	-120.0	
9.67556609588241	1951.0	-0.5389178463956383	2095.0	1.4166676873141444	1269.0	9.731453096259962	-15872.0	-0.3531575720416922	576.0	2048.0	1.25567136725935	0.0	36429.0	3111.724853515625	-0.28695652173913044	769.0	1.183838383838384	-171.0	-509.0	-0.502994011976048	-195.0	0.8212489069426604	0.21723194148059077	2.0	3.6267684995237293	-95.0	
9.675326911918706	1952.0	-0.575250150417004	2098.0	1.4042537796632093	1269.0	9.770692826486817	-15936.0	-0.47087676272225626	768.0	2048.0	1.25567136725935	0.0	37069.0	3131.256103515625	-0.30434782608695654	761.0	1.1939393939393939	-166.0	-514.0	-0.4930139720558883	-178.0	0.5129278680907831	0.338988313596631	-4.0	3.3712965768324	-75.0	
9.822111497880206	1954.0	-0.5533474079886296	2096.0	1.3818442674049394	1257.0	9.927651747394236	-16192.0	-0.39239730226854685	640.0	2048.0	1.25567136725935	0.0	37709.0	3150.787353515625	-0.3	763.0	1.1757575757575758	-175.0	-522.0	-0.4770459081836328	-188.0	0.3939379823092617	0.5660739156787997	-19.0	3.5245777304430677	-67.0	
9.93267938466852	1954.0	-0.47023164879505575	2089.0	1.3837811038647583	1248.0	9.927651747394236	-16192.0	-0.27467811158798283	448.0	1984.0	1.2164316370324952	0.0	38349.0	3170.318603515625	-0.29782608695652174	764.0	1.1737373737373737	-176.0	-493.0	-0.5349301397205589	-218.0	0.6237255359011589	0.06706213518655757	12.0	3.978553619165704	-82.0	
9.76114769532659	1951.0	-0.5162608821948119	2093.0	1.4177500729505945	1262.0	9.809932556713672	-16000.0	-0.27467811158798283	448.0	2176.0	1.3341508277130594	0.0	38989.0	3189.849853515625	-0.3065217391304348	760.0	1.1898989898989898	-168.0	-509.0	-0.502994011976048	-244.0	1.2399495107656777	-0.09659207019519106	19.0	4.367828641774473	-122.0	
9.785767650996714	1949.0	-0.4684692035410445	2089.0	1.4425705748360018	1260.0	9.927651747394236	-16192.0	-0.27467811158798283	448.0	2176.0	1.3341508277130594	0.0	39629.0	3209.381103515625	-0.2891304347826087	768.0	1.1898989898989898	-168.0	-523.0	-0.47504990019960086	-220.0	1.0051948801327126	-0.1855924174318704	27.0	4.005157176673959	-107.0	
9.908055111439282	1954.0	-0.4941197047670697	2091.0	1.3832959805727458	1250.0	9.966891477621092	-16256.0	-0.3139178418148375	512.0	2048.0	1.25567136725935	0.0	40269.0	3228.912353515625	-0.29782608695652174	764.0	1.1757575757575758	-175.0	-503.0	-0.5149700598802396	-184.0	0.8196441007182249	0.22403565120293698	2.0	3.4594841673578367	-95.0	
9.797487224650967	1954.0	-0.5772354639606436	2098.0	1.381359144112927	1259.0	9.888412017167381	-16128.0	-0.510116492949111	832.0	2048.0	1.25567136725935	0.0	40909.0	3248.443603515625	-0.2956521739130435	765.0	1.1797979797979798	-173.0	-524.0	-0.4730538922155689	-196.0	1.0759815216933555	-0.4157984671982323	43.0	3.639430298851508	-112.0	
9.78541858955917	1955.0	-0.5767508106070383	2098.0	1.3691951115244605	1260.0	9.966891477621092	-16256.0	-0.4316370324954016	704.0	1984.0	1.2164316370324952	0.0	41549.0	3267.974853515625	-0.2891304347826087	768.0	1.1737373737373737	-176.0	-524.0	-0.4730538922155689	-220.0	1.396915641994613	-0.9175038586193776	74.0	4.00123996905534	-133.0	
9.735801552647123	1952.0	-0.6252422275491697	2102.0	1.4043586052991717	1264.0	9.849172286940528	-16064.0	-0.510116492949111	832.0	1920.0	1.1771919068056407	0.0	42189.0	3287.506103515625	-0.29347826086956524	766.0	1.1757575757575758	-175.0	-512.0	-0.4970059880239522	-211.0	1.8740452982832603	-0.6453867225634462	54.0	3.859586543214886	-164.0	
9.736170043100692	1955.0	-0.6245269225510663	2102.0	1.3682248649404354	1264.0	9.770692826486817	-15936.0	-0.4316370324954016	704.0	2048.0	1.25567136725935	0.0	42829.0	3307.037353515625	-0.29347826086956524	766.0	1.1818181818181819	-172.0	-514.0	-0.4930139720558883	-203.0	2.474316345043068	-0.3524635848070669	32.0	3.7319108289450065	-203.0	
9.699472817220537	1954.0	-0.6240267024877215	2102.0	1.3799110876533518	1267.0	9.809932556713672	-16000.0	-0.5493562231759657	896.0	2176.0	1.3341508277130594	0.0	43469.0	3326.568603515625	-0.2956521739130435	765.0	1.1717171717171717	-177.0	-510.0	-0.500998003992016	-136.0	2.033458146566484	-0.4459369391487177	43.0	2.7173080040856665	-175.0	
9.712386151913753	1953.0	-0.5391796314596153	2095.0	1.3929368844816494	1266.0	9.770692826486817	-15936.0	-0.4316370324954016	704.0	2112.0	1.2949110974862048	0.0	44109.0	3346.099853515625	-0.2847826086956522	770.0	1.1777777777777778	-174.0	-507.0	-0.5069860279441119	-102.0	1.1034848954814414	-0.8402865101668409	75.0	2.2094974704368204	-115.0	
9.723239438171008	1948.0	-0.6137595028521587	2101.0	1.452540582485718	1265.0	9.809932556713672	-16000.0	-0.510116492949111	832.0	2048.0	1.25567136725935	0.0	44749.0	3365.631103515625	-0.29347826086956524	766.0	1.1898989898989898	-168.0	-524.0	-0.4730538922155689	-81.0	1.193941147987279	-0.6838815624607482	65.0	1.8892012729307737	-121.0	
9.773099976605874	1952.0	-0.5528394045704151	2096.0	1.4054556177685469	1261.0	9.809932556713672	-16000.0	-0.3531575720416922	576.0	1984.0	1.2164316370324952	0.0	45389.0	3385.162353515625	-0.2847826086956522	770.0	1.1898989898989898	-168.0	-515.0	-0.4910179640718563	-45.0	1.8632168240713687	-0.7385470163280421	67.0	1.3349799990596667	-165.0	
9.688483748134743	1952.0	-0.4779743980492855	2090.0	1.405358105549047	1268.0	9.809932556713672	-16000.0	-0.27467811158798283	448.0	2048.0	1.25567136725935	0.0	46029.0	3404.693603515625	-0.2847826086956522	770.0	1.1777777777777778	-174.0	-512.0	-0.4970059880239522	-42.0	2.326783678035624	-0.3791810768556457	41.0	1.2847169540941685	-195.0	
9.774548033065448	1952.0	-0.40655644848748107	2084.0	1.406932927893972	1261.0	9.849172286940528	-16064.0	-0.23543838136112813	384.0	2112.0	1.2949110974862048	0.0	46669.0	3424.224853515625	-0.28695652173913044	769.0	1.195959595959596	-165.0	-519.0	-0.4830339321357286	-34.0	1.6049280134821955	-0.3090804987025099	40.0	1.1702625069374215	-148.0	
9.823076868853256	1954.0	-0.45582543726667357	2088.0	1.3828291408218893	1257.0	9.888412017167381	-16128.0	-0.23543838136112813	384.0	2048.0	1.25567136725935	0.0	47309.0	3443.756103515625	-0.2826086956521739	771.0	1.1797979797979798	-173.0	-516.0	-0.4890219560878244	-45.0	1.0040460006027387	-0.7087337345108773	69.0	1.3435717072943532	-109.0	
9.737236656429348	1946.0	-0.40724840342097524	2084.0	1.478842051204782	1264.0	9.770692826486817	-15936.0	-0.19619865113427343	320.0	2304.0	1.4126302881667687	0.0	47949.0	3463.287353515625	-0.2847826086956522	770.0	1.1797979797979798	-173.0	-507.0	-0.5069860279441119	-80.0	1.522670016747488	-1.5607254403506259	122.0	1.8707048587678865	-143.0	
9.701390606489287	1948.0	-0.35727189299854906	2080.0	1.4548869702674372	1267.0	9.731453096259962	-15872.0	-0.23543838136112813	384.0	2112.0	1.2949110974862048	0.0	48589.0	3482.818603515625	-0.2847826086956522	770.0	1.197979797979798	-164.0	-513.0	-0.49500998003992025	-96.0	1.6917636502413427	-1.7771307462716175	135.0	2.112359930037511	-154.0	
9.823665114254505	1947.0	-0.31121152617931397	2076.0	1.468618511784366	1257.0	9.927651747394236	-16192.0	-0.15695892090741875	256.0	2176.0	1.3341508277130594	0.0	49229.0	3502.349853515625	-0.2826086956521739	771.0	1.1818181818181819	-172.0	-522.0	-0.4770459081836328	-96.0	0.8028176896721203	-1.6552900924234961	131.0	2.121249389643203	-96.0	
9.628358168843873	1946.0	-0.3197007138511261	2077.0	1.478628743224626	1273.0	9.692213366033108	-15808.0	-0.19619865113427343	320.0	2112.0	1.2949110974862048	0.0	49869.0	3521.881103515625	-0.2826086956521739	771.0	1.1777777777777778	-174.0	-511.0	-0.4990019960079841	-134.0	2.918217373591969	-0.9560745637554467	73.0	2.678042160864841	-233.0	
9.628235338692683	1945.0	-0.3199391488504938	2077.0	1.4906733233442047	1273.0	9.692213366033108	-15808.0	-0.11771919068056406	192.0	2240.0	1.3733905579399142	0.0	50509.0	3541.412353515625	-0.2826086956521739	771.0	1.195959595959596	-165.0	-525.0	-0.471057884231537	-171.0	2.65854222944437	-1.3952932881218478	102.0	3.243376554891868	-216.0	
9.737230180090675	1943.0	-0.3713929693983451	2081.0	1.5153451190948746	1264.0	9.809932556713672	-16000.0	-0.23543838136112813	384.0	2304.0	1.4126302881667687	0.0	51149.0	3560.943603515625	-0.2739130434782609	775.0	1.187878787878788	-169.0	-524.0	-0.4730538922155689	-215.0	0.2880282473174019	-1.227088568306061	100.0	3.9362832156256857	-61.0	
9.627394956650381	1947.0	-0.42917449591395884	2086.0	1.4654761805109782	1273.0	9.692213366033108	-15808.0	-0.27467811158798283	448.0	2048.0	1.25567136725935	0.0	51789.0	3580.474853515625	-0.28043478260869564	772.0	1.1797979797979798	-173.0	-515.0	-0.4910179640718563	-226.0	2.155744950302275	-0.3292909074222441	31.0	4.084906428823973	-182.0	
9.615559029183611	1944.0	-0.3565021045163576	2080.0	1.5022291234635397	1274.0	9.652973635806253	-15744.0	-0.23543838136112813	384.0	2112.0	1.2949110974862048	0.0	52429.0	3600.006103515625	-0.2847826086956522	770.0	1.1797979797979798	-173.0	-499.0	-0.5229540918163673	-245.0	2.8557221272465183	0.31507942186313875	-16.0	4.36688004108495	-227.0	
9.713217898837824	1947.0	-0.3821370390326434	2082.0	1.4668047845016658	1266.0	9.809932556713672	-16000.0	-0.23543838136112813	384.0	2176.0	1.3341508277130594	0.0	53069.0	3619.537353515625	-0.2782608695652174	773.0	1.1818181818181819	-172.0	-517.0	-0.48702594810379246	-213.0	1.8720331992168062	0.6578844155805127	-33.0	3.890024915156121	-163.0	
9.713213581278707	1945.0	-0.3582334163508899	2080.0	1.491140163095061	1266.0	9.809932556713672	-16000.0	-0.23543838136112813	384.0	2176.0	1.3341508277130594	0.0	53709.0	3639.068603515625	-0.2782608695652174	773.0	1.185858585858586	-170.0	-503.0	-0.5149700598802396	-218.0	1.704505228776166	0.7114800484725019	-36.0	3.9677458222369535	-152.0	
9.664333525273797	1948.0	-0.4052942232968145	2084.0	1.4540361761522995	1270.0	9.770692826486817	-15936.0	-0.27467811158798283	448.0	2112.0	1.2949110974862048	0.0	54349.0	3658.599853515625	-0.2826086956521739	771.0	1.195959595959596	-165.0	-516.0	-0.4890219560878244	-214.0	1.644671000259327	0.9279730233270826	-50.0	3.907507662620981	-148.0	
9.68882849201317	1944.0	-0.3457891683015382	2079.0	1.5030689474539833	1268.0	9.692213366033108	-15808.0	-0.03923973022685469	64.0	2240.0	1.3733905579399142	0.0	54989.0	3678.131103515625	-0.27608695652173915	774.0	1.185858585858586	-170.0	-520.0	-0.48103792415169666	-242.0	1.5568838517909087	0.932041292076291	-51.0	4.3342410474136495	-142.0	
9.76150323310281	1948.0	-0.4438347091514482	2087.0	1.4546224683720432	1262.0	9.849172286940528	-16064.0	-0.3139178418148375	512.0	2112.0	1.2949110974862048	0.0	55629.0	3697.662353515625	-0.2826086956521739	771.0	1.1777777777777778	-174.0	-505.0	-0.5109780439121757	-211.0	1.4030361131883233	1.366406011471785	-78.0	3.8642966350658354	-132.0	
9.712138332831817	1950.0	-0.5277046901174741	2094.0	1.4291937340175045	1266.0	9.770692826486817	-15936.0	-0.3139178418148375	512.0	2112.0	1.2949110974862048	0.0	56269.0	3717.193603515625	-0.27608695652173915	774.0	1.195959595959596	-165.0	-522.0	-0.4770459081836328	-210.0	0.859204647850314	0.7152098740645288	-32.0	3.8545258242439306	-97.0	
9.809786408588238	1948.0	-0.4935805679293763	2091.0	1.4546078415391184	1258.0	9.927651747394236	-16192.0	-0.27467811158798283	448.0	2304.0	1.4126302881667687	0.0	56909.0	3736.724853515625	-0.27608695652173915	774.0	1.183838383838384	-171.0	-510.0	-0.500998003992016	-211.0	1.2403782948148483	0.4481917632467709	-16.0	3.8659232132495704	-122.0	
9.68823161149369	1947.0	-0.44259583402539093	2087.0	1.4659503336782969	1268.0	9.770692826486817	-15936.0	-0.23543838136112813	384.0	2112.0	1.2949110974862048	0.0	57549.0	3756.256103515625	-0.27608695652173915	774.0	1.195959595959596	-165.0	-500.0	-0.5209580838323354	-191.0	1.8074756430619003	0.6757616519071451	-33.0	3.5560697302613966	-159.0	
9.66408570619186	1945.0	-0.3938192819546734	2083.0	1.4902930256881546	1270.0	9.731453096259962	-15872.0	-0.3139178418148375	512.0	2176.0	1.3341508277130594	0.0	58189.0	3775.787353515625	-0.27608695652173915	774.0	1.197979797979798	-164.0	-518.0	-0.4850299401197605	-157.0	1.3890159360661931	0.7855408731529379	-37.0	3.0431440611716574	-132.0	
9.639952753567378	1949.0	-0.41675359792921624	2085.0	1.4416295819178269	1272.0	9.692213366033108	-15808.0	-0.23543838136112813	384.0	2112.0	1.2949110974862048	0.0	58829.0	3795.318603515625	-0.2673913043478261	778.0	1.1919191919191918	-167.0	-522.0	-0.4770459081836328	-150.0	1.0340455730952856	0.6945653355637854	-29.0	2.9402298864743703	-109.0	
9.663607338264452	1947.0	-0.46648388999740487	2089.0	1.4654652103862844	1270.0	9.692213366033108	-15808.0	-0.3139178418148375	512.0	2176.0	1.3341508277130594	0.0	59469.0	3814.849853515625	-0.26521739130434785	779.0	1.1818181818181819	-172.0	-506.0	-0.5089820359281437	-148.0	0.5154421902775782	1.0467194397565653	-50.0	2.9149976693519775	-75.0	
9.71285372594337	1946.0	-0.4067559667125002	2084.0	1.478603146267007	1266.0	9.770692826486817	-15936.0	-0.27467811158798283	448.0	2176.0	1.3341508277130594	0.0	60109.0	3834.381103515625	-0.27608695652173915	774.0	1.1939393939393939	-166.0	-513.0	-0.49500998003992025	-155.0	1.0431641548259922	1.5304690670753236	-85.0	3.0161843280334892	-109.0	
9.774910047180343	1952.0	-0.3699857094667475	2081.0	1.4073022554253283	1261.0	9.849172286940528	-16064.0	-0.23543838136112813	384.0	1984.0	1.2164316370324952	0.0	60749.0	3853.912353515625	-0.26956521739130435	777.0	1.1777777777777778	-174.0	-519.0	-0.4830339321357286	-172.0	1.1506063187125486	1.2727688271756104	-69.0	3.273665039474472	-116.0	
9.689451277887352	1953.0	-0.3924042386682062	2083.0	1.3941752896692994	1268.0	9.770692826486817	-15936.0	-0.27467811158798283	448.0	2176.0	1.3341508277130594	0.0	61389.0	3873.443603515625	-0.26956521739130435	777.0	1.1797979797979798	-173.0	-510.0	-0.500998003992016	-228.0	-0.5386288102591675	0.3217883924667134	0.0	4.1422684173801585	-6.0	
9.738096467487674	1953.0	-0.4055793584254007	2084.0	1.3945299903677306	1264.0	9.849172286940528	-16064.0	-0.27467811158798283	448.0	2112.0	1.2949110974862048	0.0	62029.0	3892.974853515625	-0.26521739130434785	779.0	1.1939393939393939	-166.0	-525.0	-0.471057884231537	-211.0	0.122126574308349	0.6609546167271566	-25.0	3.8771057304546352	-49.0	
9.713707060663024	1950.0	-0.3692314876942955	2081.0	1.4307941533200483	1266.0	9.731453096259962	-15872.0	-0.27467811158798283	448.0	2112.0	1.2949110974862048	0.0	62669.0	3912.506103515625	-0.2739130434782609	775.0	1.183838383838384	-171.0	-497.0	-0.5269461077844312	-218.0	0.7853347137301384	0.8804018425565872	-43.0	3.9769375273874137	-92.0	
9.688591466829026	1946.0	-0.3940732836637807	2083.0	1.4784873505063507	1268.0	9.770692826486817	-15936.0	-0.19619865113427343	320.0	2176.0	1.3341508277130594	0.0	63309.0	3932.037353515625	-0.27608695652173915	774.0	1.187878787878788	-169.0	-502.0	-0.5169660678642716	-187.0	0.9191445629294493	0.9199330001379206	-45.0	3.5041165391615805	-101.0	
9.726262698800463	1951.0	-0.34485877836867623	2079.0	1.4191152440235946	1265.0	9.809932556713672	-16000.0	-0.03923973022685469	64.0	2112.0	1.2949110974862048	0.0	63949.0	3951.568603515625	-0.26956521739130435	777.0	1.195959595959596	-165.0	-518.0	-0.4850299401197605	-186.0	1.5380209228214679	1.432190209189107	-82.0	3.4827186500873752	-141.0	
9.61642963413973	1956.0	-0.41459211622516673	2085.0	1.3570786161430006	1274.0	9.731453096259962	-15872.0	-0.15695892090741875	256.0	1856.0	1.137952176578786	0.0	64589.0	3971.099853515625	-0.26956521739130435	777.0	1.1818181818181819	-172.0	-516.0	-0.4890219560878244	-212.0	0.6812950255728669	1.311083299913928	-71.0	3.8867231714172754	-85.0	
9.762354409042903	1951.0	-0.39435841879236677	2083.0	1.418981164721782	1262.0	9.770692826486817	-15936.0	-0.27467811158798283	448.0	2048.0	1.25567136725935	0.0	65229.0	3990.631103515625	-0.26304347826086955	780.0	1.185858585858586	-170.0	-507.0	-0.5069860279441119	-251.0	-1.099146446606472	0.706628114474246	-24.0	4.4976834796751906	31.0	
9.79964635666298	1948.0	-0.28610016179098213	2074.0	1.4565812450812496	1259.0	9.888412017167381	-16128.0	-0.19619865113427343	320.0	2112.0	1.2949110974862048	0.0	333.0	4010.162353515625	-0.26956521739130435	777.0	1.197979797979798	-164.0	-511.0	-0.4990019960079841	-249.0	-0.05352707071236115	0.9349198109125574	-44.0	4.456809034965679	-37.0	
9.677615350420584	1950.0	-0.31973184727060494	2077.0	1.4309282326218609	1269.0	9.692213366033108	-15808.0	-0.23543838136112813	384.0	2112.0	1.2949110974862048	0.0	973.0	4029.693603515625	-0.2673913043478261	778.0	1.1818181818181819	-172.0	-519.0	-0.4830339321357286	-247.0	1.1295259553520451	1.0936761103065127	-60.0	4.414560253754465	-114.0	
9.738096467487674	1953.0	-0.4055793584254007	2084.0	1.3945299903677306	1264.0	9.888412017167381	-16128.0	-0.3139178418148375	512.0	2112.0	1.2949110974862048	0.0	1613.0	4049.224853515625	-0.26956521739130435	777.0	1.1797979797979798	-173.0	-500.0	-0.5209580838323354	-251.0	0.9956719869229598	1.4603789763881536	-84.0	4.476735295339896	-105.0	
9.652383402774072	1948.0	-0.38066751226208806	2082.0	1.4541629420376496	1271.0	9.731453096259962	-15872.0	-0.27467811158798283	448.0	2048.0	1.25567136725935	0.0	2253.0	4068.756103515625	-0.26304347826086955	780.0	1.195959595959596	-165.0	-520.0	-0.48103792415169666	-260.0	1.3858026668747636	1.9674807308249394	-120.0	4.609716117817945	-130.0	
9.78686016968007	1952.0	-0.39461242050147405	2083.0	1.4071754895399782	1260.0	9.849172286940528	-16064.0	-0.23543838136112813	384.0	2048.0	1.25567136725935	0.0	2893.0	4088.287353515625	-0.2717391304347826	776.0	1.195959595959596	-165.0	-511.0	-0.4990019960079841	-249.0	0.8669349013270132	2.430076047463714	-148.0	4.447604415245285	-96.0	
9.725536511791118	1950.0	-0.4060484450692666	2084.0	1.4305442782575795	1265.0	9.809932556713672	-16000.0	-0.23543838136112813	384.0	2048.0	1.25567136725935	0.0	3533.0	4107.818603515625	-0.26304347826086955	780.0	1.1919191919191918	-167.0	-500.0	-0.5209580838323354	-216.0	1.6597935566242308	2.40996163443053	-149.0	3.9377746880079028	-148.0	
9.738936849529976	1951.0	-0.2963440113619357	2075.0	1.419727133200957	1264.0	9.849172286940528	-16064.0	-0.15695892090741875	256.0	2176.0	1.3341508277130594	0.0	4173.0	4127.349853515625	-0.26521739130434785	779.0	1.1676767676767676	-179.0	-511.0	-0.4990019960079841	-216.0	1.247342800321274	2.603585748298601	-160.0	3.9418991955709326	-121.0	
9.677856693163847	1950.0	-0.2953513545901159	2075.0	1.4311744509760982	1269.0	9.809932556713672	-16000.0	-0.19619865113427343	320.0	2048.0	1.25567136725935	0.0	4813.0	4146.881103515625	-0.26304347826086955	780.0	1.183838383838384	-171.0	-519.0	-0.4830339321357286	-234.0	1.0669736562967411	2.7101363966173855	-167.0	4.21746714556631	-109.0	
9.799280024988969	1946.0	-0.29876727812996223	2075.0	1.4805472961432884	1259.0	9.888412017167381	-16128.0	-0.11771919068056406	192.0	2176.0	1.3341508277130594	0.0	5453.0	4166.412353515625	-0.25869565217391305	782.0	1.183838383838384	-171.0	-504.0	-0.5129740518962077	-241.0	0.6827725789538147	2.5527081914898617	-155.0	4.327773034666737	-84.0	
9.751248986144594	1951.0	-0.28439998337592876	2074.0	1.4199696948469633	1263.0	9.770692826486817	-15936.0	-0.11771919068056406	192.0	2112.0	1.2949110974862048	0.0	6093.0	4185.943603515625	-0.2673913043478261	778.0	1.1939393939393939	-166.0	-509.0	-0.502994011976048	-301.0	1.2919156054656367	2.6986974919258437	-170.0	5.2342291329187285	-123.0	
9.77624606738652	1956.0	-0.2837002450875648	2074.0	1.3599856991868444	1261.0	9.888412017167381	-16128.0	-0.11771919068056406	192.0	1984.0	1.2164316370324952	0.0	6733.0	4205.474853515625	-0.25869565217391305	782.0	1.183838383838384	-171.0	-511.0	-0.4990019960079841	-344.0	1.4999666486061756	2.8979375034757866	-186.0	5.886141017924585	-136.0	
9.725898525906013	1950.0	-0.36947770604853303	2081.0	1.4309136057889358	1265.0	9.888412017167381	-16128.0	-0.23543838136112813	384.0	2112.0	1.2949110974862048	0.0	7373.0	4225.006103515625	-0.2608695652173913	781.0	1.1818181818181819	-172.0	-501.0	-0.5189620758483035	-406.0	0.05669903172414971	1.8962025323151266	-115.0	6.843539473561085	-42.0	
9.88511807863332	1953.0	-0.3353925006347839	2078.0	1.3967020750570935	1252.0	9.927651747394236	-16192.0	-0.15695892090741875	256.0	1984.0	1.2164316370324952	0.0	8013.0	4244.537353515625	-0.26304347826086955	780.0	1.195959595959596	-165.0	-514.0	-0.4930139720558883	-413.0	-0.8004949215321245	0.4823393090123419	-17.0	6.958575291420646	13.0	
9.738462799161686	1955.0	-0.3929122420864206	2083.0	1.3705639393056919	1264.0	9.888412017167381	-16128.0	-0.27467811158798283	448.0	1920.0	1.1771919068056407	0.0	8653.0	4264.068603515625	-0.25869565217391305	782.0	1.1696969696969697	-178.0	-495.0	-0.530938123752495	-445.0	-0.3009980882995771	0.8329042500103919	-44.0	7.440272338297445	-19.0	
9.701162216423374	1954.0	-0.4533632537242984	2088.0	1.3816346161330144	1267.0	9.770692826486817	-15936.0	-0.27467811158798283	448.0	2048.0	1.25567136725935	0.0	9293.0	4283.599853515625	-0.26521739130434785	779.0	1.1898989898989898	-168.0	-498.0	-0.5249500998003993	-454.0	0.34746445972974255	1.0821460464589672	-64.0	7.570669842094719	-61.0	
9.676050940148494	1952.0	-0.502108672375537	2092.0	1.404992434725922	1269.0	9.652973635806253	-15744.0	-0.3531575720416922	576.0	2112.0	1.2949110974862048	0.0	9933.0	4303.131103515625	-0.2608695652173913	781.0	1.1818181818181819	-172.0	-493.0	-0.5349301397205589	-412.0	0.4363550491823658	1.4013606671940624	-84.0	6.9309976662382144	-67.0	
9.82332900549431	1959.0	-0.4912040012905682	2091.0	1.3222369126926394	1257.0	9.966891477621092	-16256.0	-0.3531575720416922	576.0	1920.0	1.1771919068056407	0.0	10573.0	4322.662353515625	-0.25217391304347825	785.0	1.1757575757575758	-175.0	-507.0	-0.5069860279441119	-324.0	1.896316665707931	1.3982609716012648	-87.0	5.577995008247864	-163.0	
9.847828289792801	1957.0	-0.4556025689770452	2088.0	1.3469343054009282	1255.0	9.888412017167381	-16128.0	-0.3139178418148375	512.0	1856.0	1.137952176578786	0.0	11213.0	4342.193603515625	-0.26304347826086955	780.0	1.185858585858586	-170.0	-492.0	-0.5369261477045909	-335.0	0.71397743974978	1.1740096915563079	-67.0	5.757118780735582	-86.0	
9.810523389495375	1954.0	-0.49214995793316957	2091.0	1.3823403608216458	1258.0	9.927651747394236	-16192.0	-0.19619865113427343	320.0	1984.0	1.2164316370324952	0.0	11853.0	4361.724853515625	-0.2565217391304348	783.0	1.1919191919191918	-167.0	-502.0	-0.5169660678642716	-321.0	0.1035489189705561	1.7347577543049832	-101.0	5.550295309289383	-46.0	
9.701289364133679	1957.0	-0.47702844140668405	2090.0	1.3452546574200408	1267.0	9.809932556713672	-16000.0	-0.19619865113427343	320.0	1984.0	1.2164316370324952	0.0	12493.0	4381.256103515625	-0.25434782608695655	784.0	1.1797979797979798	-173.0	-498.0	-0.5249500998003993	-245.0	2.4391698194223608	1.6334267848265305	-102.0	4.371045564163191	-199.0	
9.787478637995132	1959.0	-0.41732386818638856	2085.0	1.3226172103486893	1260.0	9.849172286940528	-16064.0	-0.3139178418148375	512.0	1984.0	1.2164316370324952	0.0	13133.0	4400.787353515625	-0.2565217391304348	783.0	1.1818181818181819	-172.0	-492.0	-0.5369261477045909	-247.0	1.392351997191684	1.2852784702682367	-74.0	4.4119319933360694	-131.0	
9.848433805430515	1958.0	-0.40660314861669944	2084.0	1.3353821619898245	1255.0	9.888412017167381	-16128.0	-0.3139178418148375	512.0	1984.0	1.2164316370324952	0.0	13773.0	4420.318603515625	-0.25	786.0	1.195959595959596	-165.0	-515.0	-0.4910179640718563	-214.0	0.7262495141736535	1.1718052037361568	-62.0	3.916691877481838	-88.0	
9.775157866262282	1955.0	-0.3814606508088887	2082.0	1.3710454058894732	1261.0	9.809932556713672	-16000.0	-0.19619865113427343	320.0	2048.0	1.25567136725935	0.0	14413.0	4439.849853515625	-0.25217391304347825	785.0	1.1919191919191918	-167.0	-516.0	-0.4890219560878244	-220.0	0.6160208167360153	0.8010143372605997	-37.0	4.009048917307926	-81.0	
9.763332732693302	1957.0	-0.36854731611567104	2081.0	1.346959902358547	1262.0	9.966891477621092	-16256.0	-0.27467811158798283	448.0	2048.0	1.25567136725935	0.0	15053.0	4459.381103515625	-0.25869565217391305	782.0	1.185858585858586	-170.0	-499.0	-0.5229540918163673	-232.0	1.2291536704067574	0.5411448579432159	-23.0	4.1854270944746395	-121.0	
9.726637665592706	1957.0	-0.3799989073932031	2082.0	1.3464784357747657	1265.0	9.809932556713672	-16000.0	-0.23543838136112813	384.0	1856.0	1.137952176578786	0.0	15693.0	4478.912353515625	-0.2565217391304348	783.0	1.185858585858586	-170.0	-493.0	-0.5349301397205589	-200.0	2.3553773453841336	0.0774297695737553	4.0	3.687472842515741	-195.0	
9.62923093257955	1959.0	-0.38974253690081184	2083.0	1.3213105466073893	1273.0	9.770692826486817	-15936.0	-0.19619865113427343	320.0	1856.0	1.137952176578786	0.0	16333.0	4498.443603515625	-0.25	786.0	1.1797979797979798	-173.0	-515.0	-0.4910179640718563	-204.0	0.7473750585053626	0.3668233136419834	-8.0	3.764389367285669	-90.0	
9.825130440950547	1955.0	-0.2605430608233937	2072.0	1.3727543075362107	1257.0	9.888412017167381	-16128.0	-0.15695892090741875	256.0	2048.0	1.25567136725935	0.0	16973.0	4517.974853515625	-0.25217391304347825	785.0	1.1818181818181819	-172.0	-502.0	-0.5169660678642716	-203.0	0.8924527183883892	1.076974453443181	-56.0	3.7477294652115534	-99.0	
9.70358643775379	1959.0	-0.2693173836237919	2073.0	1.323258353191902	1267.0	9.809932556713672	-16000.0	-0.11771919068056406	192.0	1984.0	1.2164316370324952	0.0	17613.0	4537.506103515625	-0.24347826086956523	789.0	1.197979797979798	-164.0	-508.0	-0.5049900199600799	-185.0	2.274349967403079	1.41153508020149	-84.0	3.460146234166274	-189.0	
9.740290139972618	1963.0	-0.30567303770976684	2076.0	1.2750690625888932	1264.0	9.770692826486817	-15936.0	-0.19619865113427343	320.0	1856.0	1.137952176578786	0.0	18253.0	4557.037353515625	-0.24782608695652175	787.0	1.1777777777777778	-174.0	-500.0	-0.5209580838323354	-209.0	1.342594832868957	1.4917694846050433	-86.0	3.8344827969184587	-128.0	
9.763817576959385	1958.0	-0.3317381420955698	2078.0	1.3352846497703246	1262.0	9.809932556713672	-16000.0	-0.27467811158798283	448.0	1856.0	1.137952176578786	0.0	18893.0	4576.568603515625	-0.24565217391304348	788.0	1.183838383838384	-171.0	-492.0	-0.5369261477045909	-245.0	1.1347769867087663	1.6492500072427672	-97.0	4.384089492490327	-114.0	
9.728706349146904	1965.0	-0.26837921033606016	2073.0	1.2512297774122043	1265.0	9.849172286940528	-16064.0	-0.15695892090741875	256.0	1856.0	1.137952176578786	0.0	19533.0	4596.099853515625	-0.24565217391304348	788.0	1.195959595959596	-165.0	-514.0	-0.4930139720558883	-288.0	1.6468712441222053	1.5574635436130495	-95.0	5.032960945353455	-147.0	
9.728943374331049	1963.0	-0.22009509497381774	2069.0	1.275811374359837	1265.0	9.770692826486817	-15936.0	-0.07847946045370938	128.0	1792.0	1.0987124463519313	0.0	20173.0	4615.631103515625	-0.24130434782608695	790.0	1.183838383838384	-171.0	-512.0	-0.4970059880239522	-307.0	1.6058793112477658	1.7736452030017826	-110.0	5.322344248712618	-144.0	
9.741009850643291	1961.0	-0.2086279369865463	2068.0	1.3001430962450007	1264.0	9.770692826486817	-15936.0	-0.03923973022685469	64.0	1920.0	1.1771919068056407	0.0	20813.0	4635.162353515625	-0.24130434782608695	790.0	1.1898989898989898	-168.0	-497.0	-0.5269461077844312	-286.0	1.846859112969346	1.6347161404680668	-101.0	5.000542815714414	-160.0	
9.655796741652678	1964.0	-0.23056959618926937	2070.0	1.2629269702498145	1271.0	9.809932556713672	-16000.0	-0.07847946045370938	128.0	1856.0	1.137952176578786	0.0	21453.0	4654.693603515625	-0.24782608695652175	787.0	1.1777777777777778	-174.0	-503.0	-0.5149700598802396	-250.0	3.0261502752220633	1.9343587062147107	-125.0	4.441221386981621	-237.0	
9.630698418055148	1968.0	-0.3510258828857683	2080.0	1.2132786530625368	1273.0	9.652973635806253	-15744.0	-0.3139178418148375	512.0	1792.0	1.0987124463519313	0.0	22093.0	4674.224853515625	-0.25	786.0	1.1717171717171717	-177.0	-485.0	-0.5508982035928145	-265.0	2.1969954856813363	1.6680998255709296	-104.0	4.677649817006304	-183.0	
9.679225095063398	1969.0	-0.38834306032408406	2083.0	1.2013425552871517	1269.0	9.731453096259962	-15872.0	-0.23543838136112813	384.0	1792.0	1.0987124463519313	0.0	22733.0	4693.756103515625	-0.24130434782608695	790.0	1.187878787878788	-169.0	-494.0	-0.532934131736527	-326.0	0.7036192738157055	1.8098910624977114	-109.0	5.620340233117357	-85.0	
9.679817658023762	1964.0	-0.2676327719184779	2073.0	1.262796547656233	1269.0	9.692213366033108	-15808.0	-0.11771919068056406	192.0	1856.0	1.137952176578786	0.0	23373.0	4713.287353515625	-0.23695652173913043	792.0	1.185858585858586	-170.0	-504.0	-0.5129740518962077	-392.0	0.7006076294930835	2.03981364915408	-127.0	6.6241726309294044	-84.0	
9.556937634620828	1964.0	-0.36269255909805886	2081.0	1.260617149550408	1279.0	9.613733905579398	-15680.0	-0.19619865113427343	320.0	1664.0	1.020232985898222	0.0	24013.0	4732.818603515625	-0.23695652173913043	792.0	1.1636363636363636	-181.0	-495.0	-0.530938123752495	-366.0	0.6847731926434661	2.38656829891188	-149.0	6.228893712940486	-83.0	
9.752604435366795	1964.0	-0.30568082106463657	2076.0	1.263143934938202	1263.0	9.770692826486817	-15936.0	-0.23543838136112813	384.0	1792.0	1.0987124463519313	0.0	24653.0	4752.349853515625	-0.2326086956521739	794.0	1.197979797979798	-164.0	-498.0	-0.5249500998003993	-333.0	-0.6233854181989396	2.5276771913501404	-151.0	5.740074158364499	2.0	
9.728346493811568	1966.0	-0.3169017606976704	2077.0	1.2386927605841507	1265.0	9.770692826486817	-15936.0	-0.15695892090741875	256.0	1728.0	1.0594727161250765	0.0	25293.0	4771.881103515625	-0.23478260869565218	793.0	1.195959595959596	-165.0	-511.0	-0.4990019960079841	-312.0	-0.012520284736300881	2.542914154704758	-154.0	5.4145738720488845	-38.0	
9.72871066670602	1967.0	-0.29228283301781366	2075.0	1.2268943988188092	1265.0	9.809932556713672	-16000.0	-0.15695892090741875	256.0	1856.0	1.137952176578786	0.0	25933.0	4791.412353515625	-0.23695652173913043	792.0	1.1777777777777778	-174.0	-496.0	-0.5289421157684632	-331.0	-0.22326770334683185	2.6659632696638416	-162.0	5.705654730265408	-24.0	
9.765289379994101	1969.0	-0.3169251107622796	2077.0	1.202917377632077	1262.0	9.888412017167381	-16128.0	-0.11771919068056406	192.0	1792.0	1.0987124463519313	0.0	26573.0	4810.943603515625	-0.24565217391304348	788.0	1.195959595959596	-165.0	-493.0	-0.5349301397205589	-355.0	-0.6478536617616707	2.815846225646374	-171.0	6.074919601256401	4.0	
9.788577633017164	1965.0	-0.37932251916944837	2082.0	1.250719057162573	1260.0	9.849172286940528	-16064.0	-0.23543838136112813	384.0	1792.0	1.0987124463519313	0.0	27213.0	4830.474853515625	-0.2391304347826087	791.0	1.187878787878788	-169.0	-509.0	-0.502994011976048	-364.0	-0.3080783075594454	2.891670102059678	-178.0	6.208403976991945	-18.0	
9.764194702531187	1965.0	-0.37883008246097327	2082.0	1.2504801522247981	1262.0	9.888412017167381	-16128.0	-0.15695892090741875	256.0	1792.0	1.0987124463519313	0.0	27853.0	4850.006103515625	-0.23695652173913043	792.0	1.1818181818181819	-172.0	-500.0	-0.5209580838323354	-352.0	-0.11089760559042855	2.8402691941863933	-175.0	6.023922664268832	-31.0	
9.886835541970415	1966.0	-0.3201025993027581	2077.0	1.2402456426796884	1252.0	9.966891477621092	-16256.0	-0.19619865113427343	320.0	1792.0	1.0987124463519313	0.0	28493.0	4869.537353515625	-0.24347826086956523	789.0	1.183838383838384	-171.0	-487.0	-0.5469061876247505	-384.0	-0.65940921229088	2.7540303951674985	-168.0	6.516099795544962	5.0	
10.058007375977008	1970.0	-0.3225959162646122	2077.0	1.1937396567657983	1238.0	10.084610668301655	-16448.0	-0.19619865113427343	320.0	1664.0	1.020232985898222	0.0	29133.0	4889.068603515625	-0.23043478260869565	795.0	1.1676767676767676	-179.0	-485.0	-0.5508982035928145	-382.0	1.0810185098503169	3.398731046898917	-219.0	6.46827726737298	-108.0	
9.71628865261756	1972.0	-0.3761761640484488	2082.0	1.1656902815121968	1266.0	9.770692826486817	-15936.0	-0.27467811158798283	448.0	1664.0	1.020232985898222	0.0	29773.0	4908.599853515625	-0.22608695652173913	797.0	1.1717171717171717	-177.0	-496.0	-0.5289421157684632	-344.0	3.9116185838698136	3.1048991224845857	-211.0	5.862024498571949	-293.0	
9.82600536346578	1969.0	-0.3425366952139562	2079.0	1.2032684216222769	1257.0	9.888412017167381	-16128.0	-0.15695892090741875	256.0	1664.0	1.020232985898222	0.0	30413.0	4928.131103515625	-0.23043478260869565	795.0	1.1898989898989898	-168.0	-492.0	-0.5369261477045909	-351.0	1.1676189549335356	3.3216079490217223	-213.0	5.995928373188307	-114.0	
9.911832623212339	1971.0	-0.31940286101439425	2077.0	1.1802616470195695	1250.0	10.0453709380748	-16384.0	-0.23543838136112813	384.0	1664.0	1.020232985898222	0.0	31053.0	4947.662353515625	-0.23043478260869565	795.0	1.1919191919191918	-167.0	-501.0	-0.5189620758483035	-333.0	1.0714729349046994	3.1893252448766756	-203.0	5.723125574833463	-108.0	
9.862575441635627	1967.0	-0.31937172759491533	2077.0	1.2279621576223345	1254.0	10.006131207847945	-16320.0	-0.19619865113427343	320.0	1728.0	1.0594727161250765	0.0	31693.0	4967.193603515625	-0.23478260869565218	793.0	1.1797979797979798	-173.0	-501.0	-0.5189620758483035	-301.0	2.1092700333327223	3.091584736190072	-200.0	5.226055588640057	-176.0	
9.850745990507534	1967.0	-0.2825547702199443	2074.0	1.2282120326848032	1255.0	10.006131207847945	-16320.0	-0.23543838136112813	384.0	1728.0	1.0594727161250765	0.0	32333.0	4986.724853515625	-0.23043478260869565	795.0	1.1919191919191918	-167.0	-489.0	-0.5429141716566867	-271.0	3.290934602355839	3.5373369601926874	-234.0	4.75796517869127	-253.0	
9.815386943613113	1971.0	-0.20772089711829356	2068.0	1.1804140098625382	1258.0	9.966891477621092	-16256.0	-0.07847946045370938	128.0	1600.0	0.9809932556713672	0.0	32973.0	5006.256103515625	-0.23043478260869565	795.0	1.1939393939393939	-166.0	-503.0	-0.5149700598802396	-222.0	4.028200563119665	4.34042084140201	-289.0	4.005345370794659	-301.0	
9.827951216868787	1976.0	-0.23115543315618114	2070.0	1.1200643433792943	1257.0	9.888412017167381	-16128.0	-0.19619865113427343	320.0	1536.0	0.9417535254445125	0.0	33613.0	5025.787353515625	-0.22391304347826088	798.0	1.1676767676767676	-179.0	-488.0	-0.5449101796407186	-232.0	3.7489497516378005	3.88900543149913	-258.0	4.160229133662329	-283.0	
9.863920096960037	1975.0	-0.2808935085792395	2074.0	1.1319748441970605	1254.0	9.927651747394236	-16192.0	-0.27467811158798283	448.0	1728.0	1.0594727161250765	0.0	34253.0	5045.318603515625	-0.23043478260869565	795.0	1.183838383838384	-171.0	-487.0	-0.5469061876247505	-284.0	2.5975734279068736	3.067941025250905	-200.0	4.962617421614468	-208.0	
9.803320467300873	1973.0	-0.21918805510556497	2069.0	1.1560822879773744	1259.0	9.966891477621092	-16256.0	-0.11771919068056406	192.0	1600.0	0.9809932556713672	0.0	34893.0	5064.849853515625	-0.21956521739130436	800.0	1.1818181818181819	-172.0	-496.0	-0.5289421157684632	-344.0	2.6773192259376484	2.456173674138493	-162.0	5.87436749215127	-213.0	
9.742488130016682	1975.0	-0.22967033967588635	2070.0	1.1312727562166605	1264.0	9.809932556713672	-16000.0	-0.11771919068056406	192.0	1472.0	0.9025137952176578	0.0	35533.0	5084.381103515625	-0.23478260869565218	793.0	1.1676767676767676	-179.0	-491.0	-0.5389221556886228	-332.0	2.5223484747652476	2.489252522396355	-163.0	5.693407693959573	-203.0	
9.741395611333324	1972.0	-0.30352712271545673	2076.0	1.1666678415126843	1264.0	9.888412017167381	-16128.0	-0.23543838136112813	384.0	1536.0	0.9417535254445125	0.0	36173.0	5103.912353515625	-0.2282608695652174	796.0	1.1636363636363636	-181.0	-487.0	-0.5469061876247505	-365.0	1.4790046477134846	2.017055575947374	-128.0	6.205742272914501	-135.0	
9.742365299865492	1974.0	-0.2299087746752541	2070.0	1.1433173363362392	1264.0	9.888412017167381	-16128.0	-0.19619865113427343	320.0	1600.0	0.9809932556713672	0.0	36813.0	5123.443603515625	-0.21739130434782608	801.0	1.1757575757575758	-175.0	-498.0	-0.5249500998003993	-344.0	1.5858465266903263	2.277267610287966	-145.0	5.885282219143743	-142.0	
9.76759940629156	1977.0	-0.18092492102464774	2066.0	1.1079149376237531	1262.0	9.849172286940528	-16064.0	0.0	0.0	1536.0	0.9417535254445125	0.0	37453.0	5142.974853515625	-0.22391304347826088	798.0	1.1777777777777778	-174.0	-479.0	-0.5628742514970061	-363.0	1.7906957860162385	2.521316233943933	-163.0	6.172207110580903	-155.0	
9.802480085258571	1975.0	-0.32842340216903	2078.0	1.1308851451441482	1259.0	9.849172286940528	-16064.0	-0.19619865113427343	320.0	1472.0	0.9025137952176578	0.0	38093.0	5162.506103515625	-0.2217391304347826	799.0	1.1898989898989898	-168.0	-487.0	-0.5469061876247505	-393.0	0.650847612594666	1.652863483859924	-101.0	6.639879356573674	-81.0	
9.802365890225614	1978.0	-0.37646908253190464	2082.0	1.0942589680769368	1259.0	9.770692826486817	-15936.0	-0.27467811158798283	448.0	1472.0	0.9025137952176578	0.0	38733.0	5182.037353515625	-0.2217391304347826	799.0	1.1717171717171717	-177.0	-488.0	-0.5449101796407186	-302.0	0.4550257151769394	1.871778942131495	-111.0	5.2578071572969	-69.0	
9.863437411473512	1975.0	-0.32965449394021756	2078.0	1.1314824074885856	1254.0	9.888412017167381	-16128.0	-0.23543838136112813	384.0	1728.0	1.0594727161250765	0.0	39373.0	5201.568603515625	-0.22391304347826088	798.0	1.1696969696969697	-178.0	-485.0	-0.5508982035928145	-310.0	0.7190188888161678	2.0584331495678767	-125.0	5.37684022936279	-86.0	
9.79125830854775	1977.0	-0.2545588357745898	2072.0	1.1074151874988154	1260.0	9.927651747394236	-16192.0	-0.19619865113427343	320.0	1600.0	0.9809932556713672	0.0	40013.0	5221.099853515625	-0.22608695652173913	797.0	1.1818181818181819	-172.0	-481.0	-0.5588822355289422	-270.0	1.820292526576193	2.290976676354628	-144.0	4.757462473973782	-158.0	
9.864536406495542	1981.0	-0.2916531449232773	2075.0	1.0595842543024694	1254.0	9.927651747394236	-16192.0	-0.15695892090741875	256.0	1536.0	0.9417535254445125	0.0	40653.0	5240.631103515625	-0.20652173913043478	806.0	1.1757575757575758	-175.0	-496.0	-0.5289421157684632	-218.0	2.334313497172228	2.3018283015378627	-145.0	3.9614477395529932	-192.0	
9.778709146748984	1979.0	-0.31478697912283926	2077.0	1.082591028905177	1261.0	9.809932556713672	-16000.0	-0.19619865113427343	320.0	1472.0	0.9025137952176578	0.0	41293.0	5260.162353515625	-0.2108695652173913	804.0	1.1676767676767676	-179.0	-493.0	-0.5349301397205589	-204.0	1.799371459688982	2.7373824750641313	-171.0	3.753869403273833	-157.0	
9.852465612624187	1981.0	-0.27921668022879526	2074.0	1.0595879110107005	1255.0	9.927651747394236	-16192.0	-0.11771919068056406	192.0	1536.0	0.9417535254445125	0.0	41933.0	5279.693603515625	-0.22391304347826088	798.0	1.1656565656565656	-180.0	-460.0	-0.6007984031936129	-188.0	1.637824910933956	2.1736523089847517	-132.0	3.5121388611568203	-147.0	
9.998998061944633	1978.0	-0.22193537377652628	2069.0	1.0977706268816807	1243.0	10.0453709380748	-16384.0	-0.03923973022685469	64.0	1472.0	0.9025137952176578	0.0	42573.0	5299.224853515625	-0.21304347826086956	803.0	1.185858585858586	-170.0	-489.0	-0.5429141716566867	-214.0	4.11192146399502	2.0905852246342866	-139.0	3.882835157983624	-308.0	
9.670800347695677	1981.0	-0.15362094151278746	2064.0	1.0590272157485756	1270.0	9.809932556713672	-16000.0	-0.03923973022685469	64.0	1408.0	0.8632740649908032	0.0	43213.0	5318.756103515625	-0.21304347826086956	803.0	1.1777777777777778	-174.0	-471.0	-0.5788423153692616	-200.0	3.741641515317459	2.109881315580279	-138.0	3.6736102008164075	-284.0	
9.75649830095237	1979.0	-0.09487010828996313	2059.0	1.0845680891555394	1263.0	9.809932556713672	-16000.0	0.03923973022685469	-64.0	1472.0	0.9025137952176578	0.0	43853.0	5338.287353515625	-0.20869565217391306	805.0	1.1555555555555554	-185.0	-473.0	-0.5748502994011977	-222.0	1.8102936199372408	2.021024046206728	-124.0	4.027524440226483	-158.0	
9.683358144612674	1983.0	-0.14120004352804488	2063.0	1.0351806171554245	1269.0	9.849172286940528	-16064.0	0.07847946045370938	-128.0	1472.0	0.9025137952176578	0.0	44493.0	5357.818603515625	-0.20869565217391306	805.0	1.1919191919191918	-167.0	-494.0	-0.532934131736527	-205.0	2.6104301299719723	2.485421877867786	-158.0	3.7609679420462885	-210.0	
9.720548849877144	1989.0	-0.15269833493479523	2064.0	0.9631483846674955	1266.0	9.809932556713672	-16000.0	-0.07847946045370938	128.0	1280.0	0.7847946045370937	0.0	45133.0	5377.349853515625	-0.20869565217391306	805.0	1.1696969696969697	-178.0	-480.0	-0.5608782435129741	-236.0	1.8951630676939675	2.621292676049863	-165.0	4.239603502402909	-163.0	
9.732003334212996	1983.0	-0.15437516328523945	2064.0	1.0355353178538558	1265.0	9.888412017167381	-16128.0	-0.03923973022685469	64.0	1408.0	0.8632740649908032	0.0	45773.0	5396.881103515625	-0.20869565217391306	805.0	1.185858585858586	-170.0	-481.0	-0.5588822355289422	-274.0	1.3174520611584737	2.5934059801379226	-162.0	4.823327380529101	-125.0	
9.792590011194811	1979.0	-0.1443697487136537	2063.0	1.084434009853727	1260.0	9.849172286940528	-16064.0	-0.03923973022685469	64.0	1408.0	0.8632740649908032	0.0	46413.0	5416.412353515625	-0.19782608695652174	810.0	1.185858585858586	-170.0	-486.0	-0.5489021956087825	-308.0	1.7983083524047114	2.584231482865174	-165.0	5.335629083776333	-156.0	
9.829519944699992	1976.0	-0.07268223073300253	2057.0	1.1216647626818381	1257.0	9.966891477621092	-16256.0	0.0	0.0	1536.0	0.9417535254445125	0.0	47053.0	5435.943603515625	-0.2	809.0	1.1777777777777778	-174.0	-491.0	-0.5389221556886228	-244.0	3.9539762169756383	4.257240306734754	-284.0	4.340688374712373	-296.0	
9.942059590246012	1995.0	-0.021606945572174213	2053.0	0.8943852493383044	1248.0	10.0453709380748	-16384.0	0.07847946045370938	-128.0	1152.0	0.7063151440833844	0.0	47693.0	5455.474853515625	-0.2	809.0	1.183838383838384	-171.0	-484.0	-0.5528942115768464	-222.0	6.48421559245005	4.379377247834379	-303.0	3.9807852205013554	-461.0	
9.880869556406042	1999.0	-0.09256359184498254	2059.0	0.8448710114528394	1253.0	9.966891477621092	-16256.0	0.07847946045370938	-128.0	960.0	0.5885959534028203	0.0	48333.0	5475.006103515625	-0.2	809.0	1.1717171717171717	-177.0	-486.0	-0.5489021956087825	-259.0	4.960259352342332	4.897717705138106	-332.0	4.558762425487983	-361.0	
9.904511188425765	1991.0	-0.07058301586791083	2057.0	0.9417127757014819	1251.0	9.927651747394236	-16192.0	0.03923973022685469	-64.0	1216.0	0.745554874310239	0.0	48973.0	5494.537353515625	-0.19782608695652174	810.0	1.1717171717171717	-177.0	-475.0	-0.5708582834331338	-284.0	6.433710589695682	4.525083809824887	-315.0	4.924256049996579	-457.0	
9.771756202415977	2002.0	-0.06525182897825252	2057.0	0.8079084172283529	1262.0	9.888412017167381	-16128.0	0.07847946045370938	-128.0	1152.0	0.7063151440833844	0.0	49613.0	5514.068603515625	-0.20434782608695654	807.0	1.1818181818181819	-172.0	-480.0	-0.5608782435129741	-249.0	4.661255667514277	4.309919358119089	-291.0	4.4096612075834125	-342.0	
9.832103695434089	1999.0	-0.09157871842803246	2059.0	0.8443932015772894	1257.0	9.966891477621092	-16256.0	0.0	0.0	1088.0	0.6670754138565297	0.0	50253.0	5533.599853515625	-0.1847826086956522	816.0	1.1636363636363636	-181.0	-474.0	-0.5728542914171657	-300.0	3.0909908527384724	3.0538503396746957	-202.0	5.201029254970715	-240.0	
9.844773528604486	1997.0	-0.019160328739538518	2053.0	0.8693404693480469	1256.0	10.006131207847945	-16320.0	0.11771919068056406	-192.0	1152.0	0.7063151440833844	0.0	50893.0	5553.131103515625	-0.1891304347826087	814.0	1.1696969696969697	-178.0	-473.0	-0.5748502994011977	-311.0	3.918695617905388	2.7796550203361896	-188.0	5.360052587547182	-294.0	
9.79479016001843	1992.0	-0.08031886202064994	2058.0	0.9284700141847968	1260.0	9.888412017167381	-16128.0	0.07847946045370938	-128.0	1152.0	0.7063151440833844	0.0	51533.0	5572.662353515625	-0.1956521739130435	811.0	1.185858585858586	-170.0	-474.0	-0.5728542914171657	-344.0	2.4007110512274985	0.8862202057969707	-56.0	5.877133573898372	-196.0	
9.783085697821083	1994.0	-0.05521528098718781	2056.0	0.9045076198309893	1261.0	9.888412017167381	-16128.0	0.03923973022685469	-64.0	1216.0	0.745554874310239	0.0	52173.0	5592.193603515625	-0.1891304347826087	814.0	1.1555555555555554	-185.0	-465.0	-0.5908183632734532	-330.0	2.3998670169147833	1.014736090836303	-64.0	5.664214257587506	-196.0	
9.770396435634662	1987.0	-0.020067368607791264	2053.0	0.9890695557305095	1262.0	9.849172286940528	-16064.0	0.07847946045370938	-128.0	1216.0	0.745554874310239	0.0	52813.0	5611.724853515625	-0.1826086956521739	817.0	1.1797979797979798	-173.0	-476.0	-0.5688622754491018	-344.0	2.505017041736354	2.1083458162038813	-138.0	5.876090513993284	-202.0	
9.80818618019817	1991.0	0.05328919436843435	2047.0	0.9419882477215694	1259.0	9.888412017167381	-16128.0	0.15695892090741875	-256.0	1216.0	0.745554874310239	0.0	53453.0	5631.256103515625	-0.1891304347826087	814.0	1.187878787878788	-169.0	-482.0	-0.5568862275449102	-335.0	2.2977317465660887	1.4685779930012932	-94.0	5.741281237667419	-189.0	
9.770163728009631	1991.0	-0.09225510665178717	2059.0	0.9401525801894819	1262.0	9.809932556713672	-16000.0	0.11771919068056406	-192.0	1280.0	0.7847946045370937	0.0	54093.0	5650.787353515625	-0.1847826086956522	816.0	1.1777777777777778	-174.0	-484.0	-0.5528942115768464	-342.0	2.700660542613442	1.7511181723739617	-115.0	5.843715828033941	-215.0	
9.696663716334598	1996.0	-0.18710759225147922	2067.0	0.878228091361313	1268.0	9.849172286940528	-16064.0	-0.03923973022685469	64.0	1152.0	0.7063151440833844	0.0	54733.0	5670.318603515625	-0.18043478260869567	818.0	1.1717171717171717	-177.0	-471.0	-0.5788423153692616	-306.0	3.352594962338813	3.0319925035324435	-202.0	5.289667966726422	-257.0	
9.684237384687025	1999.0	-0.2470973006003609	2072.0	0.8413593526480952	1269.0	9.770692826486817	-15936.0	-0.15695892090741875	256.0	1024.0	0.627835683629675	0.0	55373.0	5689.849853515625	-0.19130434782608696	813.0	1.1636363636363636	-181.0	-451.0	-0.6187624750499002	-306.0	3.0850681458096902	3.905185083606048	-259.0	5.292343234891714	-239.0	
9.708615997613883	1997.0	-0.2236861146270825	2070.0	0.8659336361792653	1267.0	9.809932556713672	-16000.0	-0.19619865113427343	320.0	1088.0	0.6670754138565297	0.0	56013.0	5709.381103515625	-0.1782608695652174	819.0	1.1717171717171717	-177.0	-473.0	-0.5748502994011977	-309.0	2.640733228365783	3.9342856988031096	-259.0	5.342413960492007	-210.0	
9.783225798208738	2003.0	-0.1505913367148338	2064.0	0.7951215253378303	1261.0	9.888412017167381	-16128.0	-0.07847946045370938	128.0	960.0	0.5885959534028203	0.0	56653.0	5728.912353515625	-0.1782608695652174	819.0	1.1676767676767676	-179.0	-461.0	-0.5988023952095809	-278.0	1.9538929222724521	3.251323912290263	-209.0	4.877799473819102	-166.0	
9.685926783889862	1999.0	-0.0764338518369378	2058.0	0.8430828811277579	1269.0	9.731453096259962	-15872.0	0.03923973022685469	-64.0	1088.0	0.6670754138565297	0.0	57293.0	5748.443603515625	-0.1782608695652174	819.0	1.1818181818181819	-172.0	-485.0	-0.5508982035928145	-234.0	1.4682819888511707	2.937077900389738	-184.0	4.213454062240766	-135.0	
9.72166511513564	2003.0	-0.21031147664486877	2069.0	0.7939087171077991	1266.0	9.770692826486817	-15936.0	-0.07847946045370938	128.0	960.0	0.5885959534028203	0.0	57933.0	5767.974853515625	-0.1891304347826087	814.0	1.1717171717171717	-177.0	-457.0	-0.6067864271457086	-133.0	-0.0589154358169585	2.1602879719348578	-121.0	2.6926043634836447	-37.0	
9.707180893831657	2003.0	-0.4416799387552769	2088.0	0.7914501902736552	1267.0	9.809932556713672	-16000.0	-0.3139178418148375	512.0	960.0	0.5885959534028203	0.0	58573.0	5787.506103515625	-0.1782608695652174	819.0	1.1595959595959595	-183.0	-468.0	-0.5848303393213574	-93.0	-1.7594596421264737	1.5383627583000334	-70.0	2.1012447865353336	73.0	
9.622568982919644	2005.0	-0.3907185549159007	2084.0	0.76701729946076	1274.0	9.692213366033108	-15808.0	-0.3139178418148375	512.0	960.0	0.5885959534028203	0.0	59213.0	5807.037353515625	-0.18695652173913044	815.0	1.1696969696969697	-178.0	-458.0	-0.6047904191616768	-116.0	-0.807607903432246	1.2182414218796378	-54.0	2.44153615507995	11.0	
9.683640504167542	2002.0	-0.3439039663242136	2080.0	0.804240738872409	1269.0	9.692213366033108	-15808.0	-0.19619865113427343	320.0	1024.0	0.627835683629675	0.0	59853.0	5826.568603515625	-0.17391304347826086	821.0	1.1656565656565656	-180.0	-476.0	-0.5688622754491018	-145.0	-1.578166053963921	0.45962698495463705	-1.0	2.890306375368537	61.0	
9.77067879518953	2006.0	-0.22277129140396	2070.0	0.758129677447494	1262.0	9.888412017167381	-16128.0	-0.03923973022685469	64.0	960.0	0.5885959534028203	0.0	60493.0	5846.099853515625	-0.1782608695652174	819.0	1.1717171717171717	-177.0	-469.0	-0.5828343313373254	-74.0	-3.0037216161020606	0.18224946348173526	27.0	1.824714022244671	153.0	
9.708859499136704	1998.0	-0.21125743328747018	2069.0	0.8540121652368053	1267.0	9.809932556713672	-16000.0	-0.07847946045370938	128.0	1088.0	0.6670754138565297	0.0	61133.0	5865.631103515625	-0.1891304347826087	814.0	1.1555555555555554	-185.0	-471.0	-0.5788423153692616	-81.0	-2.951596021067487	0.6841080943705309	-7.0	1.9306566446213214	150.0	
9.806029206965716	1998.0	-0.24979791914210384	2072.0	0.854598457456549	1259.0	9.849172286940528	-16064.0	-0.03923973022685469	64.0	1088.0	0.6670754138565297	0.0	61773.0	5885.162353515625	-0.1826086956521739	817.0	1.1676767676767676	-179.0	-479.0	-0.5628742514970061	11.0	-2.51575127113189	1.1595179939678408	-37.0	0.5270586533957297	121.0	
9.952930146739732	1998.0	-0.19180130769173148	2067.0	0.8566474329687931	1247.0	10.006131207847945	-16320.0	-0.03923973022685469	64.0	1216.0	0.745554874310239	0.0	62413.0	5904.693603515625	-0.1782608695652174	819.0	1.1676767676767676	-179.0	-465.0	-0.5908183632734532	30.0	-1.6811878158081273	2.0275340414742056	-98.0	0.22973963481207368	67.0	
