Device	Device	Device	Device	Device	Device	Device	Device	Device	Device	Device	Device	Device	Device	Device	Device	Device	Device	Device	Device	Device	Device	Device	Device	Device	Device	Device	
Low Noise Accelerometer X	Low Noise Accelerometer X	Low Noise Accelerometer Z	Low Noise Accelerometer Z	Low Noise Accelerometer Y	Low Noise Accelerometer Y	Wide Range Accelerometer X	Wide Range Accelerometer X	Wide Range Accelerometer Z	Wide Range Accelerometer Z	Wide Range Accelerometer Y	Wide Range Accelerometer Y	Event_Marker	Timestamp	Timestamp	Magnetometer Z	Magnetometer Z	Magnetometer X	Magnetometer X	Magnetometer Y	Magnetometer Y	Gyroscope Y	Gyroscope Y	Gyroscope Z	Gyroscope Z	Gyroscope X	Gyroscope X	
CAL	UNCAL	CAL	UNCAL	UNCAL	CAL	CAL	UNCAL	CAL	UNCAL	UNCAL	CAL	CAL	UNCAL	CAL	UNCAL	CAL	CAL	UNCAL	CAL	UNCAL	UNCAL	CAL	CAL	UNCAL	CAL	UNCAL	
m/(s^2)	no units	m/(s^2)	no units	no units	m/(s^2)	m/(s^2)	no units	m/(s^2)	no units	no units	m/(s^2)	no units	no units	ms	no units	local_flux	local_flux	no units	local_flux	no units	no units	deg/s	deg/s	no units	deg/s	no units	
9.888591863339556	1997.0	-0.5199453021065135	2094.0	1252.0	0.8647708029617278	9.966891477621092	-16256.0	-0.47087676272225626	768.0	1088.0	0.6670754138565297	0.0	6095.0	186.004638671875	724.0	-0.3847826086956522	1.1515151515151516	-187.0	-0.49500998003992025	-513.0	-424.0	1.4924060300817212	2.4599894235529014	-160.0	7.102946662132643	-135.0	
10.155375471241747	2006.0	-0.7792113640505633	2115.0	1230.0	0.7564122434815502	10.0453709380748	-16384.0	-0.5885959534028203	960.0	960.0	0.5885959534028203	0.0	6735.0	205.535888671875	729.0	-0.3739130434782609	1.1393939393939394	-193.0	-0.5049900199600799	-508.0	-278.0	0.20718118549852704	2.008577208090268	-118.0	4.89526659118684	-53.0	
9.94787274302901	2003.0	-0.7635507106863845	2114.0	1247.0	0.7906384010463177	9.927651747394236	-16192.0	-0.6670754138565297	1088.0	1152.0	0.7063151440833844	0.0	7375.0	225.067138671875	722.0	-0.3891304347826087	1.1373737373737374	-194.0	-0.532934131736527	-494.0	-240.0	2.414414640181004	0.7686263530054819	-44.0	4.29524748857918	-198.0	
9.862398862279111	1997.0	-0.702306560501706	2109.0	1254.0	0.8626852603671714	10.006131207847945	-16320.0	-0.5493562231759657	896.0	960.0	0.5885959534028203	0.0	8015.0	244.598388671875	730.0	-0.3717391304347826	1.1515151515151516	-187.0	-0.5229540918163673	-499.0	-215.0	1.7791046202710852	0.5431954846521045	-25.0	3.921372451896149	-157.0	
9.911765921329664	1996.0	-0.6303883908765568	2103.0	1250.0	0.8759463054250127	9.966891477621092	-16256.0	-0.4316370324954016	704.0	1152.0	0.7063151440833844	0.0	8655.0	264.129638671875	728.0	-0.3760869565217391	1.1333333333333333	-196.0	-0.5069860279441119	-507.0	-163.0	1.2769895691237056	0.23496507949740694	0.0	3.1355190776927935	-125.0	
9.839099815358258	1996.0	-0.5801500953901537	2099.0	1256.0	0.8757220273201627	9.927651747394236	-16192.0	-0.47087676272225626	768.0	1152.0	0.7063151440833844	0.0	9295.0	283.660888671875	727.0	-0.3782608695652174	1.1515151515151516	-187.0	-0.5269461077844312	-497.0	-148.0	1.563657231137938	-0.030734078211753446	17.0	2.9045155189433736	-144.0	
9.778620857070727	1994.0	-0.5062543955762346	2093.0	1261.0	0.8999525802775953	9.849172286940528	-16064.0	-0.39239730226854685	640.0	1216.0	0.745554874310239	0.0	9935.0	303.192138671875	721.0	-0.391304347826087	1.1414141414141414	-192.0	-0.5469061876247505	-487.0	-170.0	1.6097318797328488	-0.36216748288285483	38.0	3.238655532913698	-147.0	
9.815680097065773	1995.0	-0.47018387661884586	2090.0	1258.0	0.8886356850960353	9.927651747394236	-16192.0	-0.3531575720416922	576.0	1280.0	0.7847946045370937	0.0	10575.0	322.723388671875	730.0	-0.3717391304347826	1.1454545454545455	-190.0	-0.5069860279441119	-507.0	-204.0	0.8719254105575716	-0.9911707281921845	82.0	3.763143863765147	-99.0	
9.815434436763395	1993.0	-0.4706607466175814	2090.0	1258.0	0.9127248453351928	9.849172286940528	-16064.0	-0.4316370324954016	704.0	1024.0	0.627835683629675	0.0	11215.0	342.254638671875	728.0	-0.3760869565217391	1.1515151515151516	-187.0	-0.532934131736527	-494.0	-246.0	0.3690860068812838	-1.2665820077091867	101.0	4.406955527763887	-66.0	
9.815311606612205	1992.0	-0.4708991816169492	2090.0	1258.0	0.9247694254547716	9.927651747394236	-16192.0	-0.3139178418148375	512.0	1280.0	0.7847946045370937	0.0	11855.0	361.785888671875	728.0	-0.3760869565217391	1.1494949494949496	-188.0	-0.4990019960079841	-511.0	-215.0	0.7643736457915967	-1.1702871855511094	94.0	3.9315197616409434	-92.0	
9.815800768437404	1995.0	-0.45799363027860135	2089.0	1258.0	0.8887587942731541	9.809932556713672	-16000.0	-0.27467811158798283	448.0	1216.0	0.745554874310239	0.0	12495.0	381.317138671875	731.0	-0.3695652173913044	1.1454545454545455	-190.0	-0.5269461077844312	-497.0	-212.0	0.3950992801701877	-1.2177231133874549	99.0	3.8895851288713024	-68.0	
9.925530431962974	1998.0	-0.49606502948936915	2092.0	1249.0	0.8533307986030491	9.966891477621092	-16256.0	-0.39239730226854685	640.0	1088.0	0.6670754138565297	0.0	13135.0	400.848388671875	731.0	-0.3695652173913044	1.1454545454545455	-190.0	-0.5449101796407186	-488.0	-236.0	-0.04467385837908909	-1.0517906259194396	89.0	4.2590018716636395	-39.0	
9.937605543393447	2000.0	-0.5324051168656047	2095.0	1248.0	0.8289917633014228	9.966891477621092	-16256.0	-0.4316370324954016	704.0	1088.0	0.6670754138565297	0.0	13775.0	420.379638671875	731.0	-0.3695652173913044	1.1454545454545455	-190.0	-0.5189620758483035	-501.0	-271.0	0.08073133798305204	-1.3216916632216589	105.0	4.790067211334999	-47.0	
9.998920566164166	1998.0	-0.4731618469343052	2090.0	1243.0	0.8542937317706116	10.0453709380748	-16384.0	-0.47087676272225626	768.0	1024.0	0.627835683629675	0.0	14415.0	439.910888671875	732.0	-0.3673913043478261	1.1373737373737374	-194.0	-0.5249500998003993	-498.0	-247.0	0.4102992649974232	-1.7648114391812373	134.0	4.421752520658011	-69.0	
9.901990042298857	1997.0	-0.39828905705830586	2084.0	1251.0	0.8661213472018029	10.084610668301655	-16448.0	-0.27467811158798283	448.0	1152.0	0.7063151440833844	0.0	15055.0	459.442138671875	729.0	-0.3739130434782609	1.1575757575757575	-184.0	-0.5289421157684632	-496.0	-171.0	1.5212083782095922	-1.5560149120459223	118.0	3.2547498934042163	-142.0	
9.878208309891479	1996.0	-0.32489357730773155	2078.0	1253.0	0.8786656774463192	9.888412017167381	-16128.0	-0.27467811158798283	448.0	1088.0	0.6670754138565297	0.0	15695.0	478.973388671875	725.0	-0.3826086956521739	1.1555555555555554	-185.0	-0.5469061876247505	-487.0	-113.0	2.7073837112174703	-1.7682050853499947	129.0	2.360758862507597	-220.0	
9.707284294966822	1995.0	-0.3338752016880186	2079.0	1267.0	0.888914813824354	9.888412017167381	-16128.0	-0.19619865113427343	320.0	1216.0	0.745554874310239	0.0	16335.0	498.504638671875	731.0	-0.3695652173913044	1.1393939393939394	-193.0	-0.502994011976048	-509.0	-145.0	2.887350538458538	-1.1405282922167967	85.0	2.8456512094443127	-231.0	
9.720081275847525	1996.0	-0.2851219996819103	2075.0	1266.0	0.8774821228821379	9.849172286940528	-16064.0	-0.23543838136112813	384.0	1152.0	0.7063151440833844	0.0	16975.0	518.035888671875	732.0	-0.3673913043478261	1.1616161616161615	-182.0	-0.5209580838323354	-500.0	-237.0	3.246725174685042	-0.36693763500403237	28.0	4.241297006808282	-253.0	
9.670716375576534	1998.0	-0.36899198064793626	2082.0	1270.0	0.852053388527599	9.731453096259962	-15872.0	-0.3139178418148375	512.0	1024.0	0.627835683629675	0.0	17615.0	537.567138671875	731.0	-0.3695652173913044	1.1515151515151516	-187.0	-0.4990019960079841	-511.0	-275.0	3.4925106334915346	0.6123280812131658	-40.0	4.816785920281054	-268.0	
9.620980826072413	1996.0	-0.4416254552711888	2088.0	1274.0	0.8749260838284939	9.770692826486817	-15936.0	-0.23543838136112813	384.0	1152.0	0.7063151440833844	0.0	18255.0	557.098388671875	732.0	-0.3673913043478261	1.1474747474747475	-189.0	-0.5189620758483035	-501.0	-320.0	3.0439097632072993	1.1109268996175912	-73.0	5.50568257537173	-238.0	
9.560019182298356	1994.0	-0.4164907408182478	2086.0	1279.0	0.8986642000774515	9.692213366033108	-15808.0	-0.3139178418148375	512.0	1152.0	0.7063151440833844	0.0	18895.0	576.629638671875	728.0	-0.3760869565217391	1.1515151515151516	-187.0	-0.5229540918163673	-499.0	-330.0	4.015194130336534	1.397061947430305	-97.0	5.648060986453289	-301.0	
9.573419520037215	1995.0	-0.3067863071109169	2077.0	1278.0	0.887847055020829	9.613733905579398	-15680.0	-0.23543838136112813	384.0	1152.0	0.7063151440833844	0.0	19535.0	596.160888671875	737.0	-0.3565217391304348	1.1474747474747475	-189.0	-0.5149700598802396	-503.0	-279.0	4.044869286026212	2.0707008337333	-140.0	4.872098835656849	-303.0	
9.657803040883316	1999.0	-0.4538390516760425	2089.0	1271.0	0.8390275916993014	9.692213366033108	-15808.0	-0.27467811158798283	448.0	1088.0	0.6670754138565297	0.0	20175.0	615.692138671875	736.0	-0.358695652173913	1.1353535353535353	-195.0	-0.5189620758483035	-501.0	-297.0	1.7229217217323671	1.3517925964746422	-82.0	5.16908256985492	-152.0	
9.766420756709504	1990.0	-0.4582009318584902	2089.0	1262.0	0.9485038849954979	9.809932556713672	-16000.0	-0.3531575720416922	576.0	1216.0	0.745554874310239	0.0	20815.0	635.223388671875	731.0	-0.3695652173913044	1.1353535353535353	-195.0	-0.5768463073852296	-472.0	-444.0	0.7524640696003818	0.2954240326476621	-13.0	7.41452859124316	-88.0	
9.704368753031648	1986.0	-0.5188748117859963	2094.0	1267.0	0.9954693972437816	9.770692826486817	-15936.0	-0.39239730226854685	640.0	1408.0	0.8632740649908032	0.0	21455.0	654.754638671875	730.0	-0.3717391304347826	1.1494949494949496	-188.0	-0.5449101796407186	-488.0	-509.0	1.4692460375962964	0.3859023264169163	-25.0	8.395953927456738	-134.0	
9.813971268846911	1986.0	-0.5332810233143785	2095.0	1258.0	0.9964213602866504	9.888412017167381	-16128.0	-0.4316370324954016	704.0	1152.0	0.7063151440833844	0.0	22095.0	674.285888671875	732.0	-0.3673913043478261	1.1353535353535353	-195.0	-0.5489021956087825	-486.0	-413.0	0.6139533169243051	0.7287212978226709	-40.0	6.9444308090360805	-79.0	
9.789954670034946	1988.0	-0.5201214702669233	2094.0	1260.0	0.9722164042868366	9.888412017167381	-16128.0	-0.4316370324954016	704.0	1280.0	0.7847946045370937	0.0	22735.0	693.817138671875	734.0	-0.3630434782608696	1.1515151515151516	-187.0	-0.5349301397205589	-493.0	-316.0	0.7089584148446935	0.9610303948290297	-52.0	5.468195586954216	-86.0	
9.801898316195997	1985.0	-0.5088927472790197	2093.0	1259.0	1.0085927062915792	9.888412017167381	-16128.0	-0.3531575720416922	576.0	1472.0	0.9025137952176578	0.0	23375.0	713.348388671875	738.0	-0.35434782608695653	1.1595959595959595	-183.0	-0.5069860279441119	-507.0	-260.0	0.8537089341364424	0.9400466885065848	-49.0	4.615037055145328	-96.0	
9.924414166704477	1984.0	-0.43845188777929567	2087.0	1249.0	1.0225704661627455	10.006131207847945	-16320.0	-0.3531575720416922	576.0	1472.0	0.9025137952176578	0.0	24015.0	732.879638671875	737.0	-0.3565217391304348	1.1454545454545455	-190.0	-0.5349301397205589	-493.0	-265.0	0.8302060687172116	1.5833183240141215	-92.0	4.691317711175946	-94.0	
9.814570308145951	1984.0	-0.4484261689314025	2088.0	1258.0	1.021372284765639	9.849172286940528	-16064.0	-0.27467811158798283	448.0	1344.0	0.8240343347639485	0.0	24655.0	752.410888671875	734.0	-0.3630434782608696	1.1474747474747475	-189.0	-0.5469061876247505	-487.0	-259.0	2.554713239032105	2.2315605062286963	-143.0	4.582817886621085	-206.0	
9.827369447806213	1986.0	-0.4116247782661709	2085.0	1257.0	0.9977719045267255	9.927651747394236	-16192.0	-0.3139178418148375	512.0	1216.0	0.745554874310239	0.0	25295.0	771.942138671875	741.0	-0.34782608695652173	1.1515151515151516	-187.0	-0.5069860279441119	-507.0	-211.0	3.5785842327362096	2.5193356884382085	-165.0	3.8425411538703567	-273.0	
9.900645386974448	1989.0	-0.4367672760739817	2087.0	1251.0	0.9621086606270768	9.966891477621092	-16256.0	-0.3139178418148375	512.0	1344.0	0.8240343347639485	0.0	25935.0	791.473388671875	740.0	-0.35	1.1414141414141414	-192.0	-0.5189620758483035	-501.0	-184.0	3.3163132948350795	2.79389566119945	-181.0	3.4345174754166683	-256.0	
9.827871562308761	1995.0	-0.4704300949730833	2090.0	1257.0	0.8887551375649229	9.888412017167381	-16128.0	-0.3139178418148375	512.0	1152.0	0.7063151440833844	0.0	26575.0	811.004638671875	737.0	-0.3565217391304348	1.1575757575757575	-184.0	-0.5289421157684632	-496.0	-171.0	3.7127289223737607	2.7292363675255285	-178.0	3.2328346879625744	-282.0	
9.828115063831582	1996.0	-0.458001413633471	2089.0	1257.0	0.8768336666224629	9.927651747394236	-16192.0	-0.3531575720416922	576.0	1024.0	0.627835683629675	0.0	27215.0	830.535888671875	743.0	-0.34347826086956523	1.1616161616161615	-182.0	-0.5129740518962077	-504.0	-208.0	3.9749607171036696	2.2986704314576305	-152.0	3.7929500126008264	-299.0	
9.730329046467064	1990.0	-0.4087012914347996	2085.0	1265.0	0.9486379642973103	9.770692826486817	-15936.0	-0.27467811158798283	448.0	1152.0	0.7063151440833844	0.0	27855.0	850.067138671875	737.0	-0.3565217391304348	1.1434343434343435	-191.0	-0.5429141716566867	-489.0	-208.0	2.708788940981921	1.5322232734325258	-95.0	3.805611730362044	-217.0	
9.755073991067935	1990.0	-0.37262298912254116	2082.0	1263.0	0.9492461967664416	9.849172286940528	-16064.0	-0.23543838136112813	384.0	1408.0	0.8632740649908032	0.0	28495.0	869.598388671875	735.0	-0.36086956521739133	1.1474747474747475	-189.0	-0.5369261477045909	-492.0	-153.0	2.7089112177668557	0.8460346591038768	-47.0	2.9691086064535104	-218.0	
9.718503912898086	1992.0	-0.395787956741582	2084.0	1266.0	0.9245524607663841	9.731453096259962	-15872.0	-0.23543838136112813	384.0	1216.0	0.745554874310239	0.0	29135.0	889.129638671875	737.0	-0.3565217391304348	1.1636363636363636	-181.0	-0.5149700598802396	-503.0	-137.0	2.4867657542661488	0.36148469623142665	-13.0	2.727984053483955	-204.0	
9.754830489545114	1989.0	-0.38505167046215344	2083.0	1263.0	0.9611676677089016	9.849172286940528	-16064.0	-0.15695892090741875	256.0	1216.0	0.745554874310239	0.0	29775.0	908.660888671875	740.0	-0.35	1.1414141414141414	-192.0	-0.5429141716566867	-489.0	-202.0	2.0179558263666975	0.0697125697630942	6.0	3.7212653086564855	-173.0	
9.754593464360967	1991.0	-0.4333357858243959	2087.0	1263.0	0.9365860707612691	9.888412017167381	-16128.0	-0.19619865113427343	320.0	1280.0	0.7847946045370937	0.0	30415.0	928.192138671875	738.0	-0.35434782608695653	1.1575757575757575	-184.0	-0.5489021956087825	-486.0	-257.0	1.9058306685420088	0.2989289684202061	-11.0	4.5588884613754175	-165.0	
9.728635329705112	1988.0	-0.5554611175164693	2097.0	1265.0	0.9712498144110427	9.731453096259962	-15872.0	-0.47087676272225626	768.0	1280.0	0.7847946045370937	0.0	31055.0	947.723388671875	739.0	-0.3521739130434783	1.1414141414141414	-192.0	-0.5269461077844312	-497.0	-243.0	1.2578371094745115	0.17263638541995235	1.0	4.352440640312099	-123.0	
9.76532607924659	1986.0	-0.5201059035571839	2094.0	1262.0	0.9960666595882192	9.809932556713672	-16000.0	-0.3531575720416922	576.0	1280.0	0.7847946045370937	0.0	31695.0	967.254638671875	744.0	-0.341304347826087	1.1414141414141414	-192.0	-0.5169660678642716	-502.0	-140.0	1.6192870741469703	1.0497212747319766	-55.0	2.7822862167110016	-147.0	
9.801669926130083	1991.0	-0.6049841080047691	2101.0	1259.0	0.9353403521571565	9.849172286940528	-16064.0	-0.39239730226854685	640.0	1280.0	0.7847946045370937	0.0	32335.0	986.785888671875	740.0	-0.35	1.1494949494949496	-188.0	-0.5249500998003993	-498.0	-109.0	1.1604972865190595	1.6852200057171443	-94.0	2.3153912248534407	-117.0	
9.886883035120697	1988.0	-0.583042448802046	2099.0	1252.0	0.9725564781523428	9.966891477621092	-16256.0	-0.5493562231759657	896.0	1280.0	0.7847946045370937	0.0	32975.0	1006.317138671875	745.0	-0.3391304347826087	1.1575757575757575	-184.0	-0.5269461077844312	-497.0	-53.0	2.1556730982040433	2.2947018714579235	-137.0	1.4537284401206214	-182.0	
9.850795642437372	1990.0	-0.5574464310601088	2097.0	1255.0	0.9483551788607603	9.927651747394236	-16192.0	-0.47087676272225626	768.0	1280.0	0.7847946045370937	0.0	33615.0	1025.848388671875	741.0	-0.34782608695652173	1.1515151515151516	-187.0	-0.5489021956087825	-486.0	-1.0	2.1906521660686105	1.979074723116246	-114.0	0.6625041247271466	-185.0	
9.838849837496763	1992.0	-0.5567233427071357	2097.0	1256.0	0.9241465661527153	9.888412017167381	-16128.0	-0.39239730226854685	640.0	1152.0	0.7063151440833844	0.0	34255.0	1045.379638671875	742.0	-0.3456521739130435	1.1616161616161615	-182.0	-0.532934131736527	-494.0	79.0	1.4413074656795901	1.9299732783029753	-104.0	-0.546732466291777	-137.0	
9.864443799258169	1994.0	-0.4592169386949192	2089.0	1254.0	0.9012811842682829	9.927651747394236	-16192.0	-0.39239730226854685	640.0	1152.0	0.7063151440833844	0.0	34895.0	1064.910888671875	739.0	-0.3521739130434783	1.1494949494949496	-188.0	-0.5369261477045909	-492.0	142.0	1.9602220742455239	1.0626186003532005	-46.0	-1.510096517320402	-172.0	
9.804449685236719	1993.0	-0.3485120648608988	2080.0	1259.0	0.9138364846374929	9.849172286940528	-16064.0	-0.19619865113427343	320.0	1152.0	0.7063151440833844	0.0	35535.0	1084.442138671875	742.0	-0.3456521739130435	1.1393939393939394	-193.0	-0.5389221556886228	-491.0	147.0	1.4777542098820378	0.4695550313866669	-4.0	-1.581317466053193	-141.0	
9.76836876889207	1998.0	-0.35877148114159185	2081.0	1262.0	0.8531321174558179	9.849172286940528	-16064.0	-0.39239730226854685	640.0	1216.0	0.745554874310239	0.0	36175.0	1103.973388671875	740.0	-0.35	1.1535353535353536	-186.0	-0.5369261477045909	-492.0	106.0	0.5569251499132967	-0.15096839673651757	40.0	-0.9485350309668136	-81.0	
9.853948209556693	1997.0	-0.32416270559988875	2078.0	1255.0	0.8663821923889653	9.888412017167381	-16128.0	-0.15695892090741875	256.0	1152.0	0.7063151440833844	0.0	36815.0	1123.504638671875	742.0	-0.3456521739130435	1.1555555555555554	-185.0	-0.5109780439121757	-505.0	16.0	-0.11181287033503196	-0.8638247584001795	87.0	0.42697364201133514	-37.0	
9.804816016910728	1995.0	-0.33584494852191876	2079.0	1259.0	0.889870433575454	9.888412017167381	-16128.0	-0.19619865113427343	320.0	1088.0	0.6670754138565297	0.0	37455.0	1143.035888671875	744.0	-0.341304347826087	1.1494949494949496	-188.0	-0.5249500998003993	-498.0	6.0	-0.5124113171003288	-1.1718618391541995	109.0	0.5830708812318398	-11.0	
9.805182348584738	1997.0	-0.3231778321829387	2078.0	1259.0	0.8659043825134153	9.888412017167381	-16128.0	-0.19619865113427343	320.0	1024.0	0.627835683629675	0.0	38095.0	1162.567138671875	738.0	-0.35434782608695653	1.1454545454545455	-190.0	-0.5748502994011977	-473.0	39.0	-0.6593033654981244	-1.5463597081577367	136.0	0.0826386610314071	-2.0	
9.743863008254905	1997.0	-0.35851747943248463	2081.0	1264.0	0.8649377926376216	9.809932556713672	-16000.0	-0.23543838136112813	384.0	960.0	0.5885959534028203	0.0	38735.0	1182.098388671875	741.0	-0.34782608695652173	1.1535353535353536	-186.0	-0.5249500998003993	-498.0	62.0	-0.15504027592644867	-1.4175389862734036	126.0	-0.2722138557958686	-35.0	
9.732397730021262	1998.0	-0.2970815943776568	2076.0	1265.0	0.853389305934749	9.849172286940528	-16064.0	-0.07847946045370938	128.0	1024.0	0.627835683629675	0.0	39375.0	1201.629638671875	741.0	-0.34782608695652173	1.1494949494949496	-188.0	-0.5449101796407186	-488.0	26.0	-0.20664195277220795	-0.9860735378055714	96.0	0.27583067808285516	-31.0	
9.744470682672178	1999.0	-0.32146987041301556	2078.0	1264.0	0.8412179599298203	9.809932556713672	-16000.0	-0.15695892090741875	256.0	1024.0	0.627835683629675	0.0	40015.0	1221.160888671875	741.0	-0.34782608695652173	1.1636363636363636	-181.0	-0.532934131736527	-494.0	9.0	-0.6799079730039922	-0.993461435616885	98.0	0.539118471365021	0.0	
9.768603635296657	1995.0	-0.2985355544384727	2076.0	1262.0	0.8898814037001479	9.809932556713672	-16000.0	-0.23543838136112813	384.0	1152.0	0.7063151440833844	0.0	40655.0	1240.692138671875	745.0	-0.3391304347826087	1.1575757575757575	-184.0	-0.5229540918163673	-499.0	1.0	-0.7183101499248857	-0.35097790308586685	55.0	0.6611754969365113	3.0	
9.79335937379532	2000.0	-0.3222163088305978	2078.0	1260.0	0.8296511896857915	9.927651747394236	-16192.0	-0.23543838136112813	384.0	1152.0	0.7063151440833844	0.0	41295.0	1260.223388671875	738.0	-0.35434782608695653	1.1414141414141414	-192.0	-0.5489021956087825	-486.0	30.0	0.16080534842891642	0.5200209724157213	-6.0	0.21131970316970325	-54.0	
9.854678714125155	2000.0	-0.28687666158105185	2075.0	1255.0	0.8306177795615853	9.849172286940528	-16064.0	-0.15695892090741875	256.0	1152.0	0.7063151440833844	0.0	41935.0	1279.754638671875	740.0	-0.35	1.1555555555555554	-185.0	-0.5049900199600799	-508.0	42.0	0.14581494589201435	0.7382597371341898	-20.0	0.0289601014916502	-53.0	
9.793605034097698	2002.0	-0.32173943883186223	2078.0	1260.0	0.805562029446634	9.927651747394236	-16192.0	-0.11771919068056406	192.0	1024.0	0.627835683629675	0.0	42575.0	1299.285888671875	740.0	-0.35	1.1656565656565656	-180.0	-0.5069860279441119	-507.0	39.0	0.37945333084797733	1.0350159891948651	-41.0	0.07225109406794608	-68.0	
9.830409978672135	1997.0	-0.23833854450970215	2071.0	1257.0	0.8670050516910217	9.966891477621092	-16256.0	-0.11771919068056406	192.0	1088.0	0.6670754138565297	0.0	43215.0	1318.817138671875	739.0	-0.3521739130434783	1.1494949494949496	-188.0	-0.5169660678642716	-502.0	34.0	0.5660242888456746	1.1988988704006798	-53.0	0.14643101186439497	-80.0	
9.806520527570473	2002.0	-0.2488441791446327	2072.0	1259.0	0.806420136978234	9.849172286940528	-16064.0	-0.07847946045370938	128.0	960.0	0.5885959534028203	0.0	43855.0	1338.348388671875	738.0	-0.35434782608695653	1.1636363636363636	-181.0	-0.5249500998003993	-498.0	23.0	0.04152759401461978	0.7639442089598916	-22.0	0.31897635904084237	-46.0	
9.879555123995447	2005.0	-0.29836716963293247	2076.0	1253.0	0.7705106747243479	9.966891477621092	-16256.0	-0.15695892090741875	256.0	960.0	0.5885959534028203	0.0	44495.0	1357.879638671875	741.0	-0.34782608695652173	1.1616161616161615	-182.0	-0.5049900199600799	-508.0	-3.0	-1.3116744729809493	0.10767689867031577	27.0	0.7279456420682126	42.0	
9.903556611350506	1996.0	-0.22786404329425053	2070.0	1251.0	0.8798894558010443	9.966891477621092	-16256.0	-0.15695892090741875	256.0	1152.0	0.7063151440833844	0.0	45135.0	1377.410888671875	738.0	-0.35434782608695653	1.1454545454545455	-190.0	-0.5469061876247505	-487.0	-49.0	-0.5423087309858559	-0.39364585279459363	55.0	1.4198717565113796	-8.0	
9.85467439656604	1998.0	-0.2629730388992984	2073.0	1255.0	0.8549531581549804	9.927651747394236	-16192.0	-0.15695892090741875	256.0	1088.0	0.6670754138565297	0.0	45775.0	1396.942138671875	739.0	-0.3521739130434783	1.1656565656565656	-180.0	-0.530938123752495	-495.0	-62.0	-0.14135089613815496	-0.3994762558508901	53.0	1.6135808093416097	-34.0	
9.769334139865121	1998.0	-0.2612495104196358	2073.0	1262.0	0.8541169908727679	9.849172286940528	-16064.0	-0.15695892090741875	256.0	1024.0	0.627835683629675	0.0	46415.0	1416.473388671875	737.0	-0.3565217391304348	1.1575757575757575	-184.0	-0.5109780439121757	-505.0	-82.0	-9.994164688860389E-4	-0.4813820342086031	57.0	1.9163598040506205	-43.0	
9.781762630292254	1996.0	-0.21321161341163086	2069.0	1261.0	0.8788180402892879	9.849172286940528	-16064.0	-0.07847946045370938	128.0	1088.0	0.6670754138565297	0.0	47055.0	1436.004638671875	739.0	-0.3521739130434783	1.1434343434343435	-191.0	-0.532934131736527	-494.0	-88.0	0.5401159730262388	-0.17786626922463566	34.0	2.0022034030073805	-78.0	
9.830519856145974	1992.0	-0.16638924146507403	2065.0	1257.0	0.9279666073516281	9.849172286940528	-16064.0	-0.07847946045370938	128.0	1280.0	0.7847946045370937	0.0	47695.0	1455.535888671875	738.0	-0.35434782608695653	1.1575757575757575	-184.0	-0.5049900199600799	-508.0	-136.0	0.8153378141779621	0.5234019571249536	-16.0	2.7294892074095514	-95.0	
9.769689677641338	1995.0	-0.1888233373762721	2067.0	1262.0	0.8909893862942168	9.888412017167381	-16128.0	-0.07847946045370938	128.0	1088.0	0.6670754138565297	0.0	48335.0	1475.067138671875	738.0	-0.35434782608695653	1.1494949494949496	-188.0	-0.5548902195608784	-483.0	-97.0	2.0925050608318583	1.447742599875599	-82.0	2.1235616414068903	-178.0	
9.708495326242252	1997.0	-0.235876360967327	2071.0	1267.0	0.8658105270021466	9.770692826486817	-15936.0	-0.11771919068056406	192.0	1344.0	0.8240343347639485	0.0	48975.0	1494.598388671875	741.0	-0.34782608695652173	1.1515151515151516	-187.0	-0.5269461077844312	-497.0	-90.0	2.942058918692523	2.0975198826634953	-129.0	2.0086022245012876	-233.0	
9.733115281912374	1995.0	-0.18808468231355957	2067.0	1265.0	0.8906310288875542	9.849172286940528	-16064.0	-0.11771919068056406	192.0	1216.0	0.745554874310239	0.0	49615.0	1514.129638671875	737.0	-0.3565217391304348	1.1494949494949496	-188.0	-0.5608782435129741	-480.0	-175.0	3.1169677066445645	2.948177933041746	-190.0	3.299628802021007	-243.0	
9.732404206359936	2001.0	-0.33293702840028694	2079.0	1265.0	0.8168862380446564	9.809932556713672	-16000.0	-0.23543838136112813	384.0	896.0	0.5493562231759657	0.0	50255.0	1533.660888671875	744.0	-0.341304347826087	1.1515151515151516	-187.0	-0.5209580838323354	-500.0	-181.0	3.01902308415673	3.805917402296009	-247.0	3.391863001097596	-236.0	
9.82932825388657	1999.0	-0.3719543842536561	2082.0	1257.0	0.8415616905035579	9.888412017167381	-16128.0	-0.3139178418148375	512.0	1088.0	0.6670754138565297	0.0	50895.0	1553.192138671875	743.0	-0.34347826086956523	1.1535353535353536	-186.0	-0.5389221556886228	-491.0	-213.0	2.280475414655343	3.1332049633230215	-200.0	3.885940493001736	-188.0	
9.755931643346702	1996.0	-0.35900213278608994	2081.0	1263.0	0.8771018252260878	9.849172286940528	-16064.0	-0.27467811158798283	448.0	1152.0	0.7063151440833844	0.0	51535.0	1572.723388671875	743.0	-0.34347826086956523	1.1656565656565656	-180.0	-0.5249500998003993	-498.0	-211.0	3.150496878922602	2.684063101996769	-174.0	3.8468220274084928	-245.0	
9.633277851230126	1989.0	-0.34601874789904474	2080.0	1273.0	0.9603424705513829	9.731453096259962	-15872.0	-0.11771919068056406	192.0	1216.0	0.745554874310239	0.0	52175.0	1592.254638671875	743.0	-0.34347826086956523	1.1515151515151516	-187.0	-0.5289421157684632	-496.0	-127.0	3.8605783914935308	2.83566912780005	-184.0	2.562154672358829	-292.0	
9.608888444405475	1986.0	-0.30967087716793956	2077.0	1275.0	0.9966066335037004	9.692213366033108	-15808.0	-0.19619865113427343	320.0	1344.0	0.8240343347639485	0.0	52815.0	1611.785888671875	740.0	-0.35	1.1535353535353536	-186.0	-0.5489021956087825	-486.0	-24.0	4.528019045735809	3.616494546377385	-235.0	0.9889403418620336	-336.0	
9.475148658406614	1988.0	-0.2942953589323468	2076.0	1286.0	0.971326605283899	9.53525444512569	-15552.0	-0.15695892090741875	256.0	1216.0	0.745554874310239	0.0	53455.0	1631.317138671875	742.0	-0.3456521739130435	1.1656565656565656	-180.0	-0.5109780439121757	-505.0	59.0	5.927005769210652	5.113847253058454	-338.0	-0.28740693982138416	-427.0	
9.550122631895919	1995.0	-0.19658165334024133	2068.0	1280.0	0.8887161326771228	9.692213366033108	-15808.0	-0.11771919068056406	192.0	1088.0	0.6670754138565297	0.0	54095.0	1650.848388671875	740.0	-0.35	1.1555555555555554	-185.0	-0.5608782435129741	-480.0	120.0	6.4984581666376915	6.400539754696058	-424.0	-1.2208781177880499	-464.0	
9.648880496572161	2004.0	-0.18421523883958685	2067.0	1272.0	0.7813936405291328	9.692213366033108	-15808.0	-0.03923973022685469	64.0	896.0	0.5493562231759657	0.0	54735.0	1670.379638671875	741.0	-0.34782608695652173	1.1555555555555554	-185.0	-0.5528942115768464	-484.0	101.0	5.164159029662894	7.741218354110867	-508.0	-0.9185617423878837	-376.0	
9.856266870972386	2009.0	-0.23596976122576374	2071.0	1255.0	0.7227089951938515	9.966891477621092	-16256.0	-0.15695892090741875	256.0	896.0	0.5493562231759657	0.0	55375.0	1689.910888671875	742.0	-0.3456521739130435	1.1474747474747475	-189.0	-0.5708582834331338	-475.0	26.0	3.3581458729366194	7.101649313483114	-460.0	0.2401827998257669	-258.0	
9.892959779293422	2008.0	-0.21256635860735504	2069.0	1252.0	0.7353581510743303	10.006131207847945	-16320.0	-0.15695892090741875	256.0	960.0	0.5885959534028203	0.0	56015.0	1709.442138671875	746.0	-0.33695652173913043	1.1454545454545455	-190.0	-0.5269461077844312	-497.0	-74.0	3.020041139257077	5.535109518737224	-358.0	1.7644763946910795	-236.0	
9.856156993498544	2014.0	-0.30791906427039184	2077.0	1255.0	0.6617474395332451	9.927651747394236	-16192.0	-0.11771919068056406	192.0	704.0	0.4316370324954016	0.0	56655.0	1728.973388671875	742.0	-0.3456521739130435	1.1474747474747475	-189.0	-0.5708582834331338	-475.0	-84.0	2.4128711974277697	4.521809634129615	-288.0	1.9226393488622244	-197.0	
9.844088358406745	2015.0	-0.3074344109167866	2077.0	1256.0	0.6495834069447789	9.927651747394236	-16192.0	-0.15695892090741875	256.0	768.0	0.47087676272225626	0.0	57295.0	1748.504638671875	741.0	-0.34782608695652173	1.1636363636363636	-181.0	-0.5349301397205589	-493.0	-112.0	0.886610088636308	3.4116028869191064	-208.0	2.363757473258124	-98.0	
9.80799233060519	2013.0	-0.23403114781134254	2071.0	1259.0	0.6740528648399864	9.927651747394236	-16192.0	-0.07847946045370938	128.0	768.0	0.47087676272225626	0.0	57935.0	1768.035888671875	747.0	-0.3347826086956522	1.1313131313131313	-197.0	-0.5528942115768464	-484.0	-170.0	-2.4953371458490103	0.44828295248205036	3.0	3.2797062231695167	121.0	
9.880414935053773	2012.0	-0.29669812463735795	2076.0	1253.0	0.6861986138872965	9.966891477621092	-16256.0	-0.19619865113427343	320.0	832.0	0.510116492949111	0.0	58575.0	1787.567138671875	741.0	-0.34782608695652173	1.1434343434343435	-191.0	-0.56686626746507	-477.0	-181.0	-3.841233024933061	-0.7840750393779075	91.0	3.460465562188494	208.0	
9.879796466738709	2005.0	-0.27398667695244344	2074.0	1253.0	0.7707568930785854	9.927651747394236	-16192.0	-0.23543838136112813	384.0	1088.0	0.6670754138565297	0.0	59215.0	1807.098388671875	742.0	-0.3456521739130435	1.1575757575757575	-184.0	-0.5209580838323354	-500.0	-193.0	-2.5630669621158253	-0.5355081913712275	68.0	3.630193407263744	125.0	
9.830537126382442	2000.0	-0.2620037321920878	2073.0	1257.0	0.830625092978048	9.849172286940528	-16064.0	-0.27467811158798283	448.0	1024.0	0.627835683629675	0.0	59855.0	1826.629638671875	742.0	-0.3456521739130435	1.1393939393939394	-193.0	-0.564870259481038	-478.0	-142.0	-1.9581334259576448	0.8777029065537088	-27.0	2.8484786726626186	86.0	
9.941947553992614	1999.0	-0.08160443727592562	2058.0	1248.0	0.8455913829743955	10.006131207847945	-16320.0	0.07847946045370938	-128.0	1024.0	0.627835683629675	0.0	60495.0	1846.160888671875	740.0	-0.35	1.1515151515151516	-187.0	-0.5548902195608784	-483.0	-60.0	0.07131366989971108	2.480492243779203	-140.0	1.581035912730661	-46.0	
10.01499294431538	2007.0	-0.19088648446860895	2067.0	1242.0	0.7488434742370217	10.0453709380748	-16384.0	-0.15695892090741875	256.0	896.0	0.5493562231759657	0.0	61135.0	1865.692138671875	741.0	-0.34782608695652173	1.1494949494949496	-188.0	-0.5768463073852296	-472.0	37.0	2.16351567634857	4.447859404467722	-277.0	0.08482872156351051	-182.0	
10.052530552237835	2006.0	-0.08215135746848876	2058.0	1239.0	0.7623543943573318	10.163090128755364	-16576.0	0.0	0.0	896.0	0.5493562231759657	0.0	61775.0	1885.223388671875	744.0	-0.341304347826087	1.1454545454545455	-190.0	-0.5289421157684632	-496.0	84.0	3.1294803452471456	5.068891584323458	-321.0	-0.6396598224638783	-245.0	
10.053261056806296	2009.0	-0.04486531344965189	2055.0	1239.0	0.7265899815299518	10.123850398528509	-16512.0	0.11771919068056406	-192.0	960.0	0.5885959534028203	0.0	62415.0	1904.754638671875	743.0	-0.34347826086956523	1.1535353535353536	-186.0	-0.5489021956087825	-486.0	88.0	3.3512546777140817	5.820507242014228	-372.0	-0.7027140676896884	-259.0	
10.090320296801345	2010.0	-0.008794794492263086	2052.0	1236.0	0.7152730863483917	10.163090128755364	-16576.0	0.15695892090741875	-256.0	896.0	0.5493562231759657	0.0	63055.0	1924.285888671875	736.0	-0.358695652173913	1.1656565656565656	-180.0	-0.5508982035928145	-485.0	74.0	4.783381994330443	6.087126664214718	-397.0	-0.5041075842018596	-352.0	
10.09166926968487	2020.0	0.005779801841659299	2051.0	1236.0	0.594950394329723	10.20232985898222	-16640.0	0.07847946045370938	-128.0	768.0	0.47087676272225626	0.0	63695.0	1943.817138671875	745.0	-0.3391304347826087	1.1393939393939394	-193.0	-0.5508982035928145	-485.0	97.0	5.415491163379886	5.187559044094835	-339.0	-0.8602385618239129	-394.0	
10.067909125073074	2029.0	-0.04034283181653367	2055.0	1238.0	0.4858178316072641	10.163090128755364	-16576.0	0.03923973022685469	-64.0	384.0	0.23543838136112813	0.0	64335.0	1963.348388671875	743.0	-0.34347826086956523	1.1575757575757575	-184.0	-0.5688622754491018	-476.0	45.0	4.236493778772646	3.1390317563372743	-199.0	-0.057574063263011635	-318.0	
9.933423723048843	2021.0	0.021409321786359264	2050.0	1249.0	0.5814760412917254	10.084610668301655	-16448.0	0.11771919068056406	-192.0	512.0	0.3139178418148375	0.0	64975.0	1982.879638671875	742.0	-0.3456521739130435	1.1494949494949496	-188.0	-0.5828343313373254	-469.0	5.0	3.4886268356258947	1.4126257562890976	-82.0	0.5582696251798628	-270.0	
10.005359324451787	2018.0	-0.06611501771888076	2057.0	1243.0	0.6174647322239554	10.084610668301655	-16448.0	0.11771919068056406	-192.0	640.0	0.39239730226854685	0.0	79.0	2002.410888671875	739.0	-0.3521739130434783	1.1595959595959595	-183.0	-0.5469061876247505	-487.0	14.0	-0.27049055609213035	0.12051522211867756	22.0	0.4589786698194765	-26.0	
9.847477950710212	2020.0	-0.025866570094323943	2054.0	1256.0	0.5921920174206166	10.006131207847945	-16320.0	0.11771919068056406	-192.0	512.0	0.3139178418148375	0.0	719.0	2021.942138671875	741.0	-0.34782608695652173	1.1535353535353536	-186.0	-0.564870259481038	-478.0	-21.0	4.271160763008877	0.9975163182420488	-59.0	0.9458815482634475	-321.0	
9.580369027945618	2028.0	-0.006352039965911799	2053.0	1278.0	0.4933305313255801	9.613733905579398	-15680.0	0.11771919068056406	-192.0	448.0	0.27467811158798283	0.0	1359.0	2041.473388671875	744.0	-0.341304347826087	1.1373737373737374	-194.0	-0.5429141716566867	-489.0	-64.0	6.054876600193903	0.6822924589270953	-48.0	1.5820367853288597	-437.0	
9.76214201156841	2022.0	-0.0480466642964148	2056.0	1263.0	0.567020471545009	9.849172286940528	-16064.0	0.11771919068056406	-192.0	704.0	0.4316370324954016	0.0	1999.0	2061.004638671875	750.0	-0.3282608695652174	1.1393939393939394	-193.0	-0.5369261477045909	-492.0	-150.0	3.669310648197511	0.24128581887040368	-11.0	2.9138772357233487	-281.0	
9.651927503776758	2018.0	-0.04678443910574828	2056.0	1272.0	0.6141237198033365	9.652973635806253	-15744.0	0.0	0.0	768.0	0.47087676272225626	0.0	2639.0	2080.535888671875	749.0	-0.33043478260869563	1.1494949494949496	-188.0	-0.5588822355289422	-481.0	-193.0	4.078839789471654	0.6363980072640107	-41.0	3.5637743397478694	-307.0	
9.639871821362311	2025.0	-0.11801065379740333	2062.0	1273.0	0.5289535514346851	9.652973635806253	-15744.0	-0.07847946045370938	128.0	576.0	0.3531575720416922	0.0	3279.0	2100.067138671875	743.0	-0.34347826086956523	1.1616161616161615	-182.0	-0.5508982035928145	-485.0	-149.0	3.335196599556998	0.6099761078816912	-34.0	2.9020092507344684	-259.0	
9.67656041212423	2022.0	-0.07070362849724121	2058.0	1270.0	0.5659380859085589	9.731453096259962	-15872.0	-0.03923973022685469	64.0	576.0	0.3531575720416922	0.0	3919.0	2119.598388671875	744.0	-0.341304347826087	1.1494949494949496	-188.0	-0.5409181636726548	-490.0	-162.0	2.680898521317013	0.9774415913388165	-56.0	3.106270862695575	-216.0	
9.567074250121482	2020.0	-0.020203547946861106	2054.0	1279.0	0.5894446106362039	9.692213366033108	-15808.0	0.15695892090741875	-256.0	640.0	0.39239730226854685	0.0	4559.0	2139.129638671875	748.0	-0.33260869565217394	1.1494949494949496	-188.0	-0.5628742514970061	-479.0	-130.0	3.0048981534264523	1.6340290624699056	-100.0	2.6163388511653554	-237.0	
9.798589259587072	2019.0	-0.02512013167674168	2054.0	1260.0	0.6037587876646453	9.927651747394236	-16192.0	0.11771919068056406	-192.0	640.0	0.39239730226854685	0.0	5199.0	2158.660888671875	745.0	-0.3391304347826087	1.1595959595959595	-183.0	-0.5349301397205589	-493.0	-117.0	0.3540473669361642	2.26121963115243	-129.0	2.445128727851551	-64.0	
9.8711368529664	2020.0	-0.09950048484426602	2060.0	1254.0	0.5916922672956791	10.0453709380748	-16384.0	-0.03923973022685469	64.0	576.0	0.3531575720416922	0.0	5839.0	2178.192138671875	746.0	-0.33695652173913043	1.1595959595959595	-183.0	-0.532934131736527	-494.0	-116.0	-0.17959730454103262	2.628804747765025	-151.0	2.4352560490910378	-29.0	
9.859309560617865	2021.0	-0.07463533881017173	2058.0	1255.0	0.5797744530614503	9.927651747394236	-16192.0	0.03923973022685469	-64.0	640.0	0.39239730226854685	0.0	6479.0	2197.723388671875	745.0	-0.3391304347826087	1.1515151515151516	-187.0	-0.5708582834331338	-475.0	-173.0	3.0578746784538358	3.2083801015599844	-207.0	3.269801481352344	-239.0	
9.750069058917497	2021.0	-0.02365838826105604	2054.0	1264.0	0.5791918175499378	9.849172286940528	-16064.0	0.11771919068056406	-192.0	576.0	0.3531575720416922	0.0	7119.0	2217.254638671875	741.0	-0.34782608695652173	1.1373737373737374	-194.0	-0.5508982035928145	-485.0	-215.0	4.447776387005092	3.4309191980532345	-230.0	3.894685734228809	-329.0	
9.725688287211076	2022.0	-0.03511776289345775	2055.0	1266.0	0.5667852233154652	9.809932556713672	-16000.0	0.07847946045370938	-128.0	448.0	0.27467811158798283	0.0	7759.0	2236.785888671875	746.0	-0.33695652173913043	1.1292929292929292	-198.0	-0.594810379241517	-463.0	-162.0	1.8076821689152218	2.672400358011708	-165.0	3.1150030262195934	-158.0	
9.957692458501866	2024.0	-0.02712879528499043	2054.0	1247.0	0.5450887691622891	10.0453709380748	-16384.0	0.11771919068056406	-192.0	512.0	0.3139178418148375	0.0	8399.0	2256.317138671875	744.0	-0.341304347826087	1.1252525252525252	-200.0	-0.5688622754491018	-476.0	-134.0	0.3601228610199902	2.6102746613960246	-153.0	2.703623105990561	-64.0	
9.885390525424912	2025.0	0.047728427881269464	2048.0	1253.0	0.5330661292920978	9.966891477621092	-16256.0	0.19619865113427343	-320.0	576.0	0.3531575720416922	0.0	9039.0	2275.848388671875	749.0	-0.33043478260869563	1.1575757575757575	-184.0	-0.5409181636726548	-490.0	-183.0	2.7766763916750516	2.5621976872121324	-163.0	3.4247047189729836	-221.0	
9.750911599739355	2020.0	0.07362514746153223	2046.0	1264.0	0.5922212710864666	9.849172286940528	-16064.0	0.27467811158798283	-448.0	640.0	0.39239730226854685	0.0	9679.0	2295.379638671875	750.0	-0.3282608695652174	1.1373737373737374	-194.0	-0.5688622754491018	-476.0	-249.0	1.97694730326962	1.393298944408449	-84.0	4.436504291225859	-169.0	
9.8366225056734	2024.0	0.06066511263909627	2047.0	1257.0	0.5447560087132454	9.888412017167381	-16128.0	0.19619865113427343	-320.0	512.0	0.3139178418148375	0.0	10319.0	2314.910888671875	748.0	-0.33260869565217394	1.1515151515151516	-187.0	-0.5868263473053893	-467.0	-265.0	0.1611281031848074	0.670365910535117	-28.0	4.6980084908312705	-51.0	
9.860505480436387	2016.0	0.107026181296657	2043.0	1255.0	0.6418439913161254	9.966891477621092	-16256.0	0.23543838136112813	-384.0	768.0	0.47087676272225626	0.0	10959.0	2334.442138671875	747.0	-0.3347826086956522	1.1616161616161615	-182.0	-0.5429141716566867	-489.0	-298.0	-2.6429729895740426	0.6205677447418675	-13.0	5.227950642443269	132.0	
9.787962204616171	2017.0	0.15750291178242787	2039.0	1261.0	0.6295751330916967	9.849172286940528	-16064.0	0.19619865113427343	-320.0	640.0	0.39239730226854685	0.0	11599.0	2353.973388671875	740.0	-0.35	1.1535353535353536	-186.0	-0.5888223552894213	-466.0	-311.0	-2.9832838761291662	0.15658451725892586	19.0	5.429072382487528	154.0	
9.738237449009842	2020.0	0.02511038045479172	2050.0	1265.0	0.5916093819091041	9.849172286940528	-16064.0	0.07847946045370938	-128.0	512.0	0.3139178418148375	0.0	12239.0	2373.504638671875	747.0	-0.3347826086956522	1.1555555555555554	-185.0	-0.5708582834331338	-475.0	-432.0	-2.4649034806001366	-0.4928370605028085	55.0	7.264192761041744	121.0	
9.639975222497476	2017.0	-0.010205916730145037	2053.0	1273.0	0.626418174985384	9.692213366033108	-15808.0	0.07847946045370938	-128.0	768.0	0.47087676272225626	0.0	12879.0	2393.035888671875	741.0	-0.34782608695652173	1.1515151515151516	-187.0	-0.5409181636726548	-490.0	-306.0	-9.512119534546786	-0.3754719431964626	85.0	5.418315111695278	579.0	
9.956606416157184	2024.0	-0.13684101234719098	2063.0	1247.0	0.5439807865682202	10.084610668301655	-16448.0	0.0	0.0	576.0	0.3531575720416922	0.0	13519.0	2412.567138671875	745.0	-0.3391304347826087	1.1393939393939394	-193.0	-0.5508982035928145	-485.0	-404.0	-12.447167447445684	-0.6955799965137212	116.0	6.938159887402215	771.0	
10.065484903742659	2024.0	-0.22438870191704022	2070.0	1238.0	0.5441940945483765	10.163090128755364	-16576.0	-0.07847946045370938	128.0	512.0	0.3139178418148375	0.0	14159.0	2432.098388671875	742.0	-0.3456521739130435	1.1474747474747475	-189.0	-0.56686626746507	-477.0	-553.0	-8.552120039842169	-0.21774147402057287	60.0	9.16536910914367	519.0	
9.978802150496888	2017.0	-0.2730952037939301	2074.0	1245.0	0.6271775513947403	10.0453709380748	-16384.0	-0.19619865113427343	320.0	768.0	0.47087676272225626	0.0	14799.0	2451.629638671875	738.0	-0.35434782608695653	1.1616161616161615	-182.0	-0.5508982035928145	-485.0	-603.0	-3.38051256617457	0.5013416722229109	-14.0	9.874109308171253	183.0	
9.990263111171414	2014.0	-0.31062746616700454	2077.0	1244.0	0.6630614166910077	10.0453709380748	-16384.0	-0.23543838136112813	384.0	640.0	0.39239730226854685	0.0	15439.0	2471.160888671875	740.0	-0.35	1.1494949494949496	-188.0	-0.5508982035928145	-485.0	-491.0	2.1146683505544264	0.7417366012285099	-51.0	8.115735445772023	-176.0	
9.796781347792159	2020.0	-0.21992563812128602	2070.0	1260.0	0.5897444607111664	9.849172286940528	-16064.0	-0.11771919068056406	192.0	640.0	0.39239730226854685	0.0	16079.0	2490.692138671875	740.0	-0.35	1.1595959595959595	-183.0	-0.5888223552894213	-466.0	-349.0	3.712724407751092	1.5564799422422944	-107.0	5.940059067709561	-281.0	
9.896110187633184	2014.0	0.03266917819374182	2049.0	1252.0	0.6655528538992329	10.006131207847945	-16320.0	0.19619865113427343	-320.0	704.0	0.4316370324954016	0.0	16719.0	2510.223388671875	742.0	-0.3456521739130435	1.1616161616161615	-182.0	-0.5469061876247505	-487.0	-247.0	3.5963270017115256	2.211342079818723	-146.0	4.389892243290871	-274.0	
9.797242445483102	2010.0	-0.05164653935154076	2056.0	1260.0	0.7119137903866166	9.927651747394236	-16192.0	0.15695892090741875	-256.0	896.0	0.5493562231759657	0.0	17359.0	2529.754638671875	745.0	-0.3391304347826087	1.1515151515151516	-187.0	-0.5528942115768464	-484.0	-126.0	3.1004742701284016	3.5788359120798674	-230.0	2.5545465880971956	-242.0	
9.73616444789653	2010.0	-0.0626056939205977	2057.0	1265.0	0.7111934188650603	9.731453096259962	-15872.0	0.07847946045370938	-128.0	832.0	0.510116492949111	0.0	17999.0	2549.285888671875	743.0	-0.34347826086956523	1.1535353535353536	-186.0	-0.5768463073852296	-472.0	-108.0	4.587726150196442	5.240396690100072	-347.0	2.2659098107413818	-338.0	
10.03069899079258	2014.0	0.07872176165810718	2045.0	1241.0	0.6673592677654705	10.0453709380748	-16384.0	0.15695892090741875	-256.0	832.0	0.510116492949111	0.0	18639.0	2568.817138671875	744.0	-0.341304347826087	1.1616161616161615	-182.0	-0.5548902195608784	-483.0	-102.0	12.416932362816288	10.126420484637388	-709.0	2.096362995763472	-845.0	
9.691044633428213	2022.0	0.1606648336131669	2039.0	1269.0	0.5683966127427029	9.731453096259962	-15872.0	0.27467811158798283	-448.0	640.0	0.39239730226854685	0.0	19279.0	2588.348388671875	751.0	-0.32608695652173914	1.1434343434343435	-191.0	-0.5608782435129741	-480.0	-115.0	15.756842080319684	10.875559270428315	-775.0	2.260682529767146	-1062.0	
9.936481524151231	2040.0	0.09908106481581425	2044.0	1249.0	0.35336767408244146	10.084610668301655	-16448.0	0.15695892090741875	-256.0	256.0	0.15695892090741875	0.0	19919.0	2607.879638671875	747.0	-0.3347826086956522	1.1454545454545455	-190.0	-0.5808383233532934	-470.0	-28.0	12.926095857250676	9.98607667935034	-699.0	0.9657960756480256	-879.0	
9.864530811291383	2036.0	0.2702680837071913	2030.0	1255.0	0.40255280822709405	9.966891477621092	-16256.0	0.4316370324954016	-704.0	448.0	0.27467811158798283	0.0	20559.0	2627.410888671875	751.0	-0.32608695652173914	1.1575757575757575	-184.0	-0.5848303393213574	-468.0	-122.0	6.0996637384650345	10.419002546778874	-700.0	2.463718191512688	-433.0	
9.985003883600362	2039.0	0.08566751005925188	2045.0	1245.0	0.36576695490045147	10.123850398528509	-16512.0	0.23543838136112813	-384.0	192.0	0.11771919068056406	0.0	21199.0	2646.942138671875	746.0	-0.33695652173913043	1.1353535353535353	-195.0	-0.6147704590818364	-453.0	-206.0	-0.20351026166473085	8.077965113432025	-518.0	3.8043164714379403	-23.0	
10.07205944485882	2051.0	0.11118569425249172	2043.0	1238.0	0.22231437910195645	10.163090128755364	-16576.0	0.3139178418148375	-512.0	64.0	0.03923973022685469	0.0	21839.0	2666.473388671875	748.0	-0.33260869565217394	1.1555555555555554	-185.0	-0.594810379241517	-463.0	-243.0	-2.7637695103101283	4.725403774372855	-284.0	4.392656706509945	142.0	
9.628900022512983	2031.0	-0.06757284008598108	2058.0	1274.0	0.45705905495680005	9.731453096259962	-15872.0	-0.03923973022685469	64.0	384.0	0.23543838136112813	0.0	22479.0	2686.004638671875	747.0	-0.3347826086956522	1.1575757575757575	-184.0	-0.5728542914171657	-474.0	-327.0	-1.5556223463876817	3.0160011766136714	-179.0	5.658141774794676	63.0	
10.202416114892888	2047.0	-0.22161309882819383	2070.0	1227.0	0.2684827289558276	10.359288779889638	-16896.0	-0.07847946045370938	128.0	64.0	0.03923973022685469	0.0	23119.0	2705.535888671875	751.0	-0.32608695652173914	1.1434343434343435	-191.0	-0.5788423153692616	-471.0	-73.0	3.257517701032387	0.13688066947946342	1.0	1.7468925035980412	-255.0	
10.117405490613491	2032.0	-0.00404166121464683	2052.0	1234.0	0.4505312286554341	10.320049049662783	-16832.0	0.23543838136112813	-384.0	192.0	0.11771919068056406	0.0	23759.0	2725.067138671875	746.0	-0.33695652173913043	1.1333333333333333	-196.0	-0.6187624750499002	-451.0	-160.0	3.8573600925303055	0.47698649107286806	-28.0	3.064087996032872	-293.0	
9.898924487212753	2032.0	0.09791223988358452	2044.0	1252.0	0.44936595763240905	10.006131207847945	-16320.0	0.11771919068056406	-192.0	384.0	0.23543838136112813	0.0	24399.0	2744.598388671875	748.0	-0.33260869565217394	1.1474747474747475	-189.0	-0.5748502994011977	-473.0	-112.0	7.123876564722311	0.953501134186519	-73.0	2.301384808497264	-506.0	
9.7654389966345	2040.0	0.06595738275440591	2047.0	1263.0	0.3513260119866601	9.849172286940528	-16064.0	0.15695892090741875	-256.0	192.0	0.11771919068056406	0.0	25039.0	2764.129638671875	750.0	-0.3282608695652174	1.1474747474747475	-189.0	-0.5788423153692616	-471.0	-63.0	5.521794936363499	-1.9636548631658397	131.0	1.5721584764918783	-404.0	
9.763607338264451	2030.0	0.0026218010595055186	2052.0	1263.0	0.47115626729685395	9.770692826486817	-15936.0	0.11771919068056406	-192.0	512.0	0.3139178418148375	0.0	25679.0	2783.660888671875	750.0	-0.3282608695652174	1.1515151515151516	-187.0	-0.6087824351297406	-456.0	-3.0	0.48361549965150447	-3.0007835293019642	226.0	0.7099927423418881	-77.0	
10.363281891231871	2030.0	0.22217178216651295	2033.0	1214.0	0.47934851263759815	10.437768240343347	-17024.0	0.3531575720416922	-576.0	448.0	0.27467811158798283	0.0	26319.0	2803.192138671875	752.0	-0.3239130434782609	1.1454545454545455	-190.0	-0.5768463073852296	-472.0	-99.0	0.39256606177736814	-4.357197356337975	313.0	2.1709792823480054	-71.0	
10.145068135929092	2042.0	0.20508443985471264	2035.0	1232.0	0.3324171884084404	10.163090128755364	-16576.0	0.3531575720416922	-576.0	64.0	0.03923973022685469	0.0	26959.0	2822.723388671875	752.0	-0.3239130434782609	1.1515151515151516	-187.0	-0.5708582834331338	-475.0	-83.0	4.401481238696147	-5.3311316885092594	360.0	1.8875441229742556	-333.0	
9.986313998451841	2031.0	0.31537471052895527	2026.0	1245.0	0.46446267022233795	10.084610668301655	-16448.0	0.3531575720416922	-576.0	512.0	0.3139178418148375	0.0	27599.0	2842.254638671875	746.0	-0.33695652173913043	1.1676767676767676	-179.0	-0.594810379241517	-463.0	-127.0	5.209731884220903	-8.05283465394445	536.0	2.5486631374315554	-387.0	
9.924035763487632	2034.0	0.14665765853482304	2040.0	1250.0	0.4260081390395015	10.006131207847945	-16320.0	0.19619865113427343	-320.0	384.0	0.23543838136112813	0.0	28239.0	2861.785888671875	754.0	-0.31956521739130433	1.1595959595959595	-183.0	-0.564870259481038	-478.0	-181.0	1.7404223709992153	-10.482903082521	712.0	3.404649008229171	-162.0	
9.689230245294628	2020.0	0.0017147611912527727	2052.0	1269.0	0.5908853536793165	9.888412017167381	-16128.0	0.15695892090741875	-256.0	576.0	0.3531575720416922	0.0	28879.0	2881.317138671875	753.0	-0.32173913043478264	1.1595959595959595	-183.0	-0.5848303393213574	-468.0	-266.0	1.4931998212989903	-11.941695275749797	807.0	4.699896899125413	-146.0	
9.505621285742667	2014.0	0.003977426508608772	2052.0	1284.0	0.6613610473634763	9.574494175352545	-15616.0	0.07847946045370938	-128.0	704.0	0.4316370324954016	0.0	29519.0	2900.848388671875	750.0	-0.3282608695652174	1.1737373737373737	-176.0	-0.5868263473053893	-467.0	-364.0	1.1671803902761342	-10.734246284119273	724.0	6.193651390013589	-123.0	
9.810664371017541	2021.0	-0.06146021905297713	2057.0	1259.0	0.579419752363019	9.849172286940528	-16064.0	0.07847946045370938	-128.0	576.0	0.3531575720416922	0.0	30159.0	2920.379638671875	752.0	-0.3239130434782609	1.1737373737373737	-176.0	-0.5608782435129741	-480.0	-302.0	2.051425447368591	-10.383258515211052	699.0	5.241843159974983	-181.0	
9.614374784397395	2012.0	-0.07185688671973148	2058.0	1275.0	0.6857866247599089	9.652973635806253	-15744.0	0.03923973022685469	-64.0	896.0	0.5493562231759657	0.0	30799.0	2939.910888671875	751.0	-0.32608695652173914	1.1656565656565656	-180.0	-0.5788423153692616	-471.0	-309.0	1.6282904999949552	-6.759865978456702	459.0	5.3525383877757164	-151.0	
9.737515579559613	2021.0	-0.059982908927552064	2057.0	1265.0	0.578703037549694	9.731453096259962	-15872.0	0.03923973022685469	-64.0	576.0	0.3531575720416922	0.0	31439.0	2959.442138671875	752.0	-0.3239130434782609	1.1434343434343435	-191.0	-0.5908183632734532	-465.0	-199.0	1.81076063556428	-3.722137501924011	260.0	3.677709884138654	-162.0	
9.738599463124736	2020.0	0.06168111947552524	2047.0	1265.0	0.5919787094404604	9.731453096259962	-15872.0	0.15695892090741875	-256.0	576.0	0.3531575720416922	0.0	32079.0	2978.973388671875	756.0	-0.31521739130434784	1.1595959595959595	-183.0	-0.564870259481038	-478.0	-94.0	2.892008126872397	-2.9688963091684353	209.0	2.0699392343206293	-233.0	
9.934867461949302	2019.0	0.1915959005510468	2036.0	1249.0	0.6072887300105455	10.006131207847945	-16320.0	0.27467811158798283	-448.0	640.0	0.39239730226854685	0.0	32719.0	2998.504638671875	753.0	-0.32173913043478264	1.1575757575757575	-184.0	-0.5608782435129741	-480.0	65.0	2.13683062006112	-2.399815811724031	181.0	-0.3407599411815998	-185.0	
9.9119584932776	2031.0	0.19494955725193527	2036.0	1251.0	0.46251486363782535	10.006131207847945	-16320.0	0.27467811158798283	-448.0	448.0	0.27467811158798283	0.0	33359.0	3018.035888671875	752.0	-0.3239130434782609	1.1777777777777778	-174.0	-0.56686626746507	-477.0	104.0	3.7509621397219957	-1.5439053936190488	118.0	-0.9500571499143303	-290.0	
9.667887845674572	2031.0	0.17549343165619655	2038.0	1271.0	0.4598795959058377	9.770692826486817	-15936.0	0.23543838136112813	-384.0	384.0	0.23543838136112813	0.0	33999.0	3037.567138671875	755.0	-0.3173913043478261	1.1575757575757575	-184.0	-0.594810379241517	-463.0	169.0	3.9416090398552988	-1.4426681728919557	113.0	-1.9405567748091994	-303.0	
9.498916160491598	2040.0	0.2420376353110544	2033.0	1285.0	0.3504215861507975	9.496014714898834	-15488.0	0.3139178418148375	-512.0	256.0	0.15695892090741875	0.0	34639.0	3057.098388671875	754.0	-0.31956521739130433	1.1696969696969697	-178.0	-0.5888223552894213	-466.0	129.0	1.9583373030965967	-2.3934348268909478	184.0	-1.3123590384302057	-174.0	
9.338612724199166	2038.0	0.0862884014942279	2046.0	1298.0	0.37135744499187356	9.417535254445125	-15360.0	0.19619865113427343	-320.0	256.0	0.15695892090741875	0.0	35279.0	3076.629638671875	752.0	-0.3239130434782609	1.1797979797979798	-173.0	-0.5688622754491018	-476.0	53.0	-2.8965940456885484	-2.5215574514078947	212.0	-0.10791618882068106	143.0	
9.631169031998835	2020.0	0.29551176512830857	2028.0	1274.0	0.5932427115857292	9.574494175352545	-15616.0	0.3531575720416922	-576.0	640.0	0.39239730226854685	0.0	35919.0	3096.160888671875	752.0	-0.3239130434782609	1.183838383838384	-171.0	-0.5409181636726548	-490.0	-34.0	-10.411365461442378	-1.7516070425629016	192.0	1.2904254416866674	634.0	
9.80221803585424	2023.0	0.2927800131670867	2028.0	1260.0	0.5587813057914179	9.888412017167381	-16128.0	0.27467811158798283	-448.0	640.0	0.39239730226854685	0.0	36559.0	3115.692138671875	751.0	-0.32608695652173914	1.1636363636363636	-181.0	-0.5708582834331338	-475.0	-6.0	-8.851940477467986	1.140399444961861	-7.0	0.8489756785389385	534.0	
9.55848133823185	2010.0	0.46526817402347886	2014.0	1280.0	0.7146953264478543	9.613733905579398	-15680.0	0.47087676272225626	-768.0	896.0	0.5493562231759657	0.0	37199.0	3135.223388671875	749.0	-0.33043478260869563	1.1696969696969697	-178.0	-0.5788423153692616	-471.0	-36.0	-0.4148817623755145	3.338527408720633	-194.0	1.2208788556465688	-14.0	
9.912900117675509	2020.0	0.42394145272353534	2017.0	1251.0	0.5973443193184481	9.966891477621092	-16256.0	0.47087676272225626	-768.0	704.0	0.4316370324954016	0.0	37839.0	3154.754638671875	752.0	-0.3239130434782609	1.1676767676767676	-179.0	-0.5489021956087825	-486.0	83.0	2.874347279621284	4.096535233295695	-255.0	-0.6218993663323346	-229.0	
9.912283808140003	2014.0	0.43470108906757304	2016.0	1251.0	0.6697349092130395	10.006131207847945	-16320.0	0.510116492949111	-832.0	832.0	0.510116492949111	0.0	38479.0	3174.285888671875	752.0	-0.3239130434782609	1.1757575757575758	-175.0	-0.5508982035928145	-485.0	56.0	1.8992659486135435	4.402847602138667	-272.0	-0.2015021651895575	-165.0	
9.987143586596353	2024.0	0.48436911429680385	2012.0	1245.0	0.5504982595390518	9.966891477621092	-16256.0	0.5493562231759657	-896.0	512.0	0.3139178418148375	0.0	39119.0	3193.817138671875	746.0	-0.33695652173913043	1.1757575757575758	-175.0	-0.5708582834331338	-475.0	20.0	1.6670659738673075	5.191710278347268	-325.0	0.3483483516681711	-149.0	
9.719409719178019	2022.0	0.5624505261327607	2006.0	1267.0	0.5726981205253969	9.849172286940528	-16064.0	0.5493562231759657	-896.0	640.0	0.39239730226854685	0.0	39759.0	3213.348388671875	752.0	-0.3239130434782609	1.1636363636363636	-181.0	-0.6167664670658684	-452.0	-36.0	0.8798667045102608	3.8930905765947985	-237.0	1.207931370977711	-98.0	
9.681389425769039	2023.0	0.4049544137716624	2019.0	1270.0	0.5586947636966118	9.770692826486817	-15936.0	0.4316370324954016	-704.0	512.0	0.3139178418148375	0.0	40399.0	3232.879638671875	751.0	-0.32608695652173914	1.1656565656565656	-180.0	-0.596806387225549	-462.0	-94.0	-1.9940125191033495	1.0893116573267085	-39.0	2.118799440780387	88.0	
10.035290979253244	2017.0	0.5060956885647683	2010.0	1241.0	0.6355343486058908	10.084610668301655	-16448.0	0.47087676272225626	-768.0	832.0	0.510116492949111	0.0	41039.0	3252.410888671875	748.0	-0.33260869565217394	1.1555555555555554	-185.0	-0.5928143712574852	-464.0	-203.0	-6.415835494474221	-0.7382067679011013	99.0	3.8208123473401794	376.0	
9.92571221001312	2028.0	0.3890319753435065	2020.0	1250.0	0.5007378032993492	10.006131207847945	-16320.0	0.627835683629675	-1024.0	576.0	0.3531575720416922	0.0	41679.0	3271.942138671875	750.0	-0.3282608695652174	1.187878787878788	-169.0	-0.5608782435129741	-480.0	-220.0	-6.815619301842237	0.4636837758704677	20.0	4.083365318493708	403.0	
9.522314290988502	2031.0	0.2515895299485138	2032.0	1283.0	0.45918482134190014	9.692213366033108	-15808.0	0.39239730226854685	-640.0	384.0	0.23543838136112813	0.0	42319.0	3291.473388671875	749.0	-0.33043478260869563	1.1616161616161615	-182.0	-0.5848303393213574	-468.0	-255.0	-1.6260126338908043	0.14116439110815243	16.0	4.563788643449175	65.0	
9.204607848881901	2029.0	0.20875335179897558	2036.0	1309.0	0.47967578068150746	9.182096873083998	-14976.0	0.27467811158798283	-448.0	448.0	0.27467811158798283	0.0	42959.0	3311.004638671875	743.0	-0.34347826086956523	1.1818181818181819	-172.0	-0.5868263473053893	-467.0	-333.0	-4.294803696046773	-0.8749630110543789	93.0	5.776788341142978	239.0	
9.82370053586195	2021.0	0.023625286974496867	2050.0	1258.0	0.5804009690717378	9.849172286940528	-16064.0	0.03923973022685469	-64.0	576.0	0.3531575720416922	0.0	43599.0	3330.535888671875	745.0	-0.3391304347826087	1.1919191919191918	-167.0	-0.5548902195608784	-483.0	-432.0	-12.15252179316059	-2.352311959381884	224.0	7.361068944167348	751.0	
10.054726383502338	2017.0	0.0058031519062684556	2051.0	1239.0	0.6307257772817967	10.084610668301655	-16448.0	0.15695892090741875	-256.0	704.0	0.4316370324954016	0.0	44239.0	3350.067138671875	745.0	-0.3391304347826087	1.1616161616161615	-182.0	-0.5568862275449102	-482.0	-480.0	-14.528800847790023	-1.2865892257084148	162.0	8.11486975752733	907.0	
10.261858462481948	2016.0	0.0013790048848629222	2051.0	1222.0	0.6448010493724631	10.359288779889638	-16896.0	0.07847946045370938	-128.0	704.0	0.4316370324954016	0.0	44879.0	3369.598388671875	738.0	-0.35434782608695653	1.1777777777777778	-174.0	-0.5768463073852296	-472.0	-556.0	-9.330629715379002	1.6936881691073724	-64.0	9.218781582324894	571.0	
9.895761126195639	2020.0	-0.07561242887225203	2058.0	1252.0	0.5921773905876916	9.927651747394236	-16192.0	-0.03923973022685469	64.0	640.0	0.39239730226854685	0.0	45519.0	3389.129638671875	739.0	-0.3521739130434783	1.1737373737373737	-176.0	-0.5868263473053893	-467.0	-551.0	6.351672384942979	3.004042367720169	-224.0	8.985912933945247	-450.0	
9.85930308427919	2018.0	-0.038779904787541564	2055.0	1255.0	0.6162775209515428	9.888412017167381	-16128.0	0.11771919068056406	-192.0	768.0	0.47087676272225626	0.0	46159.0	3408.660888671875	744.0	-0.341304347826087	1.1696969696969697	-178.0	-0.6067864271457086	-457.0	-546.0	2.622164667264987	1.5425199989311318	-109.0	8.947162383745603	-208.0	
9.858941070164297	2018.0	-0.07535064380827508	2058.0	1255.0	0.6159081934201864	9.927651747394236	-16192.0	0.03923973022685469	-64.0	768.0	0.47087676272225626	0.0	46799.0	3428.192138671875	741.0	-0.34782608695652173	1.1818181818181819	-172.0	-0.5988023952095809	-461.0	-555.0	1.2900587496856915	1.7197143081123036	-115.0	9.097365572198962	-121.0	
9.845053729379796	2015.0	-0.2099124401948305	2069.0	1256.0	0.650568280361729	9.927651747394236	-16192.0	-0.11771919068056406	192.0	768.0	0.47087676272225626	0.0	47439.0	3447.723388671875	746.0	-0.33695652173913043	1.183838383838384	-171.0	-0.5728542914171657	-474.0	-511.0	2.2914794328321824	2.7712362630150036	-188.0	8.41814984445495	-186.0	
9.870645532361642	2016.0	-0.10045422484173716	2060.0	1254.0	0.6398705877739941	9.927651747394236	-16192.0	-0.03923973022685469	64.0	704.0	0.4316370324954016	0.0	48079.0	3467.254638671875	745.0	-0.3391304347826087	1.1636363636363636	-181.0	-0.6007984031936129	-460.0	-526.0	2.8806678323417256	3.140893380071494	-216.0	8.640394842589131	-224.0	
9.957308856591387	2014.0	0.05581857910304325	2047.0	1247.0	0.666396334597908	10.006131207847945	-16320.0	0.19619865113427343	-320.0	768.0	0.47087676272225626	0.0	48719.0	3486.785888671875	744.0	-0.341304347826087	1.1777777777777778	-174.0	-0.6087824351297406	-456.0	-475.0	3.870131452342409	3.103053328089028	-216.0	7.85483480714958	-289.0	
9.933285781440748	2013.0	0.10483356617312853	2043.0	1249.0	0.6786944464881868	9.966891477621092	-16256.0	0.07847946045370938	-128.0	640.0	0.39239730226854685	0.0	49359.0	3506.317138671875	746.0	-0.33695652173913043	1.1717171717171717	-177.0	-0.5808383233532934	-470.0	-488.0	4.204198529177456	2.5471558831097525	-181.0	8.049212767559938	-311.0	
9.823926767148304	2014.0	0.13166845904112293	2041.0	1258.0	0.665821012502858	9.927651747394236	-16192.0	0.19619865113427343	-320.0	768.0	0.47087676272225626	0.0	49999.0	3525.848388671875	749.0	-0.33043478260869563	1.1676767676767676	-179.0	-0.5868263473053893	-467.0	-458.0	3.3247147523655753	2.5366638820574465	-175.0	7.601733841069501	-254.0	
9.88356102583442	2016.0	-0.027558965154507647	2054.0	1253.0	0.6407286953055942	10.0453709380748	-16384.0	0.07847946045370938	-128.0	640.0	0.39239730226854685	0.0	50639.0	3545.379638671875	745.0	-0.3391304347826087	1.183838383838384	-171.0	-0.6007984031936129	-460.0	-462.0	2.3986375136158036	1.9540077366289696	-132.0	7.671831115358139	-194.0	
9.712152166643678	2014.0	-0.07334976355489603	2058.0	1267.0	0.6626530842718514	9.770692826486817	-15936.0	0.03923973022685469	-64.0	704.0	0.4316370324954016	0.0	51279.0	3564.910888671875	744.0	-0.341304347826087	1.1797979797979798	-173.0	-0.6227544910179642	-449.0	-539.0	2.035791263267812	1.332717579264274	-92.0	8.846562239458576	-170.0	
9.71262837579153	2011.0	0.011266655828712197	2051.0	1267.0	0.699648588870419	9.770692826486817	-15936.0	0.07847946045370938	-128.0	832.0	0.510116492949111	0.0	51919.0	3584.442138671875	750.0	-0.3282608695652174	1.1777777777777778	-174.0	-0.6387225548902197	-441.0	-506.0	1.7248363492326142	1.4344061019010041	-96.0	8.34777064791452	-150.0	
9.774061911154321	2008.0	0.09465198344113282	2044.0	1262.0	0.7372413558134242	9.809932556713672	-16000.0	0.23543838136112813	-384.0	832.0	0.510116492949111	0.0	52559.0	3603.973388671875	747.0	-0.3347826086956522	1.185858585858586	-170.0	-0.6147704590818364	-453.0	-471.0	1.8804404906859655	2.179501512979421	-145.0	7.813895214865004	-160.0	
9.84868034686741	2018.0	0.1199395159898746	2042.0	1256.0	0.6177584877851992	9.927651747394236	-16192.0	0.3139178418148375	-512.0	640.0	0.39239730226854685	0.0	53199.0	3623.504638671875	754.0	-0.31956521739130433	1.185858585858586	-170.0	-0.5908183632734532	-465.0	-431.0	4.072138187148817	2.486076562761715	-174.0	7.183613218888969	-303.0	
9.738474474193989	2018.0	0.07339449581703417	2046.0	1265.0	0.6161909788567366	9.809932556713672	-16000.0	0.23543838136112813	-384.0	832.0	0.510116492949111	0.0	53839.0	3643.035888671875	750.0	-0.3282608695652174	1.1797979797979798	-173.0	-0.5928143712574852	-464.0	-473.0	3.269000714001398	2.8762436900493187	-198.0	7.83042786358242	-250.0	
9.7518618592555	2013.0	0.2548097975696253	2031.0	1264.0	0.6783799695802992	9.927651747394236	-16192.0	0.3139178418148375	-512.0	896.0	0.5493562231759657	0.0	54479.0	3662.567138671875	754.0	-0.31956521739130433	1.185858585858586	-170.0	-0.5908183632734532	-465.0	-535.0	2.2655053027144993	2.8783833319999275	-196.0	8.783428597162969	-184.0	
9.811864608395181	2018.0	0.0962976783720981	2044.0	1259.0	0.617153912024299	9.888412017167381	-16128.0	0.15695892090741875	-256.0	576.0	0.3531575720416922	0.0	55119.0	3682.098388671875	748.0	-0.33260869565217394	1.1696969696969697	-178.0	-0.6207584830339322	-450.0	-524.0	0.33509240389495426	1.8500167926130708	-118.0	8.635432345923029	-59.0	
9.994493085517183	2017.0	0.08017572171892307	2045.0	1244.0	0.6308671700000716	10.123850398528509	-16512.0	0.23543838136112813	-384.0	704.0	0.4316370324954016	0.0	55759.0	3701.629638671875	754.0	-0.31956521739130433	1.1717171717171717	-177.0	-0.594810379241517	-463.0	-498.0	0.03719998868534912	1.6167025277396887	-100.0	8.24297400771771	-40.0	
9.726423109338656	2027.0	-0.0217353415563743	2054.0	1266.0	0.5066854318946902	9.731453096259962	-15872.0	0.15695892090741875	-256.0	576.0	0.3531575720416922	0.0	56399.0	3721.160888671875	752.0	-0.3239130434782609	1.1898989898989898	-168.0	-0.6207584830339322	-450.0	-403.0	2.400722922966146	1.5249885120679547	-101.0	6.774471858222811	-195.0	
9.822728688550225	2018.0	-0.03804124972482903	2055.0	1258.0	0.6159191635448803	9.809932556713672	-16000.0	0.11771919068056406	-192.0	640.0	0.39239730226854685	0.0	57039.0	3740.692138671875	753.0	-0.32173913043478264	1.183838383838384	-171.0	-0.5988023952095809	-461.0	-419.0	-0.04151580743239141	1.0855343374744733	-61.0	7.042240253131358	-36.0	
9.774081340170346	2017.0	-0.012914318626757681	2053.0	1262.0	0.6277321521431466	9.888412017167381	-16128.0	0.15695892090741875	-256.0	704.0	0.4316370324954016	0.0	57679.0	3760.223388671875	755.0	-0.3173913043478261	1.1656565656565656	-180.0	-0.6307385229540919	-445.0	-381.0	-0.025430854286960097	1.737217852879274	-103.0	6.464132635539068	-37.0	
9.835900636223172	2025.0	-0.024428176743247487	2054.0	1257.0	0.5318496643538353	9.849172286940528	-16064.0	0.07847946045370938	-128.0	576.0	0.3531575720416922	0.0	58319.0	3779.754638671875	753.0	-0.32173913043478264	1.1898989898989898	-168.0	-0.62874251497006	-446.0	-332.0	1.241888353261486	1.8287473594467203	-113.0	5.70621229517461	-120.0	
9.884054505218733	2021.0	-0.038557036497913255	2055.0	1253.0	0.5803826855305816	10.0453709380748	-16384.0	0.07847946045370938	-128.0	576.0	0.3531575720416922	0.0	58959.0	3799.285888671875	749.0	-0.33043478260869563	1.1777777777777778	-174.0	-0.6526946107784432	-434.0	-260.0	1.4903152583109798	1.6753490832465856	-101.0	4.608670991903582	-137.0	
9.83590279500273	2026.0	-0.03637998808412424	2055.0	1257.0	0.5196819750571378	9.770692826486817	-15936.0	0.0	0.0	448.0	0.27467811158798283	0.0	59599.0	3818.817138671875	757.0	-0.3130434782608696	1.1757575757575758	-175.0	-0.6207584830339322	-450.0	-234.0	2.9594719520754342	1.64888328284738	-105.0	4.198542162608524	-233.0	
9.726412315440864	2022.0	0.03802371514800931	2049.0	1266.0	0.5675238783781777	9.809932556713672	-16000.0	0.19619865113427343	-320.0	576.0	0.3531575720416922	0.0	60239.0	3838.348388671875	753.0	-0.32173913043478264	1.1898989898989898	-168.0	-0.6167664670658684	-452.0	-241.0	3.287962905371306	2.161491892297441	-141.0	4.301721131402561	-254.0	
9.922811779534856	2026.0	0.12036968585939178	2042.0	1250.0	0.5221185616418942	10.006131207847945	-16320.0	0.23543838136112813	-384.0	576.0	0.3531575720416922	0.0	60879.0	3857.879638671875	758.0	-0.3108695652173913	1.183838383838384	-171.0	-0.6127744510978045	-454.0	-173.0	1.9898852730401342	2.3081994205485925	-142.0	3.280481375406481	-170.0	
9.935623871872462	2034.0	0.085460208479363	2045.0	1249.0	0.42551204562279527	10.006131207847945	-16320.0	0.23543838136112813	-384.0	384.0	0.23543838136112813	0.0	61519.0	3877.410888671875	757.0	-0.3130434782608696	1.1737373737373737	-176.0	-0.6307385229540919	-445.0	-50.0	2.541955799367472	2.5994767729727535	-159.0	1.4042382366831316	-207.0	
9.838327016333146	2031.0	0.1476658820163823	2040.0	1257.0	0.4613057121160253	9.966891477621092	-16256.0	0.19619865113427343	-320.0	448.0	0.27467811158798283	0.0	62159.0	3896.942138671875	755.0	-0.3173913043478261	1.185858585858586	-170.0	-0.6327345309381238	-444.0	-107.0	2.731019717132095	2.2218060357539153	-137.0	2.2692677495967404	-219.0	
9.96071571913132	2027.0	0.24177192919849208	2032.0	1247.0	0.5116634307001654	10.0453709380748	-16384.0	0.39239730226854685	-640.0	576.0	0.3531575720416922	0.0	62799.0	3916.473388671875	759.0	-0.30869565217391304	1.185858585858586	-170.0	-0.6027944111776448	-459.0	-59.0	1.4707852434661854	1.2442671024204164	-64.0	1.5518320715197107	-138.0	
10.04665285635172	2024.0	0.33685506644268226	2024.0	1240.0	0.5496182117580644	10.0453709380748	-16384.0	0.6670754138565297	-1088.0	512.0	0.3139178418148375	0.0	63439.0	3936.004638671875	758.0	-0.3108695652173913	1.1676767676767676	-179.0	-0.6307385229540919	-445.0	-70.0	0.8256899423120518	1.027601156453478	-47.0	1.725583404759389	-96.0	
9.961685407663486	2029.0	0.3153902772386947	2026.0	1247.0	0.48831292552372046	10.0453709380748	-16384.0	0.4316370324954016	-704.0	256.0	0.15695892090741875	0.0	64079.0	3955.535888671875	754.0	-0.31956521739130433	1.1898989898989898	-168.0	-0.6327345309381238	-444.0	9.0	1.3659963975612786	1.008071656173781	-45.0	0.5186594276593682	-132.0	
9.888551727662465	2036.0	0.23320490797798277	2033.0	1253.0	0.4024223856335128	10.006131207847945	-16320.0	0.3531575720416922	-576.0	384.0	0.23543838136112813	0.0	64719.0	3975.067138671875	757.0	-0.3130434782608696	1.1898989898989898	-168.0	-0.6087824351297406	-456.0	-7.0	1.5468316779719435	0.43102904167235656	-8.0	0.7601970824598244	-144.0	
9.83832053999447	2028.0	0.1835213160390125	2037.0	1257.0	0.49780878000611783	9.927651747394236	-16192.0	0.27467811158798283	-448.0	576.0	0.3531575720416922	0.0	65359.0	3994.598388671875	756.0	-0.31521739130434784	1.1737373737373737	-176.0	-0.6147704590818364	-453.0	-106.0	-0.040512863008228484	-0.19338258382321988	37.0	2.281773949922858	-40.0	
9.888659446356746	2030.0	0.3171060223634876	2026.0	1253.0	0.4755516305908167	9.927651747394236	-16192.0	0.3531575720416922	-576.0	384.0	0.23543838136112813	0.0	463.0	4014.129638671875	757.0	-0.3130434782608696	1.185858585858586	-170.0	-0.6227544910179642	-449.0	-170.0	0.8975822771270439	0.5569633468498135	-20.0	3.2457770289397563	-100.0	
9.778225183617414	2036.0	0.17446964146489785	2038.0	1262.0	0.40073176752793144	9.888412017167381	-16128.0	0.3139178418148375	-512.0	320.0	0.19619865113427343	0.0	1103.0	4033.660888671875	760.0	-0.3065217391304348	1.1818181818181819	-172.0	-0.6247504990019961	-448.0	-174.0	1.0667228824263635	0.5277651968968091	-19.0	3.304922124787904	-111.0	
9.851615317818606	2036.0	0.19737282401996178	2036.0	1256.0	0.401694700695494	9.927651747394236	-16192.0	0.27467811158798283	-448.0	320.0	0.19619865113427343	0.0	1743.0	4053.192138671875	758.0	-0.3108695652173913	1.1797979797979798	-173.0	-0.6307385229540919	-445.0	-192.0	-0.11564374375164208	0.19430974253719283	8.0	3.5905100496048172	-34.0	
9.778822064136895	2033.0	0.27127630718875057	2030.0	1262.0	0.43785038130361775	9.927651747394236	-16192.0	0.39239730226854685	-640.0	256.0	0.15695892090741875	0.0	2383.0	4072.723388671875	757.0	-0.3130434782608696	1.187878787878788	-169.0	-0.6347305389221558	-443.0	-172.0	0.43806409386582124	0.6177140898630236	-22.0	3.2807904617229395	-70.0	
9.681432601360203	2043.0	0.16591818695412794	2039.0	1270.0	0.31534097776266135	9.731453096259962	-15872.0	0.3531575720416922	-576.0	128.0	0.07847946045370938	0.0	3023.0	4092.254638671875	756.0	-0.31521739130434784	1.183838383838384	-171.0	-0.6087824351297406	-456.0	-74.0	3.1370081910489667	1.8837902011379064	-115.0	1.7633067241731606	-246.0	
9.778957846965433	2040.0	0.19980387414285802	2036.0	1262.0	0.3527996654038539	9.849172286940528	-16064.0	0.3531575720416922	-576.0	256.0	0.15695892090741875	0.0	3663.0	4111.785888671875	759.0	-0.30869565217391304	1.1777777777777778	-174.0	-0.6467065868263474	-437.0	-64.0	1.8012315006932214	1.9828439089767804	-115.0	1.6245732363238665	-159.0	
9.754566281361226	2036.0	0.2481035562148399	2032.0	1264.0	0.40123151765286896	9.809932556713672	-16000.0	0.510116492949111	-832.0	256.0	0.15695892090741875	0.0	4303.0	4131.317138671875	758.0	-0.3108695652173913	1.1818181818181819	-172.0	-0.6347305389221558	-443.0	-89.0	0.9592472805199682	1.8163418327517906	-101.0	2.0132212154077282	-104.0	
9.779069883218833	2036.0	0.2598013658466094	2031.0	1262.0	0.40159353176776275	9.888412017167381	-16128.0	0.3531575720416922	-576.0	320.0	0.19619865113427343	0.0	4943.0	4150.848388671875	762.0	-0.30217391304347824	1.1717171717171717	-177.0	-0.6127744510978045	-454.0	-91.0	1.037572245231046	1.9446062189030102	-110.0	2.0428562167111872	-109.0	
9.717877690599302	2039.0	0.2007965309146778	2036.0	1267.0	0.3642469831789951	9.809932556713672	-16000.0	0.23543838136112813	-384.0	256.0	0.15695892090741875	0.0	5583.0	4170.379638671875	760.0	-0.3065217391304348	1.1595959595959595	-183.0	-0.6147704590818364	-453.0	-161.0	0.9063062419212474	1.5663291951956773	-87.0	3.108807660014248	-100.0	
9.66862266780215	2036.0	0.18887585299328	2037.0	1271.0	0.3997798044850626	9.692213366033108	-15808.0	0.27467811158798283	-448.0	256.0	0.15695892090741875	0.0	6223.0	4189.910888671875	757.0	-0.3130434782608696	1.1656565656565656	-180.0	-0.6866267465069861	-417.0	-150.0	0.01695392146415566	1.8148301768861275	-99.0	2.950400802990682	-42.0	
9.717134233353493	2030.0	0.23522135494110127	2033.0	1267.0	0.47301753178656025	9.770692826486817	-15936.0	0.3531575720416922	-576.0	448.0	0.27467811158798283	0.0	6863.0	4209.442138671875	760.0	-0.3065217391304348	1.185858585858586	-170.0	-0.6207584830339322	-450.0	-192.0	-0.8815011946678726	1.8817963296666895	-101.0	3.598168624113979	17.0	
9.754432657312245	2030.0	0.3076241779198557	2027.0	1264.0	0.4741145442559353	9.809932556713672	-16000.0	0.3139178418148375	-512.0	448.0	0.27467811158798283	0.0	7503.0	4228.973388671875	757.0	-0.3130434782608696	1.1636363636363636	-181.0	-0.658682634730539	-431.0	-162.0	-1.0990976839667472	2.0651170333734927	-111.0	3.144070824748413	31.0	
9.888775800169261	2028.0	0.3531998913854855	2023.0	1253.0	0.5000101183613305	9.927651747394236	-16192.0	0.47087676272225626	-768.0	384.0	0.23543838136112813	0.0	8143.0	4248.504638671875	759.0	-0.30869565217391304	1.1797979797979798	-173.0	-0.6427145708582835	-439.0	-170.0	-0.5715294395275261	2.5182839870965874	-144.0	3.2604681461063016	-3.0	
9.851600206361699	2029.0	0.28103550340609884	2029.0	1256.0	0.48686852577237666	9.927651747394236	-16192.0	0.4316370324954016	-704.0	448.0	0.27467811158798283	0.0	8783.0	4268.035888671875	759.0	-0.30869565217391304	1.185858585858586	-170.0	-0.6167664670658684	-452.0	-160.0	0.8546995890169347	2.5600346306331407	-153.0	3.094114601068006	-96.0	
9.90145642723745	2031.0	0.36585922436959595	2022.0	1252.0	0.46411893964860046	9.966891477621092	-16256.0	0.4316370324954016	-704.0	384.0	0.23543838136112813	0.0	9423.0	4287.567138671875	764.0	-0.29782608695652174	1.1656565656565656	-180.0	-0.6487025948103793	-436.0	-144.0	-0.18920146545619984	2.7773565180617865	-162.0	2.8612076040081744	-28.0	
9.937065451993364	2031.0	0.2675985985849273	2030.0	1249.0	0.4634924236383129	10.0453709380748	-16384.0	0.3139178418148375	-512.0	512.0	0.3139178418148375	0.0	10063.0	4307.098388671875	760.0	-0.3065217391304348	1.1818181818181819	-172.0	-0.656686626746507	-432.0	-171.0	-0.38868796906310965	2.3700173220001197	-135.0	3.2738488568769433	-15.0	
9.986079132047253	2034.0	0.25513878382583605	2031.0	1245.0	0.4277133839780079	10.006131207847945	-16320.0	0.3139178418148375	-512.0	448.0	0.27467811158798283	0.0	10703.0	4326.629638671875	761.0	-0.30434782608695654	1.1595959595959595	-183.0	-0.6706586826347306	-425.0	-229.0	-0.5229031164088587	1.879305908960818	-104.0	4.15732028591694	-6.0	
9.925483819947207	2034.0	0.29294061461775717	2028.0	1250.0	0.42748544916492665	9.966891477621092	-16256.0	0.4316370324954016	-704.0	384.0	0.23543838136112813	0.0	11343.0	4346.160888671875	762.0	-0.30217391304347824	1.1696969696969697	-178.0	-0.6307385229540919	-445.0	-241.0	0.45651972999324325	1.4140326011718205	-78.0	4.330035563156342	-70.0	
9.864530811291383	2036.0	0.2702680837071913	2030.0	1255.0	0.40255280822709405	9.927651747394236	-16192.0	0.3139178418148375	-512.0	320.0	0.19619865113427343	0.0	11983.0	4365.692138671875	758.0	-0.3108695652173913	1.187878787878788	-169.0	-0.6427145708582835	-439.0	-216.0	-0.41333925257642956	0.755151228175784	-29.0	3.9585060160999093	-14.0	
9.912074847090116	2029.0	0.23104342627393326	2033.0	1251.0	0.48697335140833914	9.966891477621092	-16256.0	0.23543838136112813	-384.0	448.0	0.27467811158798283	0.0	12623.0	4385.223388671875	761.0	-0.30434782608695654	1.1656565656565656	-180.0	-0.62874251497006	-446.0	-233.0	-1.429841429295062	0.14089490568653973	16.0	4.227226170946944	52.0	
9.900372543672328	2032.0	0.2441951959665186	2032.0	1252.0	0.4508432677578341	9.888412017167381	-16128.0	0.27467811158798283	-448.0	448.0	0.27467811158798283	0.0	13263.0	4404.754638671875	761.0	-0.30434782608695654	1.1696969696969697	-178.0	-0.6526946107784432	-434.0	-225.0	-0.705376437202477	0.575099182329017	-16.0	4.098308517223736	5.0	
9.851240351026364	2030.0	0.2325129530444886	2033.0	1256.0	0.47433150894432285	9.888412017167381	-16128.0	0.3139178418148375	-512.0	448.0	0.27467811158798283	0.0	13903.0	4424.285888671875	761.0	-0.30434782608695654	1.1919191919191918	-167.0	-0.6526946107784432	-434.0	-191.0	0.3191887850222718	0.7193764022341995	-29.0	3.5709525988417927	-62.0	
9.741764982921406	2033.0	0.2232539768904851	2034.0	1265.0	0.4369995871884803	9.770692826486817	-15936.0	0.39239730226854685	-640.0	384.0	0.23543838136112813	0.0	14543.0	4443.817138671875	766.0	-0.29347826086956524	1.183838383838384	-171.0	-0.6267465069860281	-447.0	-153.0	0.9448582246342118	0.938827739929657	-45.0	2.9867491363848373	-103.0	
9.802845139287538	2034.0	0.22226132011866528	2034.0	1260.0	0.42555226941333907	9.888412017167381	-16128.0	0.27467811158798283	-448.0	320.0	0.19619865113427343	0.0	15183.0	4463.348388671875	759.0	-0.30869565217391304	1.1737373737373737	-176.0	-0.6626746506986029	-429.0	-166.0	0.6777299393587138	1.654158799499602	-92.0	3.1871390504162993	-85.0	
9.815523607576166	2036.0	0.24687246444365232	2032.0	1259.0	0.40182877999730654	9.927651747394236	-16192.0	0.3139178418148375	-512.0	384.0	0.23543838136112813	0.0	15823.0	4482.879638671875	759.0	-0.30869565217391304	1.1737373737373737	-176.0	-0.6706586826347306	-425.0	-160.0	1.0352978869174116	2.2026374028923708	-130.0	3.092308618089001	-108.0	
9.766516403860951	2036.0	0.2234768451801134	2034.0	1263.0	0.40110475176751903	9.849172286940528	-16064.0	0.39239730226854685	-640.0	384.0	0.23543838136112813	0.0	16463.0	4502.410888671875	765.0	-0.2956521739130435	1.1777777777777778	-174.0	-0.6387225548902197	-441.0	-172.0	0.15535009720226037	1.5069562014221118	-80.0	3.283617601689575	-51.0	
9.875873259373833	2034.0	0.20859376365299567	2035.0	1254.0	0.4261458750495453	9.927651747394236	-16192.0	0.3531575720416922	-576.0	192.0	0.11771919068056406	0.0	17103.0	4521.942138671875	766.0	-0.29347826086956524	1.1676767676767676	-179.0	-0.656686626746507	-432.0	-192.0	-1.1513681087348375	0.9860363382500681	-40.0	3.6008672932546486	34.0	
9.887816905534887	2031.0	0.21982248664089932	2034.0	1253.0	0.4625221770542879	9.927651747394236	-16192.0	0.3531575720416922	-576.0	576.0	0.3531575720416922	0.0	17743.0	4541.473388671875	762.0	-0.30217391304347824	1.1898989898989898	-168.0	-0.6487025948103793	-436.0	-165.0	-0.14231707844852295	1.0071947607960783	-45.0	3.1801303951190865	-32.0	
9.765915205782353	2037.0	0.1505738021380141	2040.0	1263.0	0.3883215165852277	9.849172286940528	-16064.0	0.3139178418148375	-512.0	320.0	0.19619865113427343	0.0	18383.0	4561.004638671875	763.0	-0.3	1.185858585858586	-170.0	-0.6267465069860281	-447.0	-121.0	0.8286362337723113	0.546594366154484	-17.0	2.50121934108433	-96.0	
9.777744656910448	2037.0	0.11375684476304312	2043.0	1262.0	0.38807164152275886	9.849172286940528	-16064.0	0.23543838136112813	-384.0	192.0	0.11771919068056406	0.0	19023.0	4580.535888671875	761.0	-0.30434782608695654	1.1696969696969697	-178.0	-0.658682634730539	-431.0	-161.0	-0.28542769144901925	0.5698136070931805	-15.0	3.1207249993479507	-23.0	
9.753105272224301	2030.0	0.17353146817716614	2038.0	1264.0	0.472760343307629	9.849172286940528	-16064.0	0.3139178418148375	-512.0	320.0	0.19619865113427343	0.0	19663.0	4600.067138671875	762.0	-0.30217391304347824	1.1595959595959595	-183.0	-0.6786427145708583	-421.0	-161.0	0.14850208825534794	0.9893872068695346	-45.0	3.1163857015509073	-51.0	
9.826626871694915	2035.0	0.14886584036809095	2040.0	1258.0	0.4130079391688227	9.927651747394236	-16192.0	0.3139178418148375	-512.0	256.0	0.15695892090741875	0.0	20303.0	4619.598388671875	765.0	-0.2956521739130435	1.185858585858586	-170.0	-0.6307385229540919	-445.0	-84.0	-0.7235502424971084	0.9020236068281468	-32.0	1.954003563261473	5.0	
9.88733637882792	2032.0	0.15910968993904454	2039.0	1253.0	0.4498620510491153	10.006131207847945	-16320.0	0.27467811158798283	-448.0	448.0	0.27467811158798283	0.0	20943.0	4639.129638671875	760.0	-0.3065217391304348	1.1737373737373737	-176.0	-0.6706586826347306	-425.0	-90.0	-0.9841526833584184	0.8415488278573957	-27.0	2.0478643405217976	22.0	
9.814075551116591	2036.0	0.10058950836071825	2044.0	1259.0	0.40035146987188147	9.809932556713672	-16000.0	0.19619865113427343	-320.0	448.0	0.27467811158798283	0.0	21583.0	4658.660888671875	764.0	-0.29782608695652174	1.1818181818181819	-172.0	-0.6407185628742516	-440.0	-92.0	0.07648840960957116	0.9764065302225639	-41.0	2.067676180542688	-47.0	
9.777024946239775	2039.0	0.016711744039822618	2051.0	1262.0	0.3629976078666513	9.927651747394236	-16192.0	0.19619865113427343	-320.0	256.0	0.15695892090741875	0.0	22223.0	4678.192138671875	761.0	-0.30434782608695654	1.1595959595959595	-183.0	-0.6786427145708583	-421.0	-102.0	-0.5707002583164312	0.5655920988763217	-11.0	2.2262393219747993	-5.0	
9.764598614592199	2042.0	-0.04327796430905906	2056.0	1263.0	0.32612886915343375	9.809932556713672	-16000.0	-0.03923973022685469	64.0	192.0	0.11771919068056406	0.0	22863.0	4697.723388671875	763.0	-0.3	1.1656565656565656	-180.0	-0.6626746506986029	-429.0	-49.0	-1.4581835186063268	0.10488164111944326	26.0	1.4290305043875844	52.0	
9.837861601083086	2039.0	0.0032904059283905274	2052.0	1257.0	0.3634717610339701	9.927651747394236	-16192.0	0.07847946045370938	-128.0	192.0	0.11771919068056406	0.0	23503.0	4717.254638671875	759.0	-0.30869565217391304	1.1919191919191918	-167.0	-0.656686626746507	-432.0	19.0	-1.8287945221922879	-0.6225577103888726	79.0	0.3985160821040522	75.0	
9.838842083513043	2046.0	0.017149697264209562	2051.0	1257.0	0.27928280937403754	9.927651747394236	-16192.0	0.11771919068056406	-192.0	0.0	0.0	0.0	24143.0	4736.785888671875	762.0	-0.30217391304347824	1.185858585858586	-170.0	-0.6307385229540919	-445.0	92.0	-2.1840489682661306	-1.2730615344643454	127.0	-0.708197533131027	97.0	
9.960174966880352	2056.0	-0.1657818313881554	2066.0	1247.0	0.15818489521034365	9.927651747394236	-16192.0	0.03923973022685469	-64.0	0.0	0.0	0.0	24783.0	4756.317138671875	760.0	-0.3065217391304348	1.1777777777777778	-174.0	-0.660678642714571	-430.0	94.0	-3.1208887381422645	-2.8408236649886707	236.0	-0.729247386382836	157.0	
