Device	Device	Device	Device	Device	Device	Device	Device	Device	Device	Device	Device	Device	Device	Device	Device	Device	Device	Device	Device	Device	Device	Device	Device	Device	Device	Device	
Low Noise Accelerometer X	Low Noise Accelerometer X	Low Noise Accelerometer Z	Low Noise Accelerometer Z	Low Noise Accelerometer Y	Low Noise Accelerometer Y	Wide Range Accelerometer X	Wide Range Accelerometer X	Wide Range Accelerometer Z	Wide Range Accelerometer Z	Wide Range Accelerometer Y	Wide Range Accelerometer Y	Event_Marker	Timestamp	Timestamp	Magnetometer Z	Magnetometer Z	Magnetometer X	Magnetometer X	Magnetometer Y	Magnetometer Y	Gyroscope Y	Gyroscope Y	Gyroscope Z	Gyroscope Z	Gyroscope X	Gyroscope X	
CAL	UNCAL	CAL	UNCAL	CAL	UNCAL	CAL	UNCAL	UNCAL	CAL	CAL	UNCAL	CAL	CAL	UNCAL	CAL	UNCAL	CAL	UNCAL	UNCAL	CAL	UNCAL	CAL	CAL	UNCAL	CAL	UNCAL	
m/(s^2)	no units	m/(s^2)	no units	m/(s^2)	no units	m/(s^2)	no units	no units	m/(s^2)	m/(s^2)	no units	no units	ms	no units	local_flux	no units	local_flux	no units	no units	local_flux	no units	deg/s	deg/s	no units	deg/s	no units	
9.604528282435329	1921.0	-1.1909228606384432	2148.0	1.7708830421697757	1274.0	9.652973635806253	-15744.0	1600.0	-0.9809932556713672	1.648068669527897	2688.0	0.0	687.896728515625	22541.0	-0.3934782608695652	720.0	1.1656565656565656	-180.0	-528.0	-0.4650698602794412	-327.0	1.0839146656416145	-3.149719594925816	220.0	5.631746404674383	-113.0	
9.544544962311669	1925.0	-1.1399770435088066	2144.0	1.722599896055498	1279.0	9.692213366033108	-15808.0	1536.0	-0.9417535254445125	1.6873083997547516	2752.0	0.0	707.427978515625	23181.0	-0.391304347826087	721.0	1.1737373737373737	-176.0	-533.0	-0.45508982035928147	-371.0	2.7168034277096345	-3.2151741948616226	215.0	6.28461903796625	-219.0	
9.519541404731072	1917.0	-1.1048213477745403	2141.0	1.8190869596057093	1281.0	9.652973635806253	-15744.0	1600.0	-0.9809932556713672	1.7265481299816063	2816.0	0.0	726.959228515625	23821.0	-0.391304347826087	721.0	1.183838383838384	-171.0	-542.0	-0.43712574850299407	-378.0	2.273201881957593	-3.1735655786622345	214.0	6.395518931750767	-190.0	
9.47053851857497	1919.0	-1.1521205897198326	2145.0	1.794027552782527	1285.0	9.574494175352545	-15616.0	1600.0	-0.9809932556713672	1.6873083997547516	2752.0	0.0	746.490478515625	24461.0	-0.3869565217391304	723.0	1.1737373737373737	-176.0	-553.0	-0.41516966067864275	-340.0	1.3341991454815025	-2.875198065007302	200.0	5.826962191054692	-129.0	
9.517852005528233	1917.0	-1.2754847965379634	2155.0	1.8173634311260467	1281.0	9.613733905579398	-15680.0	1792.0	-1.0987124463519313	1.5695892090741874	2560.0	0.0	766.021728515625	25101.0	-0.3934782608695652	720.0	1.1656565656565656	-180.0	-534.0	-0.45309381237524954	-325.0	1.4766351015469645	-2.2163159673467456	156.0	5.597400949364759	-138.0	
9.347652018833365	1916.0	-1.2113249428767834	2150.0	1.8283512225667942	1295.0	9.496014714898834	-15488.0	1728.0	-1.0594727161250765	1.6873083997547516	2752.0	0.0	785.552978515625	25741.0	-0.3891304347826087	722.0	1.1757575757575758	-175.0	-558.0	-0.4051896207584831	-271.0	4.177204638281587	-1.4568811674411775	95.0	4.749102478332013	-314.0	
9.42127270188003	1911.0	-1.1042822109368469	2141.0	1.8903988205720819	1289.0	9.496014714898834	-15488.0	1536.0	-0.9417535254445125	1.765787860208461	2880.0	0.0	805.084228515625	26381.0	-0.39565217391304347	719.0	1.1777777777777778	-174.0	-546.0	-0.42914171656686634	-177.0	2.6060093415677774	-0.6006844905890311	49.0	3.3351566366223455	-212.0	
9.482954056324758	1911.0	-1.0323718246665674	2135.0	1.891734737979232	1284.0	9.496014714898834	-15488.0	1344.0	-0.8240343347639485	1.8050275904353157	2944.0	0.0	824.615478515625	27021.0	-0.3847826086956522	724.0	1.1717171717171717	-177.0	-551.0	-0.4191616766467066	-134.0	1.5187497143426163	0.2957511739340053	-4.0	2.692036837457335	-141.0	
9.507709794823418	1916.0	-1.0560525790586925	2137.0	1.8315045239648757	1282.0	9.652973635806253	-15744.0	1280.0	-0.7847946045370937	1.7265481299816063	2816.0	0.0	844.146728515625	27661.0	-0.391304347826087	721.0	1.183838383838384	-171.0	-546.0	-0.42914171656686634	-153.0	1.7514266354722015	0.25300542111404345	-3.0	2.9786834522764574	-156.0	
9.531724234855826	1913.0	-1.0572603207652709	2137.0	1.867877169261387	1280.0	9.53525444512569	-15552.0	1472.0	-0.9025137952176578	1.6873083997547516	2752.0	0.0	863.677978515625	28301.0	-0.3782608695652174	727.0	1.1737373737373737	-176.0	-545.0	-0.43113772455089827	-241.0	0.90404562125456	0.12351448429745412	6.0	4.325560304243728	-100.0	
9.495139045229072	1908.0	-0.9967626089981747	2132.0	1.928357258338212	1283.0	9.613733905579398	-15680.0	1344.0	-0.8240343347639485	1.8050275904353157	2944.0	0.0	883.209228515625	28941.0	-0.3804347826086957	726.0	1.1777777777777778	-174.0	-537.0	-0.44710578842315374	-296.0	2.1593091035622787	0.49744069357136533	-27.0	5.149509570561336	-181.0	
9.531592769586403	1908.0	-1.0096915104011317	2133.0	1.9285925065677558	1280.0	9.652973635806253	-15744.0	1344.0	-0.8240343347639485	1.9227467811158798	3136.0	0.0	902.740478515625	29581.0	-0.3847826086956522	724.0	1.187878787878788	-169.0	-541.0	-0.439121756487026	-261.0	1.5434199691360002	0.8314644204591005	-45.0	4.623349070270617	-141.0	
9.60390333778159	1911.0	-1.1323559789308986	2143.0	1.8919443892511572	1274.0	9.574494175352545	-15616.0	1472.0	-0.9025137952176578	1.765787860208461	2880.0	0.0	922.271728515625	30221.0	-0.3804347826086957	726.0	1.1696969696969697	-178.0	-551.0	-0.4191616766467066	-233.0	-0.6392660226871544	0.9254510672816817	-40.0	4.219320416880864	1.0	
9.665345508262615	1912.0	-1.0967778966819848	2140.0	1.880866399007372	1269.0	9.692213366033108	-15808.0	1664.0	-1.020232985898222	1.8442673206621703	3008.0	0.0	941.802978515625	30861.0	-0.3869565217391304	723.0	1.1797979797979798	-173.0	-535.0	-0.4510978043912176	-222.0	1.185728554263655	0.9550484974162902	-50.0	4.033770090883219	-118.0	
9.641568093414351	1913.0	-1.047286039613164	2136.0	1.8690753506584932	1271.0	9.770692826486817	-15936.0	1344.0	-0.8240343347639485	1.765787860208461	2880.0	0.0	961.334228515625	31501.0	-0.3891304347826087	722.0	1.183838383838384	-171.0	-555.0	-0.4111776447105789	-226.0	2.120370203759774	0.7376389410540554	-40.0	4.085260176289398	-179.0	
9.605353553020723	1912.0	-0.9980248341888412	2132.0	1.8812540100798847	1274.0	9.692213366033108	-15808.0	1216.0	-0.745554874310239	1.8442673206621703	3008.0	0.0	980.865478515625	32141.0	-0.3739130434782609	729.0	1.187878787878788	-169.0	-552.0	-0.4171656686626747	-233.0	-0.018988529848330892	0.027707040136921296	17.0	4.213117641952476	-40.0	
9.641695241124658	1916.0	-1.0709512272955495	2138.0	1.8326953919455196	1271.0	9.849172286940528	-16064.0	1344.0	-0.8240343347639485	1.765787860208461	2880.0	0.0	1000.396728515625	32781.0	-0.3804347826086957	726.0	1.1656565656565656	-180.0	-541.0	-0.439121756487026	-236.0	-1.7125103737746992	-0.5459041069966307	63.0	4.275680236817595	70.0	
9.640479892290111	1912.0	-1.1450464453344877	2144.0	1.8801350573611222	1271.0	9.731453096259962	-15872.0	1408.0	-0.8632740649908032	1.765787860208461	2880.0	0.0	1019.927978515625	33421.0	-0.3826086956521739	725.0	1.1676767676767676	-179.0	-545.0	-0.43113772455089827	-266.0	-1.101844870485287	-1.3262975565059607	111.0	4.725847346043256	30.0	
9.653035530427553	1913.0	-1.1206737360088685	2142.0	1.8684561480646682	1270.0	9.770692826486817	-15936.0	1408.0	-0.8632740649908032	1.7265481299816063	2816.0	0.0	1039.459228515625	34061.0	-0.3739130434782609	729.0	1.187878787878788	-169.0	-557.0	-0.407185628742515	-260.0	1.2864040519827529	-1.8336970776025645	134.0	4.6107101039668645	-126.0	
9.604028326712337	1913.0	-1.1440693552724075	2144.0	1.8677321198348809	1274.0	9.652973635806253	-15744.0	1472.0	-0.9025137952176578	1.8050275904353157	2944.0	0.0	1058.990478515625	34701.0	-0.3847826086956522	724.0	1.1777777777777778	-174.0	-540.0	-0.44111776447105794	-200.0	1.672367441189148	-2.2288558295500454	161.0	3.6943029415576905	-152.0	
9.653024736529762	1908.0	-1.060914679304485	2137.0	1.9292945945481559	1270.0	9.809932556713672	-16000.0	1344.0	-0.8240343347639485	1.8442673206621703	3008.0	0.0	1078.521728515625	35341.0	-0.3869565217391304	723.0	1.1898989898989898	-168.0	-545.0	-0.43113772455089827	-177.0	0.1064370422662885	-1.925964633370241	149.0	3.3601523596153604	-50.0	
9.689719803630357	1908.0	-1.0494630880269529	2136.0	1.9297760611319372	1267.0	9.692213366033108	-15808.0	1472.0	-0.9025137952176578	1.8050275904353157	2944.0	0.0	1098.052978515625	35981.0	-0.3782608695652174	727.0	1.1777777777777778	-174.0	-545.0	-0.43113772455089827	-161.0	0.949584479922009	-1.7800113060012595	136.0	3.1083748776342404	-105.0	
9.580117287815094	1908.0	-1.0350568764985708	2135.0	1.9288240980890683	1276.0	9.692213366033108	-15808.0	1280.0	-0.7847946045370937	1.8442673206621703	3008.0	0.0	1117.584228515625	36621.0	-0.3847826086956522	724.0	1.1757575757575758	-175.0	-533.0	-0.45508982035928147	-139.0	2.2805428372873253	-1.8742544810037605	137.0	2.7604645336043134	-192.0	
9.59254577824223	1906.0	-0.9870189794905658	2131.0	1.9535251475055884	1275.0	9.692213366033108	-15808.0	1408.0	-0.8632740649908032	1.883507050889025	3072.0	0.0	1137.115478515625	37261.0	-0.3847826086956522	724.0	1.1717171717171717	-177.0	-549.0	-0.42315369261477054	-137.0	2.1885287503625177	-1.836648563019519	135.0	2.7309664235229913	-186.0	
9.519157802820594	1907.0	-1.0218739733865065	2134.0	1.9403945250413284	1281.0	9.574494175352545	-15616.0	1280.0	-0.7847946045370937	1.883507050889025	3072.0	0.0	1156.646728515625	37901.0	-0.3826086956521739	725.0	1.183838383838384	-171.0	-549.0	-0.42315369261477054	-146.0	1.8724090487345666	-1.3553543007654125	104.0	2.871009749816837	-165.0	
9.53147641577389	1910.0	-1.0457853794231298	2136.0	1.904134018797242	1280.0	9.613733905579398	-15680.0	1472.0	-0.9025137952176578	1.8442673206621703	3008.0	0.0	1176.177978515625	38541.0	-0.3826086956521739	725.0	1.1898989898989898	-168.0	-544.0	-0.4331337325349302	-93.0	1.6848275316221635	-0.8902651762192584	76.0	2.066801914797847	-153.0	
9.482105039164223	1909.0	-1.0937999263665255	2140.0	1.9152083523327956	1284.0	9.574494175352545	-15616.0	1344.0	-0.8240343347639485	1.765787860208461	2880.0	0.0	1195.709228515625	39181.0	-0.3760869565217391	728.0	1.1797979797979798	-173.0	-530.0	-0.4610778443113773	15.0	1.3639793975103105	-0.6373131828024562	65.0	0.4274248448081669	-133.0	
9.543301549342868	1908.0	-1.0586987141163473	2137.0	1.9282195223281682	1279.0	9.692213366033108	-15808.0	1408.0	-0.8632740649908032	1.8442673206621703	3008.0	0.0	1215.240478515625	39821.0	-0.3695652173913044	731.0	1.183838383838384	-171.0	-556.0	-0.40918163672654695	155.0	0.17614599109798373	-0.6493789200320725	77.0	-1.6899743876676339	-57.0	
9.957087339374679	1908.0	-1.1402116162018898	2143.0	1.931542251207631	1245.0	10.084610668301655	-16448.0	1536.0	-0.9417535254445125	1.883507050889025	3072.0	0.0	1234.771728515625	40461.0	-0.3826086956521739	725.0	1.1777777777777778	-174.0	-543.0	-0.43512974051896214	239.0	0.2748453476975543	-0.24532564369942197	53.0	-2.968527921157584	-64.0	
9.469060239201582	1905.0	-1.1310781870304925	2143.0	1.9628978928108671	1285.0	9.53525444512569	-15552.0	1472.0	-0.9025137952176578	1.9619865113427344	3200.0	0.0	1254.302978515625	41101.0	-0.3826086956521739	725.0	1.1757575757575758	-175.0	-549.0	-0.42315369261477054	188.0	3.4282586080158537	1.2283081084473253	-62.0	-2.2243966545212235	-268.0	
9.567068170293338	1902.0	-1.0484315144807845	2136.0	2.000849017160535	1277.0	9.770692826486817	-15936.0	1344.0	-0.8240343347639485	1.9227467811158798	3136.0	0.0	1273.834228515625	41741.0	-0.3739130434782609	729.0	1.1777777777777778	-174.0	-544.0	-0.4331337325349302	86.0	4.5643873748085335	1.2520978555687765	-73.0	-0.6844271437100625	-341.0	
9.61643522934389	1901.0	-0.9765133448556353	2130.0	2.014110062218376	1273.0	9.731453096259962	-15872.0	1280.0	-0.7847946045370937	1.9227467811158798	3136.0	0.0	1293.365478515625	42381.0	-0.3739130434782609	729.0	1.1757575757575758	-175.0	-536.0	-0.44910179640718567	-20.0	4.037065132042457	0.6246126417250488	-33.0	0.9330133790978264	-306.0	
9.604855756077292	1905.0	-0.9631231401636822	2129.0	1.9659353984482921	1274.0	9.652973635806253	-15744.0	1280.0	-0.7847946045370937	1.9619865113427344	3200.0	0.0	1312.896728515625	43021.0	-0.3717391304347826	730.0	1.183838383838384	-171.0	-559.0	-0.40319361277445115	-57.0	3.7654985351859773	0.5310491486740821	-27.0	1.4984666876519428	-288.0	
9.70250599061327	1904.0	-0.940950829316461	2127.0	1.9791818166732085	1266.0	9.849172286940528	-16064.0	1152.0	-0.7063151440833844	1.883507050889025	3072.0	0.0	1332.427978515625	43661.0	-0.3804347826086957	726.0	1.1676767676767676	-179.0	-530.0	-0.4610778443113773	-55.0	2.621730863526401	-0.2427006049835668	30.0	1.479486113417968	-214.0	
9.690060229949669	1898.0	-0.8933742355974522	2123.0	2.0518222816302685	1267.0	9.770692826486817	-15936.0	1344.0	-0.8240343347639485	1.9227467811158798	3136.0	0.0	1351.959228515625	44301.0	-0.3782608695652174	727.0	1.1919191919191918	-167.0	-543.0	-0.43512974051896214	-111.0	3.297837100454655	-1.0134812125522052	76.0	2.324436077664655	-258.0	
9.494882591028901	1901.0	-0.9374804222925266	2127.0	2.0132848650608572	1283.0	9.652973635806253	-15744.0	1216.0	-0.745554874310239	1.9619865113427344	3200.0	0.0	1371.490478515625	44941.0	-0.3782608695652174	727.0	1.1676767676767676	-179.0	-549.0	-0.42315369261477054	-151.0	4.058031379900874	-0.8058677639477255	57.0	2.9251991538815996	-307.0	
9.579623808430778	1903.0	-1.0240588051551651	2134.0	1.9891701078640809	1276.0	9.652973635806253	-15744.0	1152.0	-0.7063151440833844	1.9227467811158798	3136.0	0.0	1391.021728515625	45581.0	-0.3630434782608696	734.0	1.1818181818181819	-172.0	-556.0	-0.40918163672654695	-188.0	3.2771983258361197	-1.178828890287641	84.0	3.495745127007799	-256.0	
9.567902075996965	1897.0	-0.9033407333946893	2124.0	2.0625492278838533	1277.0	9.652973635806253	-15744.0	1280.0	-0.7847946045370937	1.9619865113427344	3200.0	0.0	1410.552978515625	46221.0	-0.3717391304347826	730.0	1.187878787878788	-169.0	-537.0	-0.44710578842315374	-251.0	2.7765238083813295	-1.5571215337736546	109.0	4.4589267771253125	-223.0	
9.532064661175138	1903.0	-0.9011714683357701	2124.0	1.9899233897597184	1280.0	9.652973635806253	-15744.0	1088.0	-0.6670754138565297	1.9227467811158798	3136.0	0.0	1430.084228515625	46861.0	-0.3717391304347826	730.0	1.187878787878788	-169.0	-552.0	-0.4171656686626747	-252.0	3.777618541465255	-1.222608491015907	82.0	4.464124955269758	-288.0	
9.495613095597363	1904.0	-0.9001943782736898	2124.0	1.977520452233477	1283.0	9.613733905579398	-15680.0	1216.0	-0.745554874310239	1.883507050889025	3072.0	0.0	1449.615478515625	47501.0	-0.3652173913043478	733.0	1.1696969696969697	-178.0	-543.0	-0.43512974051896214	-182.0	2.1339887394780246	-0.30100861431237436	31.0	3.4159224700196686	-181.0	
9.555240877944803	1903.0	-1.0235663684466902	2134.0	1.988931202926306	1278.0	9.613733905579398	-15680.0	1216.0	-0.745554874310239	1.8442673206621703	3008.0	0.0	1469.146728515625	48141.0	-0.358695652173913	736.0	1.183838383838384	-171.0	-538.0	-0.4451097804391218	-177.0	2.5644925575503748	-0.14801980997764175	19.0	3.3355718044625196	-209.0	
9.604616572113587	1906.0	-0.999455444185048	2132.0	1.9535214907973573	1274.0	9.692213366033108	-15808.0	1216.0	-0.745554874310239	1.8050275904353157	2944.0	0.0	1488.677978515625	48781.0	-0.3652173913043478	733.0	1.1757575757575758	-175.0	-529.0	-0.46307385229540926	-210.0	3.7554980952873294	0.2737477901528976	-16.0	3.8255628897695604	-286.0	
9.544745288243325	1906.0	-0.8885121353516598	2123.0	1.9540322110469883	1279.0	9.692213366033108	-15808.0	1024.0	-0.627835683629675	1.8442673206621703	3008.0	0.0	1508.209228515625	49421.0	-0.35434782608695653	738.0	1.1656565656565656	-180.0	-542.0	-0.43712574850299407	-230.0	3.344317304770567	0.29019867279263606	-16.0	4.133857207180432	-259.0	
9.630208375095432	1907.0	-0.8899972288319546	2123.0	1.9428237982096221	1272.0	9.731453096259962	-15872.0	1216.0	-0.745554874310239	1.8442673206621703	3008.0	0.0	1527.740478515625	50061.0	-0.3652173913043478	733.0	1.1939393939393939	-166.0	-544.0	-0.4331337325349302	-212.0	3.4500988002515474	0.3987343772862466	-23.0	3.859035133670489	-266.0	
9.544133296266937	1902.0	-0.9016561216893754	2124.0	2.002087422348185	1279.0	9.652973635806253	-15744.0	1216.0	-0.745554874310239	1.9227467811158798	3136.0	0.0	1547.271728515625	50701.0	-0.3630434782608696	734.0	1.187878787878788	-169.0	-555.0	-0.4111776447105789	-207.0	3.7224389737125456	0.0829712513458995	-3.0	3.780266104559453	-284.0	
9.508050221142728	1906.0	-0.8999637266291917	2124.0	1.9535507444632072	1282.0	9.613733905579398	-15680.0	1152.0	-0.7063151440833844	1.883507050889025	3072.0	0.0	1566.802978515625	51341.0	-0.358695652173913	736.0	1.1797979797979798	-173.0	-533.0	-0.45508982035928147	-195.0	3.155017466237188	0.30967421347183255	-15.0	3.6034308139307845	-247.0	
9.520246003944834	1908.0	-0.9241135676651826	2126.0	1.9293348183386996	1281.0	9.652973635806253	-15744.0	1152.0	-0.7063151440833844	1.8442673206621703	3008.0	0.0	1586.334228515625	51981.0	-0.3521739130434783	739.0	1.1898989898989898	-168.0	-539.0	-0.44311377245508987	-221.0	2.346100196272963	0.365149868715172	-16.0	4.006957248987841	-194.0	
9.593881798448406	1910.0	-0.9007335151113831	2124.0	1.9062085912671045	1275.0	9.574494175352545	-15616.0	1152.0	-0.7063151440833844	1.8050275904353157	2944.0	0.0	1605.865478515625	52621.0	-0.3565217391304348	737.0	1.183838383838384	-171.0	-558.0	-0.4051896207584831	-245.0	2.5753120125993094	-0.10018664285306766	13.0	4.369684142231422	-209.0	
9.520599382941496	1904.0	-0.8397355832809423	2119.0	1.978374903056846	1281.0	9.574494175352545	-15616.0	1088.0	-0.6670754138565297	1.8442673206621703	3008.0	0.0	1625.396728515625	53261.0	-0.34782608695652173	741.0	1.1737373737373737	-176.0	-558.0	-0.4051896207584831	-235.0	1.589589494295991	-0.2953617728553094	31.0	4.227450112661603	-145.0	
9.398327033955834	1906.0	-0.8977477614410541	2124.0	1.9524756722432195	1291.0	9.574494175352545	-15616.0	1152.0	-0.7063151440833844	1.883507050889025	3072.0	0.0	1644.927978515625	53901.0	-0.35434782608695653	738.0	1.1818181818181819	-172.0	-543.0	-0.43512974051896214	-206.0	-0.3442552751682744	0.141733979865127	12.0	3.8057239215729757	-19.0	
9.568895511104273	1910.0	-0.9611923101041306	2129.0	1.9053541404437357	1277.0	9.613733905579398	-15680.0	1280.0	-0.7847946045370937	1.883507050889025	3072.0	0.0	1664.459228515625	54541.0	-0.34782608695652173	741.0	1.187878787878788	-169.0	-556.0	-0.40918163672654695	-247.0	0.9109132017870829	0.7190864605033596	-34.0	4.416746381290114	-100.0	
9.410639170570454	1906.0	-0.8858037334550471	2123.0	1.9527182338892257	1290.0	9.45677498467198	-15424.0	1216.0	-0.745554874310239	1.9227467811158798	3136.0	0.0	1683.990478515625	55181.0	-0.35	740.0	1.1898989898989898	-168.0	-541.0	-0.439121756487026	-248.0	2.2291410481893568	0.5367744148859943	-28.0	4.418773228301377	-186.0	
9.556572580591864	1905.0	-0.913377281385754	2125.0	1.9659500252812172	1278.0	9.652973635806253	-15744.0	960.0	-0.5885959534028203	1.9227467811158798	3136.0	0.0	1703.521728515625	55821.0	-0.34782608695652173	741.0	1.1939393939393939	-166.0	-543.0	-0.43512974051896214	-250.0	-0.2384736509000125	0.842236201637725	-37.0	4.473867626242841	-25.0	
9.666776294485725	1904.0	-0.8548804498720369	2120.0	1.9796852235063773	1269.0	9.770692826486817	-15936.0	1152.0	-0.7063151440833844	1.883507050889025	3072.0	0.0	1723.052978515625	56461.0	-0.34782608695652173	741.0	1.2	-163.0	-555.0	-0.4111776447105789	-199.0	-1.0206101087708013	1.6773247024814104	-87.0	3.706023591582005	26.0	
9.716274818805697	1908.0	-0.8305310906110268	2118.0	1.9322309312578498	1265.0	9.849172286940528	-16064.0	1024.0	-0.627835683629675	1.765787860208461	2880.0	0.0	1742.584228515625	57101.0	-0.34347826086956523	743.0	1.1797979797979798	-173.0	-542.0	-0.43712574850299407	-170.0	0.7131820392895076	2.0690479782158997	-120.0	3.2476210313181317	-87.0	
9.582287213724898	1907.0	-0.803680631033293	2116.0	1.9432077525739035	1276.0	9.613733905579398	-15680.0	1024.0	-0.627835683629675	1.8050275904353157	2944.0	0.0	1762.115478515625	57741.0	-0.35	740.0	1.1919191919191918	-167.0	-541.0	-0.439121756487026	-172.0	3.0460439351973667	2.040396593955823	-129.0	3.2547106633096234	-239.0	
9.5932654889129	1904.0	-0.8899738787673455	2123.0	1.9785991811616959	1275.0	9.692213366033108	-15808.0	1088.0	-0.6670754138565297	1.883507050889025	3072.0	0.0	1781.646728515625	58381.0	-0.3347826086956522	747.0	1.183838383838384	-171.0	-553.0	-0.41516966067864275	-224.0	2.607209836313167	1.8743869250201852	-118.0	4.049973529013294	-210.0	
9.570104383600144	1911.0	-0.8512416580425622	2120.0	1.894417542918226	1277.0	9.692213366033108	-15808.0	896.0	-0.5493562231759657	1.8050275904353157	2944.0	0.0	1801.177978515625	59021.0	-0.3521739130434783	739.0	1.1797979797979798	-173.0	-552.0	-0.4171656686626747	-250.0	2.2153873022060924	2.2006828616103853	-139.0	4.44932901671178	-184.0	
9.606558107957479	1911.0	-0.8641705594455193	2121.0	1.8946527911477697	1274.0	9.770692826486817	-15936.0	1152.0	-0.7063151440833844	1.8050275904353157	2944.0	0.0	1820.709228515625	59661.0	-0.34347826086956523	743.0	1.187878787878788	-169.0	-544.0	-0.4331337325349302	-260.0	0.9238954195746528	1.8197194302595157	-108.0	4.614335190290945	-100.0	
9.6546020994792	1912.0	-0.9502487222448133	2128.0	1.8822242566639096	1270.0	9.809932556713672	-16000.0	1216.0	-0.745554874310239	1.8050275904353157	2944.0	0.0	1840.240478515625	60301.0	-0.3391304347826087	745.0	1.202020202020202	-162.0	-548.0	-0.42514970059880247	-272.0	0.5553113681567662	1.6131849437881745	-93.0	4.800530536508547	-76.0	
9.557671575613895	1911.0	-0.8753759323688137	2122.0	1.894051872095101	1278.0	9.652973635806253	-15744.0	1152.0	-0.7063151440833844	1.8442673206621703	3008.0	0.0	1859.771728515625	60941.0	-0.34782608695652173	741.0	1.183838383838384	-171.0	-540.0	-0.44111776447105794	-274.0	2.0580285487362344	1.4474090829893171	-89.0	4.815921615653322	-174.0	
9.582170859912384	1909.0	-0.839774500055291	2119.0	1.9187492648033897	1276.0	9.692213366033108	-15808.0	1088.0	-0.6670754138565297	1.8050275904353157	2944.0	0.0	1879.302978515625	61581.0	-0.3456521739130435	742.0	1.1919191919191918	-167.0	-541.0	-0.439121756487026	-212.0	1.4287625795858834	0.8542619569552217	-44.0	3.879248495877145	-134.0	
9.606913645733696	1908.0	-0.7917443864021556	2115.0	1.9315251865692185	1274.0	9.731453096259962	-15872.0	1024.0	-0.627835683629675	1.8442673206621703	3008.0	0.0	1898.834228515625	62221.0	-0.3456521739130435	742.0	1.195959595959596	-165.0	-554.0	-0.4131736526946108	-177.0	0.34782027622600775	0.7259007607125791	-29.0	3.357738527275763	-64.0	
9.55718889012737	1911.0	-0.9241369177297918	2126.0	1.8935594353866259	1278.0	9.652973635806253	-15744.0	1024.0	-0.627835683629675	1.8050275904353157	2944.0	0.0	1918.365478515625	62861.0	-0.34347826086956523	743.0	1.1757575757575758	-175.0	-540.0	-0.44111776447105794	-192.0	0.011845929006692336	0.6651965812532428	-24.0	3.5892351528772335	-42.0	
9.569261842778282	1912.0	-0.9485251937651507	2128.0	1.881388089381697	1277.0	9.53525444512569	-15552.0	1152.0	-0.7063151440833844	1.8050275904353157	2944.0	0.0	1937.896728515625	63501.0	-0.35	740.0	1.1939393939393939	-166.0	-540.0	-0.44111776447105794	-249.0	0.8909244076721361	0.22450832684758115	-1.0	4.447364520181834	-99.0	
9.691053665056977	1911.0	-0.9512258123068935	2128.0	1.894627194190151	1267.0	9.849172286940528	-16064.0	1216.0	-0.745554874310239	1.8050275904353157	2944.0	0.0	1957.427978515625	64141.0	-0.341304347826087	744.0	1.187878787878788	-169.0	-554.0	-0.4131736526946108	-217.0	1.4078632077671456	0.22298957071745945	-2.0	3.9555031169717583	-133.0	
9.617773408329624	1906.0	-0.9021796918173294	2124.0	1.9546258166831947	1273.0	9.692213366033108	-15808.0	1152.0	-0.7063151440833844	1.8050275904353157	2944.0	0.0	1976.959228515625	64781.0	-0.34347826086956523	743.0	1.1818181818181819	-172.0	-553.0	-0.41516966067864275	-186.0	1.4329659033522586	0.1351542124572076	5.0	3.4837692002820675	-135.0	
9.593995993481363	1907.0	-0.8526878347485085	2120.0	1.9428347683343161	1275.0	9.731453096259962	-15872.0	1152.0	-0.7063151440833844	1.8442673206621703	3008.0	0.0	1996.490478515625	65421.0	-0.34347826086956523	743.0	1.185858585858586	-170.0	-540.0	-0.44111776447105794	-93.0	0.9353557071769372	0.9010284975447379	-40.0	2.0742966330422994	-103.0	
9.655308857472523	1904.0	-0.7814927534763324	2114.0	1.9803044261002023	1270.0	9.692213366033108	-15808.0	960.0	-0.5885959534028203	1.9227467811158798	3136.0	0.0	2016.021728515625	525.0	-0.35	740.0	1.187878787878788	-169.0	-538.0	-0.4451097804391218	-61.0	1.1335135302408206	1.2515319798747533	-63.0	1.5856230396025348	-116.0	
9.558141308423071	1905.0	-0.7549040789625755	2112.0	1.967550444583761	1278.0	9.652973635806253	-15744.0	1024.0	-0.627835683629675	1.8442673206621703	3008.0	0.0	2035.552978515625	1165.0	-0.3347826086956522	747.0	1.1818181818181819	-172.0	-541.0	-0.439121756487026	-45.0	2.3945047327140454	1.7432159749155847	-101.0	1.32966711997324	-198.0	
9.631529283844703	1904.0	-0.7200490850666348	2109.0	1.980681067048021	1272.0	9.692213366033108	-15808.0	832.0	-0.510116492949111	1.9227467811158798	3136.0	0.0	2055.084228515625	1805.0	-0.3347826086956522	747.0	1.183838383838384	-171.0	-541.0	-0.439121756487026	-81.0	1.7413150715168189	1.8717243608873826	-108.0	1.8837275336954784	-155.0	
9.643363052531912	1906.0	-0.7807696651233593	2114.0	1.9560958133921573	1271.0	9.770692826486817	-15936.0	768.0	-0.47087676272225626	1.8442673206621703	3008.0	0.0	2074.615478515625	2445.0	-0.34347826086956523	743.0	1.1919191919191918	-167.0	-528.0	-0.4650698602794412	-99.0	2.3225520210952446	1.4005295939069926	-80.0	2.1516794227548273	-193.0	
9.655670871587418	1904.0	-0.7449220144555988	2111.0	1.9806737536315586	1270.0	9.770692826486817	-15936.0	832.0	-0.510116492949111	1.883507050889025	3072.0	0.0	2094.146728515625	3085.0	-0.3347826086956522	747.0	1.183838383838384	-171.0	-539.0	-0.44311377245508987	-135.0	2.452147865318245	1.5345261236940464	-91.0	2.6979119814228634	-201.0	
9.607517002591853	1908.0	-0.7307931547009332	2110.0	1.9321407324548123	1274.0	9.692213366033108	-15808.0	768.0	-0.47087676272225626	1.765787860208461	2880.0	0.0	2113.677978515625	3725.0	-0.3456521739130435	742.0	1.2	-163.0	-535.0	-0.4510978043912176	-170.0	2.123885132944168	1.9408780354012833	-118.0	3.233514000381585	-179.0	
9.631781420485757	1909.0	-0.7554276490905294	2112.0	1.920088838918771	1272.0	9.770692826486817	-15936.0	1024.0	-0.627835683629675	1.8050275904353157	2944.0	0.0	2133.209228515625	4365.0	-0.33043478260869563	749.0	1.2	-163.0	-550.0	-0.4211576846307386	-224.0	0.8254229645808819	1.7285342238264851	-100.0	4.067791397730618	-94.0	
9.75272854316303	1908.0	-0.8434599920139839	2119.0	1.9324661794873936	1262.0	9.927651747394236	-16192.0	1024.0	-0.627835683629675	1.8050275904353157	2944.0	0.0	2152.740478515625	5005.0	-0.341304347826087	744.0	1.185858585858586	-170.0	-537.0	-0.44710578842315374	-194.0	0.7571515781611836	1.4966642991734975	-83.0	3.612200347336259	-90.0	
9.692376732585803	1909.0	-0.7932294798824505	2115.0	1.9203167737318523	1267.0	9.809932556713672	-16000.0	896.0	-0.5493562231759657	1.8050275904353157	2944.0	0.0	2172.271728515625	5645.0	-0.3347826086956522	747.0	1.195959595959596	-165.0	-542.0	-0.43712574850299407	-197.0	2.2738535782214018	1.179381692438509	-69.0	3.642660703761513	-189.0	
9.656293657461596	1913.0	-0.7915370848222668	2115.0	1.8717800958468747	1270.0	9.731453096259962	-15872.0	1024.0	-0.627835683629675	1.7265481299816063	2816.0	0.0	2191.802978515625	6285.0	-0.32173913043478264	753.0	1.1919191919191918	-167.0	-551.0	-0.4191616766467066	-170.0	3.5879964633251125	1.0143881806598432	-63.0	3.2188728870777754	-275.0	
9.717612997791433	1913.0	-0.756197437572721	2112.0	1.8727466857226684	1265.0	9.809932556713672	-16000.0	1152.0	-0.7063151440833844	1.8050275904353157	2944.0	0.0	2211.334228515625	6925.0	-0.3282608695652174	750.0	1.1777777777777778	-174.0	-540.0	-0.44111776447105794	-161.0	2.785864444446564	0.7458567718861221	-41.0	3.090012077988995	-223.0	
9.59473081560894	1912.0	-0.8393054134114251	2119.0	1.8827349769135409	1275.0	9.692213366033108	-15808.0	1024.0	-0.627835683629675	1.765787860208461	2880.0	0.0	2230.865478515625	7565.0	-0.3347826086956522	747.0	1.204040404040404	-161.0	-542.0	-0.43712574850299407	-181.0	1.7150434532978567	0.7932261087417181	-40.0	3.404902797406185	-153.0	
9.643619506732083	1913.0	-0.8400518518290073	2119.0	1.8711682066695121	1271.0	9.770692826486817	-15936.0	1088.0	-0.6670754138565297	1.7265481299816063	2816.0	0.0	2250.396728515625	8205.0	-0.33260869565217394	748.0	1.195959595959596	-165.0	-550.0	-0.4211576846307386	-212.0	0.9011630206096852	0.27629023258680163	-3.0	3.8845244914669075	-100.0	
9.594969999572646	1911.0	-0.8029731093900594	2116.0	1.8951488845644762	1275.0	9.731453096259962	-15872.0	960.0	-0.5885959534028203	1.6873083997547516	2752.0	0.0	2269.927978515625	8845.0	-0.33043478260869563	749.0	1.183838383838384	-171.0	-529.0	-0.46307385229540926	-177.0	2.901456830557354	-0.21645003462330525	22.0	3.3322021617324498	-231.0	
9.606803768259857	1913.0	-0.8636936894467838	2121.0	1.8705636309086122	1274.0	9.731453096259962	-15872.0	1024.0	-0.627835683629675	1.765787860208461	2880.0	0.0	2289.459228515625	9485.0	-0.3347826086956522	747.0	1.1939393939393939	-166.0	-533.0	-0.45508982035928147	-123.0	2.6359958517929636	0.14972033923595696	1.0	2.5135639958546943	-214.0	
9.533411475279106	1912.0	-0.874645060660971	2122.0	1.881768387037747	1280.0	9.731453096259962	-15872.0	1152.0	-0.7063151440833844	1.765787860208461	2880.0	0.0	2308.990478515625	10125.0	-0.32173913043478264	753.0	1.1939393939393939	-166.0	-550.0	-0.4211576846307386	-127.0	1.387185890282936	1.0587917586279358	-54.0	2.586888597370935	-132.0	
9.557311720278557	1912.0	-0.9238984827304241	2126.0	1.881514855267047	1278.0	9.652973635806253	-15744.0	1280.0	-0.7847946045370937	1.6873083997547516	2752.0	0.0	2328.521728515625	10765.0	-0.33043478260869563	749.0	1.1797979797979798	-173.0	-537.0	-0.44710578842315374	-140.0	1.1493833247318186	1.6371492143719306	-92.0	2.7869852542051534	-116.0	
9.557915077136714	1912.0	-0.8629472510292016	2121.0	1.882130401152641	1278.0	9.731453096259962	-15872.0	1280.0	-0.7847946045370937	1.7265481299816063	2816.0	0.0	2348.052978515625	11405.0	-0.3347826086956522	747.0	1.1757575757575758	-175.0	-544.0	-0.4331337325349302	-166.0	1.657948786526635	1.4510030340035813	-83.0	3.1773368619446196	-149.0	
9.521329887509957	1907.0	-0.8024495392621054	2116.0	1.942610490229466	1281.0	9.613733905579398	-15680.0	1088.0	-0.6670754138565297	1.8442673206621703	3008.0	0.0	2367.584228515625	12045.0	-0.33260869565217394	748.0	1.1818181818181819	-172.0	-535.0	-0.4510978043912176	-134.0	1.50185787536011	1.6762371907547737	-96.0	2.69220575584716	-139.0	
9.717378131386845	1916.0	-0.8164333642758401	2117.0	1.8359973994783385	1265.0	9.888412017167381	-16128.0	896.0	-0.5493562231759657	1.765787860208461	2880.0	0.0	2387.115478515625	12685.0	-0.3173913043478261	755.0	1.1898989898989898	-168.0	-537.0	-0.44710578842315374	-72.0	1.0660735022283216	2.01415148176972	-114.0	1.753597820110797	-111.0	
9.644237975047147	1920.0	-0.8627632995139218	2121.0	1.7866099274782234	1271.0	9.652973635806253	-15744.0	1088.0	-0.6670754138565297	1.7265481299816063	2816.0	0.0	2406.646728515625	13325.0	-0.3347826086956522	747.0	1.197979797979798	-164.0	-539.0	-0.44311377245508987	-54.0	1.3822284327103715	1.6732625864916044	-92.0	1.4766720122508432	-132.0	
9.619613701817908	1920.0	-0.8866513554859359	2123.0	1.7861248041862108	1273.0	9.770692826486817	-15936.0	1024.0	-0.627835683629675	1.6873083997547516	2752.0	0.0	2426.177978515625	13965.0	-0.32173913043478264	753.0	1.197979797979798	-164.0	-546.0	-0.42914171656686634	-101.0	0.8168230674058723	1.2042615240832315	-60.0	2.197154963242291	-95.0	
9.608135470906918	1915.0	-0.7535046023858477	2112.0	1.8475824532635234	1274.0	9.692213366033108	-15808.0	1024.0	-0.627835683629675	1.7265481299816063	2816.0	0.0	2445.709228515625	14605.0	-0.31956521739130433	754.0	1.185858585858586	-170.0	-521.0	-0.4790419161676647	-113.0	0.724754180041355	1.0234590934381538	-48.0	2.380585157819358	-89.0	
9.559369609934965	1915.0	-0.7525197289688976	2112.0	1.8471046433879734	1278.0	9.652973635806253	-15744.0	768.0	-0.47087676272225626	1.6873083997547516	2752.0	0.0	2465.240478515625	15245.0	-0.33043478260869563	749.0	1.202020202020202	-162.0	-536.0	-0.44910179640718567	-113.0	0.38629184911366776	0.9420685454338392	-41.0	2.3839697811286356	-67.0	
9.632645549103199	1918.0	-0.7776622267767084	2114.0	1.8114413994883245	1272.0	9.692213366033108	-15808.0	896.0	-0.5493562231759657	1.6873083997547516	2752.0	0.0	2484.771728515625	15885.0	-0.32173913043478264	753.0	1.197979797979798	-164.0	-549.0	-0.42315369261477054	-89.0	-0.14151337783574156	0.7085469784713991	-22.0	2.0242288219912856	-33.0	
9.620943245685412	1921.0	-0.764510457084123	2113.0	1.7753113158378195	1273.0	9.731453096259962	-15872.0	896.0	-0.5493562231759657	1.648068669527897	2688.0	0.0	2504.302978515625	16525.0	-0.3173913043478261	755.0	1.187878787878788	-169.0	-530.0	-0.4610778443113773	-65.0	0.2366122054233588	0.5169201533553283	-10.0	1.6554285547518501	-58.0	
9.608519072817392	1925.0	-0.8364519767738814	2119.0	1.7262748878279046	1274.0	9.652973635806253	-15744.0	1088.0	-0.6670754138565297	1.648068669527897	2688.0	0.0	2523.834228515625	17165.0	-0.33043478260869563	749.0	1.1939393939393939	-166.0	-550.0	-0.4211576846307386	-113.0	-0.8463596451057188	0.45814594700272304	-3.0	2.396296296070829	13.0	
9.681163590993215	1915.0	-0.7671721588515172	2113.0	1.8481760588997296	1268.0	9.770692826486817	-15936.0	896.0	-0.5493562231759657	1.7265481299816063	2816.0	0.0	2543.365478515625	17805.0	-0.3173913043478261	755.0	1.183838383838384	-171.0	-548.0	-0.42514970059880247	-118.0	-0.9378019090820986	0.4464759997322961	-2.0	2.473256346087019	19.0	
9.632391253682586	1912.0	-0.730331851411937	2110.0	1.8842013169142722	1272.0	9.770692826486817	-15936.0	832.0	-0.510116492949111	1.765787860208461	2880.0	0.0	2562.896728515625	18445.0	-0.3239130434782609	752.0	1.185858585858586	-170.0	-536.0	-0.44910179640718567	-100.0	0.029397496748572883	0.7499295813837091	-26.0	2.189820093473579	-44.0	
9.730644845076725	1911.0	-0.6472083088634935	2103.0	1.8980632810247824	1264.0	9.849172286940528	-16064.0	768.0	-0.47087676272225626	1.765787860208461	2880.0	0.0	2582.427978515625	19085.0	-0.33260869565217394	748.0	1.197979797979798	-164.0	-542.0	-0.43712574850299407	-48.0	0.14900120122543445	1.2230152569844908	-56.0	1.3977495317139814	-52.0	
9.706507574893125	1913.0	-0.6462390021562828	2103.0	1.87373521584785	1266.0	9.849172286940528	-16064.0	704.0	-0.4316370324954016	1.7265481299816063	2816.0	0.0	2601.959228515625	19725.0	-0.32173913043478264	753.0	1.195959595959596	-165.0	-540.0	-0.44111776447105794	-34.0	0.9295944202043098	1.2221805904540985	-59.0	1.1770158428702002	-103.0	
9.67017883946654	1915.0	-0.6450234770948347	2103.0	1.8492876982020299	1269.0	9.731453096259962	-15872.0	640.0	-0.39239730226854685	1.8050275904353157	2944.0	0.0	2621.490478515625	20365.0	-0.32173913043478264	753.0	1.187878787878788	-169.0	-531.0	-0.4590818363273454	-50.0	0.8075849326786404	1.0560210692523173	-48.0	1.4215819453500198	-95.0	
9.706382585962379	1911.0	-0.6345256258147738	2102.0	1.897947485264126	1266.0	9.849172286940528	-16064.0	768.0	-0.47087676272225626	1.765787860208461	2880.0	0.0	2641.021728515625	21005.0	-0.3282608695652174	750.0	1.208080808080808	-159.0	-535.0	-0.4510978043912176	-96.0	0.20126592084214331	1.1152135928459905	-51.0	2.1272649073315026	-55.0	
9.742836310319712	1911.0	-0.6474545272177309	2103.0	1.89818273349367	1263.0	9.809932556713672	-16000.0	768.0	-0.47087676272225626	1.8050275904353157	2944.0	0.0	2660.552978515625	21645.0	-0.3173913043478261	755.0	1.1939393939393939	-166.0	-539.0	-0.44311377245508987	-150.0	1.1289137987036828	0.9728200782758337	-48.0	2.9392812042182865	-115.0	
9.621527173527543	1912.0	-0.5959929233150099	2099.0	1.885436065393691	1273.0	9.652973635806253	-15744.0	640.0	-0.39239730226854685	1.765787860208461	2880.0	0.0	2680.084228515625	22285.0	-0.31956521739130433	754.0	1.1757575757575758	-175.0	-533.0	-0.45508982035928147	-162.0	1.9898353198716965	0.9355845676706549	-50.0	3.1131814947100285	-171.0	
9.719058895471449	1912.0	-0.59796267014891	2099.0	1.886391685144791	1265.0	9.731453096259962	-15872.0	640.0	-0.39239730226854685	1.8442673206621703	3008.0	0.0	2699.615478515625	22925.0	-0.3239130434782609	752.0	1.183838383838384	-171.0	-522.0	-0.4770459081836328	-155.0	1.562374589446227	1.2694444646038663	-70.0	3.010992223687287	-143.0	
9.682493134860717	1916.0	-0.6450312604497044	2103.0	1.8373625705513386	1268.0	9.731453096259962	-15872.0	832.0	-0.510116492949111	1.7265481299816063	2816.0	0.0	2719.146728515625	23565.0	-0.3173913043478261	755.0	1.1818181818181819	-172.0	-547.0	-0.4271457085828344	-169.0	1.7064946998199977	1.6556941958550924	-97.0	3.222478779237542	-152.0	
9.633856580378627	1920.0	-0.6796633860560166	2106.0	1.7883371126661172	1272.0	9.692213366033108	-15808.0	768.0	-0.47087676272225626	1.6873083997547516	2752.0	0.0	2738.677978515625	24205.0	-0.31956521739130433	754.0	1.1898989898989898	-168.0	-530.0	-0.4610778443113773	-210.0	2.2376789165959594	1.9685934022911662	-122.0	3.8407410815564744	-186.0	
9.585590675129666	1928.0	-0.7255320180051024	2110.0	1.691010225125462	1276.0	9.692213366033108	-15808.0	832.0	-0.510116492949111	1.5303494788473329	2496.0	0.0	2758.209228515625	24845.0	-0.31956521739130433	754.0	1.1737373737373737	-176.0	-540.0	-0.44111776447105794	-246.0	2.076021834007365	2.137853639532433	-134.0	4.389886169492626	-175.0	
9.560843571749238	1927.0	-0.7496585089764842	2112.0	1.7025696819530283	1278.0	9.692213366033108	-15808.0	960.0	-0.5885959534028203	1.5695892090741874	2560.0	0.0	2777.740478515625	25485.0	-0.31521739130434784	756.0	1.1777777777777778	-174.0	-531.0	-0.4590818363273454	-311.0	0.16972979119407655	2.3659203732096294	-143.0	5.397542245814296	-50.0	
9.67006680321314	1919.0	-0.705020968798586	2108.0	1.800493831838121	1269.0	9.731453096259962	-15872.0	960.0	-0.5885959534028203	1.7265481299816063	2816.0	0.0	2797.271728515625	26125.0	-0.31956521739130433	754.0	1.183838383838384	-171.0	-524.0	-0.4730538922155689	-319.0	0.3399033797694034	2.3791943787889474	-145.0	5.517513513730823	-61.0	
9.596928805653004	1924.0	-0.7633027153775446	2113.0	1.7389386705413081	1275.0	9.692213366033108	-15808.0	896.0	-0.5493562231759657	1.6088289393010422	2624.0	0.0	2816.802978515625	26765.0	-0.3239130434782609	752.0	1.1919191919191918	-167.0	-533.0	-0.45508982035928147	-255.0	1.6964569075843885	2.4136686369585103	-151.0	4.530563948034422	-150.0	
9.657993850562226	1918.0	-0.6806326927632274	2106.0	1.8126651778430498	1270.0	9.809932556713672	-16000.0	768.0	-0.47087676272225626	1.6873083997547516	2752.0	0.0	2836.334228515625	27405.0	-0.3173913043478261	755.0	1.195959595959596	-165.0	-537.0	-0.44710578842315374	-222.0	1.210203693506481	1.8678877563606715	-111.0	4.033525339490791	-119.0	
9.682381098607317	1920.0	-0.7050287521534557	2108.0	1.7885687041874296	1268.0	9.731453096259962	-15872.0	832.0	-0.510116492949111	1.7265481299816063	2816.0	0.0	2855.865478515625	28045.0	-0.3173913043478261	755.0	1.1797979797979798	-173.0	-528.0	-0.4650698602794412	-179.0	1.6516990677938557	2.1631694490902795	-131.0	3.3751179903106547	-148.0	
9.633852262819511	1918.0	-0.6557597633742633	2104.0	1.8126724912595122	1272.0	9.692213366033108	-15808.0	768.0	-0.47087676272225626	1.7265481299816063	2816.0	0.0	2875.396728515625	28685.0	-0.31956521739130433	754.0	1.1939393939393939	-166.0	-541.0	-0.439121756487026	-167.0	2.023878458221441	2.729273789921568	-170.0	3.188886690702957	-172.0	
9.707005371836557	1920.0	-0.6811406961814418	2106.0	1.7890538274794423	1266.0	9.809932556713672	-16000.0	640.0	-0.39239730226854685	1.6873083997547516	2752.0	0.0	2894.927978515625	29325.0	-0.32173913043478264	753.0	1.1939393939393939	-166.0	-535.0	-0.4510978043912176	-162.0	1.963748532437583	2.9314032065768183	-183.0	3.1134423625843697	-168.0	
9.792341310978358	1918.0	-0.658960601979351	2104.0	1.81422537335505	1259.0	9.966891477621092	-16256.0	768.0	-0.47087676272225626	1.6873083997547516	2752.0	0.0	2914.459228515625	29965.0	-0.3173913043478261	755.0	1.1919191919191918	-167.0	-532.0	-0.45708582834331346	-207.0	1.5217959121397515	2.559974089390886	-158.0	3.802272535175181	-139.0	
9.755159240832121	1916.0	-0.6952695559361075	2107.0	1.8375868486561886	1262.0	9.849172286940528	-16064.0	832.0	-0.510116492949111	1.7265481299816063	2816.0	0.0	2933.990478515625	30605.0	-0.3173913043478261	755.0	1.197979797979798	-164.0	-533.0	-0.45508982035928147	-235.0	1.9843425875207972	2.3458290790226606	-147.0	4.223502581729356	-169.0	
9.791981455643022	1919.0	-0.7074831523409613	2108.0	1.801688356526996	1259.0	9.888412017167381	-16128.0	896.0	-0.5493562231759657	1.648068669527897	2688.0	0.0	2953.521728515625	31245.0	-0.30869565217391304	759.0	1.1797979797979798	-173.0	-528.0	-0.4650698602794412	-256.0	2.877550715400508	2.330856142915497	-151.0	4.533962135431547	-227.0	
9.755407059914058	1919.0	-0.7067444972782486	2108.0	1.8013299991203335	1262.0	9.849172286940528	-16064.0	768.0	-0.47087676272225626	1.6873083997547516	2752.0	0.0	2973.052978515625	31885.0	-0.3065217391304348	760.0	1.183838383838384	-171.0	-531.0	-0.4590818363273454	-264.0	2.712557700473705	2.5923453003204524	-168.0	4.657285069383096	-216.0	
9.7799192968899	1923.0	-0.742853933009986	2111.0	1.753021256048437	1260.0	9.849172286940528	-16064.0	768.0	-0.47087676272225626	1.6873083997547516	2752.0	0.0	2992.584228515625	32525.0	-0.30869565217391304	759.0	1.197979797979798	-164.0	-528.0	-0.4650698602794412	-248.0	4.0301030613067	2.600333005999414	-174.0	4.4007636081702035	-302.0	
9.70689333558316	1924.0	-0.7411381878851931	2111.0	1.7402599611155334	1266.0	9.770692826486817	-15936.0	896.0	-0.5493562231759657	1.6088289393010422	2624.0	0.0	3012.115478515625	33165.0	-0.30869565217391304	759.0	1.1898989898989898	-168.0	-540.0	-0.44111776447105794	-227.0	3.95140305124473	2.723533718335848	-181.0	4.082158973289834	-297.0	
9.805267598348927	1923.0	-0.6458243989965051	2103.0	1.7542450344031624	1258.0	9.888412017167381	-16128.0	576.0	-0.3531575720416922	1.6873083997547516	2752.0	0.0	3031.646728515625	33805.0	-0.3065217391304348	760.0	1.1777777777777778	-174.0	-511.0	-0.4990019960079841	-219.0	3.410894713552132	2.511147455073203	-164.0	3.965891052864479	-262.0	
9.805511099871747	1924.0	-0.6333957176568927	2102.0	1.7423235634607022	1258.0	9.927651747394236	-16192.0	768.0	-0.47087676272225626	1.6088289393010422	2624.0	0.0	3051.177978515625	34445.0	-0.3065217391304348	760.0	1.1757575757575758	-175.0	-526.0	-0.46906187624750506	-207.0	2.959278027053589	2.0401352292453567	-130.0	3.7878977140260424	-233.0	
9.781134645724444	1927.0	-0.6687587149710479	2105.0	1.7055815906328347	1260.0	9.809932556713672	-16000.0	704.0	-0.4316370324954016	1.491109748620478	2432.0	0.0	3070.709228515625	35085.0	-0.30217391304347824	762.0	1.1939393939393939	-166.0	-541.0	-0.439121756487026	-210.0	4.083716837218914	0.8655964193876226	-57.0	3.8222807023502448	-307.0	
9.671891985244518	1926.0	-0.6058299530810555	2100.0	1.7171666444180196	1269.0	9.692213366033108	-15808.0	832.0	-0.510116492949111	1.648068669527897	2688.0	0.0	3090.240478515625	35725.0	-0.3065217391304348	760.0	1.187878787878788	-169.0	-524.0	-0.4730538922155689	-240.0	3.2895216727444256	0.7976739260278232	-50.0	4.286496418253544	-255.0	
9.647269870794837	1927.0	-0.6416698203939462	2103.0	1.7045138318293096	1271.0	9.731453096259962	-15872.0	832.0	-0.510116492949111	1.648068669527897	2688.0	0.0	3109.771728515625	36365.0	-0.30434782608695654	761.0	1.197979797979798	-164.0	-532.0	-0.45708582834331346	-265.0	2.615045851426202	0.49957323525751596	-28.0	4.673469313348856	-211.0	
9.671775631432004	1928.0	-0.6419238221030534	2103.0	1.692708156647506	1269.0	9.770692826486817	-15936.0	896.0	-0.5493562231759657	1.491109748620478	2432.0	0.0	3129.302978515625	37005.0	-0.29782608695652174	764.0	1.1797979797979798	-173.0	-526.0	-0.46906187624750506	-268.0	2.9664365326558992	0.29338130380938354	-16.0	4.715582782962415	-234.0	
9.586681035033465	1930.0	-0.6397234236246553	2103.0	1.6677828291261358	1276.0	9.652973635806253	-15744.0	704.0	-0.4316370324954016	1.5303494788473329	2496.0	0.0	3148.834228515625	37645.0	-0.29782608695652174	764.0	1.185858585858586	-170.0	-518.0	-0.4850299401197605	-255.0	3.120905918588069	0.5903890547581714	-36.0	4.516319457924386	-244.0	
9.610579121253357	1929.0	-0.6770250343532316	2106.0	1.6796969866521334	1274.0	9.731453096259962	-15872.0	832.0	-0.510116492949111	1.491109748620478	2432.0	0.0	3168.365478515625	38285.0	-0.29782608695652174	764.0	1.1777777777777778	-174.0	-532.0	-0.45708582834331346	-262.0	2.095098130796979	0.7324892403959811	-41.0	4.633041414129293	-177.0	
9.57388405415276	1929.0	-0.6884766256307635	2107.0	1.679215520068352	1277.0	9.652973635806253	-15744.0	832.0	-0.510116492949111	1.6088289393010422	2624.0	0.0	3187.896728515625	38925.0	-0.2956521739130435	765.0	1.185858585858586	-170.0	-539.0	-0.44311377245508987	-263.0	2.264100673255595	0.7351108021699759	-42.0	4.646560514179992	-188.0	
9.318595947398027	1933.0	-0.6579718075138157	2105.0	1.6287749160976368	1298.0	9.45677498467198	-15424.0	768.0	-0.47087676272225626	1.5695892090741874	2560.0	0.0	3207.427978515625	39565.0	-0.29782608695652174	764.0	1.1777777777777778	-174.0	-525.0	-0.471057884231537	-208.0	-0.02419066977804564	1.4225885793789006	-75.0	3.8329415264696434	-39.0	
9.489405767289728	1937.0	-0.6970358634964031	2108.0	1.5818996026523906	1284.0	9.574494175352545	-15616.0	960.0	-0.5885959534028203	1.4126302881667687	2304.0	0.0	3226.959228515625	40205.0	-0.29782608695652174	764.0	1.2	-163.0	-539.0	-0.44311377245508987	-162.0	-7.440613355426315	1.771853840448908	-62.0	3.2074859814630083	444.0	
9.767514553037906	1936.0	-0.9223617547676349	2126.0	1.5944756243682443	1261.0	9.849172286940528	-16064.0	1088.0	-0.6670754138565297	1.4518700183936235	2368.0	0.0	3246.490478515625	40845.0	-0.2956521739130435	765.0	1.1898989898989898	-168.0	-540.0	-0.44111776447105794	-121.0	-6.797497905847509	2.246788594625847	-95.0	2.5774806824805285	402.0	
9.853210347515041	1933.0	-0.8516591102039339	2120.0	1.6321841870719058	1254.0	9.888412017167381	-16128.0	1088.0	-0.6670754138565297	1.5303494788473329	2496.0	0.0	3266.021728515625	41485.0	-0.29782608695652174	764.0	1.183838383838384	-171.0	-519.0	-0.4830339321357286	-159.0	-0.5979089965789287	1.5822842833445567	-81.0	3.093431561448679	-2.0	
9.635938216610175	1934.0	-0.6397545570441342	2103.0	1.6200823185233708	1272.0	9.731453096259962	-15872.0	704.0	-0.4316370324954016	1.5303494788473329	2496.0	0.0	3285.552978515625	42125.0	-0.30869565217391304	759.0	1.1939393939393939	-166.0	-531.0	-0.4590818363273454	-99.0	2.3559224972055355	1.6680720762359833	-98.0	2.151345717993724	-195.0	
9.72140346224184	1936.0	-0.6531914618653057	2104.0	1.596706216389307	1265.0	9.849172286940528	-16064.0	512.0	-0.3139178418148375	1.4126302881667687	2304.0	0.0	3305.084228515625	42765.0	-0.29782608695652174	764.0	1.1777777777777778	-174.0	-526.0	-0.46906187624750506	13.0	0.6144997444308399	1.1227792983002087	-49.0	0.465337892289532	-83.0	
9.587053843046148	1935.0	-0.6629117413083054	2105.0	1.6073137101740045	1276.0	9.731453096259962	-15872.0	704.0	-0.4316370324954016	1.5303494788473329	2496.0	0.0	3324.615478515625	43405.0	-0.3	763.0	1.185858585858586	-170.0	-519.0	-0.4830339321357286	44.0	-0.28196496770320706	0.9641524978840772	-33.0	0.00281964967703207	-25.0	
9.745178718310543	1934.0	-0.6907315075932499	2107.0	1.6206649540348834	1263.0	9.888412017167381	-16128.0	960.0	-0.5885959534028203	1.491109748620478	2432.0	0.0	3344.146728515625	44045.0	-0.30434782608695654	761.0	1.1939393939393939	-166.0	-536.0	-0.44910179640718567	37.0	-0.10319173952743407	0.31776616864867424	9.0	0.10749579572227055	-37.0	
9.659950497863026	1930.0	-0.6290104874098359	2102.0	1.6686226531165795	1270.0	9.652973635806253	-15744.0	768.0	-0.47087676272225626	1.5303494788473329	2496.0	0.0	3363.677978515625	44685.0	-0.3065217391304348	760.0	1.183838383838384	-171.0	-514.0	-0.4930139720558883	-56.0	1.0158376006879868	0.30324380978662757	1.0	1.5107541715216375	-109.0	
9.684688966125218	1927.0	-0.5570767510749473	2096.0	1.7057339534758034	1268.0	9.770692826486817	-15936.0	640.0	-0.39239730226854685	1.6088289393010422	2624.0	0.0	3383.209228515625	45325.0	-0.30434782608695654	761.0	1.1717171717171717	-177.0	-515.0	-0.4910179640718563	-101.0	1.2083940234757018	0.45736800563072644	-12.0	2.1932392536815932	-121.0	
9.647752556281361	1927.0	-0.5929088350329681	2099.0	1.7050062685377845	1271.0	9.652973635806253	-15744.0	576.0	-0.3531575720416922	1.5695892090741874	2560.0	0.0	3402.740478515625	45965.0	-0.3	763.0	1.187878787878788	-169.0	-538.0	-0.4451097804391218	-108.0	1.229546035073116	0.9313973904304966	-44.0	2.299491611892615	-122.0	
9.623979458992217	1930.0	-0.5673206006459007	2097.0	1.6688798415955108	1273.0	9.692213366033108	-15808.0	640.0	-0.39239730226854685	1.6088289393010422	2624.0	0.0	3422.271728515625	46605.0	-0.29347826086956524	766.0	1.183838383838384	-171.0	-531.0	-0.4590818363273454	-121.0	0.6205098856523034	1.2207501249011778	-61.0	2.5033006045655304	-82.0	
9.671527812350066	1925.0	-0.6304488807609123	2102.0	1.7289650061833608	1269.0	9.692213366033108	-15808.0	704.0	-0.4316370324954016	1.6088289393010422	2624.0	0.0	3441.802978515625	47245.0	-0.3	763.0	1.1818181818181819	-172.0	-525.0	-0.471057884231537	-121.0	0.5444241791880429	1.2860157050635939	-65.0	2.504061461630173	-77.0	
9.672251840579852	1925.0	-0.5573074027194453	2096.0	1.7297036612460734	1269.0	9.770692826486817	-15936.0	640.0	-0.39239730226854685	1.6873083997547516	2752.0	0.0	3461.334228515625	47885.0	-0.30217391304347824	762.0	1.1676767676767676	-179.0	-506.0	-0.5089820359281437	-122.0	0.8078455298788428	1.5219457777546437	-82.0	2.51663637359855	-94.0	
9.68493030886848	1927.0	-0.5326962583944582	2094.0	1.705980171830041	1268.0	9.731453096259962	-15872.0	448.0	-0.27467811158798283	1.5695892090741874	2560.0	0.0	3480.865478515625	48525.0	-0.2891304347826087	768.0	1.1777777777777778	-174.0	-522.0	-0.4770459081836328	-112.0	1.803740117728635	1.50369267587479	-85.0	2.354586172967201	-159.0	
9.721642646205545	1935.0	-0.61685915784394	2101.0	1.609120124040242	1265.0	9.731453096259962	-15872.0	768.0	-0.47087676272225626	1.4518700183936235	2368.0	0.0	3500.396728515625	49165.0	-0.29130434782608694	767.0	1.1818181818181819	-172.0	-517.0	-0.48702594810379246	-87.0	2.1505964202835566	1.2698730464703638	-70.0	1.9708894730595221	-182.0	
9.6853117519994	1936.0	-0.6036918214416152	2100.0	1.5968402956911194	1268.0	9.692213366033108	-15808.0	768.0	-0.47087676272225626	1.5303494788473329	2496.0	0.0	3519.927978515625	49805.0	-0.29130434782608694	767.0	1.195959595959596	-165.0	-536.0	-0.44910179640718567	-147.0	1.346339848883445	1.2743548989510012	-69.0	2.8914795672906335	-129.0	
9.708839188986168	1931.0	-0.6297569258274182	2102.0	1.6570558828725508	1266.0	9.770692826486817	-15936.0	704.0	-0.4316370324954016	1.5695892090741874	2560.0	0.0	3539.459228515625	50445.0	-0.29130434782608694	767.0	1.1898989898989898	-168.0	-535.0	-0.4510978043912176	-170.0	0.5232957822806429	1.497556415526805	-81.0	3.24951989388822	-75.0	
9.64860804978057	1932.0	-0.5673361673556402	2097.0	1.6450295862941284	1271.0	9.770692826486817	-15936.0	448.0	-0.27467811158798283	1.4518700183936235	2368.0	0.0	3558.990478515625	51085.0	-0.29782608695652174	764.0	1.1898989898989898	-168.0	-523.0	-0.47504990019960086	-140.0	1.451479063707799	1.1513557347472985	-61.0	2.7839642968153937	-136.0	
9.551679684694822	1932.0	-0.5044151888205175	2092.0	1.644689512428622	1279.0	9.613733905579398	-15680.0	448.0	-0.27467811158798283	1.5695892090741874	2560.0	0.0	3578.521728515625	51725.0	-0.29782608695652174	764.0	1.195959595959596	-165.0	-535.0	-0.4510978043912176	-113.0	1.322746825383124	0.9668463015742408	-47.0	2.3746052313659405	-128.0	
9.538518530919667	1930.0	-0.5777873185064827	2098.0	1.6679205651361795	1280.0	9.652973635806253	-15744.0	576.0	-0.3531575720416922	1.5695892090741874	2560.0	0.0	3598.052978515625	52365.0	-0.29130434782608694	767.0	1.2	-163.0	-537.0	-0.44710578842315374	-88.0	1.197901709018045	1.1406696846297948	-57.0	1.9956255456474623	-120.0	
9.588258397982901	1934.0	-0.5290574665649835	2094.0	1.6207124912418895	1276.0	9.692213366033108	-15808.0	576.0	-0.3531575720416922	1.491109748620478	2432.0	0.0	3617.584228515625	53005.0	-0.29130434782608694	767.0	1.185858585858586	-170.0	-524.0	-0.4730538922155689	-75.0	2.025700417795891	1.2408886772272643	-67.0	1.7896289273809767	-174.0	
9.685790119926807	1934.0	-0.5310272133988837	2094.0	1.6216681109929896	1268.0	9.770692826486817	-15936.0	576.0	-0.3531575720416922	1.491109748620478	2432.0	0.0	3637.115478515625	53645.0	-0.30434782608695654	761.0	1.197979797979798	-164.0	-526.0	-0.46906187624750506	-126.0	1.0548695111472723	1.607266974819197	-89.0	2.5750026356870066	-110.0	
9.721638328646428	1933.0	-0.5929555351621865	2099.0	1.633455502633637	1265.0	9.809932556713672	-16000.0	704.0	-0.4316370324954016	1.5303494788473329	2496.0	0.0	3656.646728515625	54285.0	-0.29130434782608694	767.0	1.1818181818181819	-172.0	-532.0	-0.45708582834331346	-185.0	0.32969867636995837	1.86172538876804	-105.0	3.479592747076605	-62.0	
9.710052379041153	1934.0	-0.5437098964476033	2095.0	1.621783906753646	1266.0	9.849172286940528	-16064.0	448.0	-0.27467811158798283	1.5303494788473329	2496.0	0.0	3676.177978515625	54925.0	-0.29347826086956524	766.0	1.185858585858586	-170.0	-515.0	-0.4910179640718563	-229.0	1.3375161602528898	2.2145883434970646	-135.0	4.1387160931503235	-127.0	
9.648983016572814	1938.0	-0.6024762963801671	2100.0	1.5723927780452995	1271.0	9.731453096259962	-15872.0	704.0	-0.4316370324954016	1.4126302881667687	2304.0	0.0	3695.709228515625	55565.0	-0.2891304347826087	768.0	1.1777777777777778	-174.0	-527.0	-0.4670658682634731	-229.0	2.7257846006184248	2.9125675586982975	-188.0	4.124833408746667	-217.0	
9.734329749612408	1941.0	-0.6400552588824598	2103.0	1.5367258774374195	1264.0	9.809932556713672	-16000.0	640.0	-0.39239730226854685	1.3733905579399142	2240.0	0.0	3715.240478515625	56205.0	-0.28695652173913044	769.0	1.1919191919191918	-167.0	-534.0	-0.45309381237524954	-210.0	2.415523915103872	2.870758119030697	-183.0	3.838962631571395	-197.0	
9.698358710741598	1941.0	-0.5783653721185247	2098.0	1.5369830659163508	1267.0	9.770692826486817	-15936.0	640.0	-0.39239730226854685	1.3341508277130594	2176.0	0.0	3734.771728515625	56845.0	-0.29130434782608694	767.0	1.1939393939393939	-166.0	-517.0	-0.48702594810379246	-249.0	2.527523943567936	2.7342891550712722	-176.0	4.4309985248228765	-204.0	
9.81955365250081	1943.0	-0.6778726563841203	2106.0	1.5131035569491182	1257.0	9.888412017167381	-16128.0	768.0	-0.47087676272225626	1.4518700183936235	2368.0	0.0	3754.302978515625	57485.0	-0.2847826086956522	770.0	1.187878787878788	-169.0	-533.0	-0.45508982035928147	-253.0	1.6450607699245585	1.9087174107413756	-117.0	4.50065965846045	-147.0	
9.84379864137869	1935.0	-0.5949408487058261	2099.0	1.6105608670833547	1255.0	9.927651747394236	-16192.0	640.0	-0.39239730226854685	1.4126302881667687	2304.0	0.0	3773.834228515625	58125.0	-0.2826086956521739	771.0	1.1757575757575758	-175.0	-530.0	-0.4610778443113773	-285.0	0.4166283855273174	1.360055970413895	-76.0	4.999635997513549	-67.0	
9.758458384677771	1935.0	-0.5932173202261635	2099.0	1.609724699801142	1262.0	9.809932556713672	-16000.0	640.0	-0.39239730226854685	1.3341508277130594	2176.0	0.0	3793.365478515625	58765.0	-0.2891304347826087	768.0	1.1898989898989898	-168.0	-523.0	-0.47504990019960086	-294.0	1.6614357151856276	1.3878821250835813	-84.0	5.124070053494532	-148.0	
9.721642646205545	1935.0	-0.61685915784394	2101.0	1.609120124040242	1265.0	9.770692826486817	-15936.0	640.0	-0.39239730226854685	1.491109748620478	2432.0	0.0	3812.896728515625	59405.0	-0.29347826086956524	766.0	1.1939393939393939	-166.0	-522.0	-0.4770459081836328	-266.0	2.236860491668839	1.0350316987138988	-62.0	4.692460292421715	-186.0	
9.685678083673409	1938.0	-0.591024705102635	2099.0	1.5728742446290807	1268.0	9.849172286940528	-16064.0	640.0	-0.39239730226854685	1.4518700183936235	2368.0	0.0	3832.427978515625	60045.0	-0.2891304347826087	768.0	1.185858585858586	-170.0	-523.0	-0.47504990019960086	-218.0	1.9927620397463455	0.3765747957183329	-15.0	3.964863254127252	-171.0	
9.79589475024462	1943.0	-0.6042387416341783	2100.0	1.5136033070740558	1259.0	9.927651747394236	-16192.0	704.0	-0.4316370324954016	1.3733905579399142	2240.0	0.0	3851.959228515625	60685.0	-0.2847826086956522	770.0	1.1818181818181819	-172.0	-517.0	-0.48702594810379246	-163.0	2.0323968301164723	0.5721938315835846	-26.0	3.1279650050828662	-174.0	
9.771261841897148	1939.0	-0.5803195522426854	2098.0	1.5617889409688333	1261.0	9.809932556713672	-16000.0	704.0	-0.4316370324954016	1.4126302881667687	2304.0	0.0	3871.490478515625	61325.0	-0.28695652173913044	769.0	1.195959595959596	-165.0	-532.0	-0.45708582834331346	-201.0	2.3113099485844053	0.2597985403495162	-8.0	3.7031226419590233	-192.0	
9.649590690990086	1940.0	-0.565428687360698	2097.0	1.5486729453374983	1271.0	9.692213366033108	-15808.0	704.0	-0.4316370324954016	1.4126302881667687	2304.0	0.0	3891.021728515625	61965.0	-0.2782608695652174	773.0	1.197979797979798	-164.0	-532.0	-0.45708582834331346	-197.0	1.4835777831976356	0.42478968537336265	-15.0	3.6505634617117506	-138.0	
9.624966417760849	1940.0	-0.5893167433327119	2099.0	1.5481878220454857	1273.0	9.692213366033108	-15808.0	448.0	-0.27467811158798283	1.4518700183936235	2368.0	0.0	3910.552978515625	62605.0	-0.2847826086956522	770.0	1.187878787878788	-169.0	-511.0	-0.4990019960079841	-187.0	1.0233575427815242	0.5978371980295715	-24.0	3.5030744093630592	-108.0	
9.636914381481015	1939.0	-0.6019916430265617	2100.0	1.560228745456833	1272.0	9.692213366033108	-15808.0	640.0	-0.39239730226854685	1.4126302881667687	2304.0	0.0	3930.084228515625	63245.0	-0.28695652173913044	769.0	1.1939393939393939	-166.0	-524.0	-0.4730538922155689	-188.0	0.7767634073036965	0.47945925110668347	-15.0	3.520749476193123	-92.0	
9.649584214651412	1937.0	-0.5295732533380677	2094.0	1.5851760132275907	1271.0	9.731453096259962	-15872.0	576.0	-0.3531575720416922	1.4126302881667687	2304.0	0.0	3949.615478515625	63885.0	-0.2739130434782609	775.0	1.1818181818181819	-172.0	-533.0	-0.45508982035928147	-177.0	1.4050236646106138	0.547371878644129	-22.0	3.347166493391917	-133.0	
9.613014136481564	1939.0	-0.5527382209571087	2096.0	1.5604822772275333	1274.0	9.652973635806253	-15744.0	640.0	-0.39239730226854685	1.4518700183936235	2368.0	0.0	3969.146728515625	64525.0	-0.27608695652173915	774.0	1.187878787878788	-169.0	-514.0	-0.4930139720558883	-170.0	0.7911222103939074	0.6543279899831953	-26.0	3.2468416296070877	-93.0	
9.66117879937492	1940.0	-0.626626137416158	2102.0	1.548176851920792	1270.0	9.652973635806253	-15744.0	704.0	-0.4316370324954016	1.4518700183936235	2368.0	0.0	3988.677978515625	65165.0	-0.2826086956521739	771.0	1.197979797979798	-164.0	-520.0	-0.48103792415169666	-154.0	-0.10480199332868774	0.32162055366707026	1.0	3.0124548640397513	-35.0	
9.783091293025244	1939.0	-0.6171365096176564	2101.0	1.5615390659063644	1260.0	9.809932556713672	-16000.0	832.0	-0.510116492949111	1.491109748620478	2432.0	0.0	4008.209228515625	269.0	-0.2826086956521739	771.0	1.1777777777777778	-174.0	-530.0	-0.4610778443113773	-92.0	-0.1060573635878257	1.139036753518362	-51.0	2.069501638274662	-35.0	
9.674094292847695	1940.0	-0.5537308777289285	2096.0	1.549034959452392	1269.0	9.692213366033108	-15808.0	512.0	-0.3139178418148375	1.4126302881667687	2304.0	0.0	4027.740478515625	909.0	-0.2782608695652174	773.0	1.1818181818181819	-172.0	-517.0	-0.48702594810379246	-36.0	0.226482131623797	1.4797955281750426	-73.0	1.214465216706576	-57.0	
9.735648499582119	1937.0	-0.45815530377626335	2088.0	1.5867508355725157	1264.0	9.849172286940528	-16064.0	448.0	-0.27467811158798283	1.4126302881667687	2304.0	0.0	4047.271728515625	1549.0	-0.2782608695652174	773.0	1.1919191919191918	-167.0	-531.0	-0.4590818363273454	36.0	-0.8010569110683479	1.115354406975207	-41.0	0.12968357291296484	9.0	
9.333205157632758	1935.0	-0.4383167217449164	2087.0	1.6070211735155044	1297.0	9.417535254445125	-15360.0	576.0	-0.3531575720416922	1.4126302881667687	2304.0	0.0	4066.802978515625	2189.0	-0.2717391304347826	776.0	1.197979797979798	-164.0	-531.0	-0.4590818363273454	136.0	-5.122585804519601	0.21759900501797658	43.0	-1.3480136856810399	289.0	
9.68688695616928	1939.0	-0.4810740530410667	2090.0	1.5619376471035709	1268.0	9.770692826486817	-15936.0	512.0	-0.3139178418148375	1.4126302881667687	2304.0	0.0	4086.334228515625	2829.0	-0.2847826086956522	770.0	1.187878787878788	-169.0	-513.0	-0.49500998003992025	211.0	-10.271867367897384	0.576638867010548	46.0	-2.43720528069365	624.0	
9.721890465287482	1938.0	-0.6283340991860812	2102.0	1.572863274504387	1265.0	9.770692826486817	-15936.0	768.0	-0.47087676272225626	1.4518700183936235	2368.0	0.0	4105.865478515625	3469.0	-0.29130434782608694	767.0	1.197979797979798	-164.0	-523.0	-0.47504990019960086	205.0	-7.521776587608792	0.7713874560396677	20.0	-2.373451435644825	445.0	
10.014617096388623	1943.0	-0.6818121500519205	2106.0	1.5150147964513183	1241.0	10.123850398528509	-16512.0	704.0	-0.4316370324954016	1.3341508277130594	2176.0	0.0	4125.396728515625	4109.0	-0.28695652173913044	769.0	1.1696969696969697	-178.0	-517.0	-0.48702594810379246	84.0	-0.15261406341192038	0.6946267044914671	-14.0	-0.6068388783772877	-34.0	
9.50292461762066	1937.0	-0.5631893721079511	2097.0	1.5833732560695843	1283.0	9.613733905579398	-15680.0	640.0	-0.39239730226854685	1.4518700183936235	2368.0	0.0	4144.927978515625	4749.0	-0.28695652173913044	769.0	1.1818181818181819	-172.0	-511.0	-0.4990019960079841	-7.0	5.17999268370644	1.5424788767526956	-99.0	0.7238654724024794	-380.0	
9.600085690331438	1933.0	-0.5539226125990779	2096.0	1.6326303054761184	1275.0	9.652973635806253	-15744.0	576.0	-0.3531575720416922	1.5303494788473329	2496.0	0.0	4164.459228515625	5389.0	-0.2847826086956522	770.0	1.1939393939393939	-166.0	-530.0	-0.4610778443113773	-43.0	1.6878127623923227	1.703663443599244	-95.0	1.3063157887258867	-152.0	
9.685309593219841	1935.0	-0.5917400101007384	2099.0	1.609007984987817	1268.0	9.849172286940528	-16064.0	576.0	-0.3531575720416922	1.4518700183936235	2368.0	0.0	4183.990478515625	6029.0	-0.28695652173913044	769.0	1.1818181818181819	-172.0	-524.0	-0.4730538922155689	-82.0	0.4695397716360393	2.064579082976955	-115.0	1.9116544121695713	-72.0	
9.709944660346872	1940.0	-0.6276110108331081	2102.0	1.548654661796342	1266.0	9.809932556713672	-16000.0	704.0	-0.4316370324954016	1.4126302881667687	2304.0	0.0	4203.521728515625	6669.0	-0.2847826086956522	770.0	1.183838383838384	-171.0	-513.0	-0.49500998003992025	-114.0	1.3258320375641979	2.795108663058791	-169.0	2.389783504719415	-127.0	
9.746990947664571	1935.0	-0.5198296238304589	2093.0	1.6103439023949673	1263.0	9.849172286940528	-16064.0	640.0	-0.39239730226854685	1.491109748620478	2432.0	0.0	4223.052978515625	7309.0	-0.28695652173913044	769.0	1.195959595959596	-165.0	-530.0	-0.4610778443113773	-190.0	1.3357213433237314	2.6282445959480527	-161.0	3.545578147783493	-127.0	
9.77186088119619	1937.0	-0.49546469785970937	2091.0	1.5867398654478222	1261.0	9.888412017167381	-16128.0	448.0	-0.27467811158798283	1.5303494788473329	2496.0	0.0	4242.584228515625	7949.0	-0.28043478260869564	772.0	1.195959595959596	-165.0	-525.0	-0.471057884231537	-201.0	1.4753590228867453	2.6118337982413413	-161.0	3.711482151216	-136.0	
9.710429504612955	1941.0	-0.5908018368130067	2099.0	1.5369794092081195	1266.0	9.731453096259962	-15872.0	576.0	-0.3531575720416922	1.4126302881667687	2304.0	0.0	4262.115478515625	8589.0	-0.28695652173913044	769.0	1.1898989898989898	-168.0	-505.0	-0.5109780439121757	-262.0	0.8177271357914138	1.9158470352615617	-114.0	4.645815124079349	-93.0	
9.746161359520059	1942.0	-0.6888240275983075	2107.0	1.5243083130782533	1263.0	9.888412017167381	-16128.0	704.0	-0.4316370324954016	1.3341508277130594	2176.0	0.0	4281.646728515625	9229.0	-0.28043478260869564	772.0	1.195959595959596	-165.0	-520.0	-0.48103792415169666	-321.0	0.2041665598129324	1.053092097836687	-56.0	5.549289132880959	-53.0	
9.733480732451872	1939.0	-0.7014833605824179	2108.0	1.5601994917909832	1264.0	9.770692826486817	-15936.0	704.0	-0.4316370324954016	1.5303494788473329	2496.0	0.0	4301.177978515625	9869.0	-0.2782608695652174	773.0	1.1818181818181819	-172.0	-516.0	-0.4890219560878244	-336.0	0.957717436544019	0.9765269777829062	-55.0	5.769890506242925	-102.0	
9.734323273273732	1938.0	-0.6041998248598297	2100.0	1.573228945327512	1264.0	9.770692826486817	-15936.0	704.0	-0.4316370324954016	1.491109748620478	2432.0	0.0	4320.709228515625	10509.0	-0.27608695652173915	774.0	1.1818181818181819	-172.0	-510.0	-0.500998003992016	-322.0	0.24867554535462877	0.8844683661945881	-45.0	5.564053168500827	-56.0	
9.708966336696472	1934.0	-0.6534221135098038	2104.0	1.6206759241595772	1266.0	9.770692826486817	-15936.0	768.0	-0.47087676272225626	1.491109748620478	2432.0	0.0	4340.240478515625	11149.0	-0.2891304347826087	768.0	1.2	-163.0	-528.0	-0.4650698602794412	-233.0	0.2519270247631297	1.0283415724085272	-51.0	4.210408486406362	-57.0	
9.746876752631612	1938.0	-0.5678753041933337	2097.0	1.573717725327756	1263.0	9.849172286940528	-16064.0	576.0	-0.3531575720416922	1.4518700183936235	2368.0	0.0	4359.771728515625	11789.0	-0.28043478260869564	772.0	1.1777777777777778	-174.0	-508.0	-0.5049900199600799	-176.0	1.6732466292819226	1.29392961647644	-73.0	3.3292751382699186	-150.0	
9.698358710741598	1941.0	-0.5783653721185247	2098.0	1.5369830659163508	1267.0	9.770692826486817	-15936.0	704.0	-0.4316370324954016	1.4518700183936235	2368.0	0.0	4379.302978515625	12429.0	-0.2782608695652174	773.0	1.183838383838384	-171.0	-513.0	-0.49500998003992025	-105.0	2.482340043516642	1.9404807961130548	-117.0	2.241336295382324	-203.0	
9.68604441534742	1940.0	-0.578357588763655	2098.0	1.548908193567042	1268.0	9.770692826486817	-15936.0	640.0	-0.39239730226854685	1.4126302881667687	2304.0	0.0	4398.834228515625	13069.0	-0.27608695652173915	774.0	1.1777777777777778	-174.0	-522.0	-0.4770459081836328	-177.0	1.4122143426300109	1.266511587364024	-70.0	3.347094586611723	-133.0	
9.832938878782763	1937.0	-0.48450554329065243	2090.0	1.5874602369693784	1256.0	9.927651747394236	-16192.0	512.0	-0.3139178418148375	1.5303494788473329	2496.0	0.0	4418.365478515625	13709.0	-0.28043478260869564	772.0	1.1939393939393939	-166.0	-525.0	-0.471057884231537	-220.0	0.9018239398977723	1.755635183516727	-102.0	4.006190886076308	-99.0	
9.674816162297924	1939.0	-0.4686375883465847	2089.0	1.561941303811802	1269.0	9.770692826486817	-15936.0	384.0	-0.23543838136112813	1.3733905579399142	2240.0	0.0	4437.896728515625	14349.0	-0.29130434782608694	767.0	1.1939393939393939	-166.0	-517.0	-0.48702594810379246	-203.0	2.0670519963272977	1.8947725685861894	-116.0	3.7359834724321646	-175.0	
9.65067241577565	1938.0	-0.43181284761674393	2086.0	1.5741163065249621	1271.0	9.770692826486817	-15936.0	320.0	-0.19619865113427343	1.4518700183936235	2368.0	0.0	4457.427978515625	14989.0	-0.2847826086956522	770.0	1.197979797979798	-164.0	-519.0	-0.4830339321357286	-224.0	2.2709945922665415	2.0177275359908373	-126.0	4.053335681453761	-188.0	
9.69967746071131	1937.0	-0.39646541701232824	2083.0	1.5870080240514473	1267.0	9.770692826486817	-15936.0	320.0	-0.19619865113427343	1.3341508277130594	2176.0	0.0	4476.959228515625	15629.0	-0.2717391304347826	776.0	1.1737373737373737	-176.0	-515.0	-0.4910179640718563	-244.0	1.137477405283162	1.9345279943433935	-116.0	4.368853362829298	-114.0	
9.723711329759743	1943.0	-0.5052394607867972	2092.0	1.5138714656776808	1265.0	9.809932556713672	-16000.0	384.0	-0.23543838136112813	1.4126302881667687	2304.0	0.0	4496.490478515625	16269.0	-0.2739130434782609	775.0	1.187878787878788	-169.0	-510.0	-0.500998003992016	-262.0	0.5745824478483359	2.157657461764289	-129.0	4.648246570958779	-77.0	
9.723702694641508	1939.0	-0.45743221542329027	2088.0	1.5625422228644708	1265.0	9.809932556713672	-16000.0	448.0	-0.27467811158798283	1.4518700183936235	2368.0	0.0	4516.021728515625	16909.0	-0.2782608695652174	773.0	1.197979797979798	-164.0	-525.0	-0.471057884231537	-314.0	0.5035363996162036	1.9360647370070154	-116.0	5.439831556155929	-72.0	
9.615315527660792	1943.0	-0.36893078585596994	2081.0	1.5141505944059996	1274.0	9.692213366033108	-15808.0	320.0	-0.19619865113427343	1.4126302881667687	2304.0	0.0	4535.552978515625	17549.0	-0.28695652173913044	769.0	1.1757575757575758	-175.0	-498.0	-0.5249500998003993	-337.0	1.0441358283440405	1.9294241325746733	-119.0	5.78423544780021	-107.0	
9.552793791173759	1945.0	-0.5500765191897143	2096.0	1.487617534165623	1279.0	9.613733905579398	-15680.0	576.0	-0.3531575720416922	1.2949110974862048	2112.0	0.0	4555.084228515625	18189.0	-0.2826086956521739	771.0	1.197979797979798	-164.0	-513.0	-0.49500998003992025	-334.0	-3.926234315229983	2.20222447088383	-114.0	5.788311772810095	217.0	
9.710797995066523	1944.0	-0.5900865318149033	2099.0	1.5008456688493832	1266.0	9.809932556713672	-16000.0	704.0	-0.4316370324954016	1.3341508277130594	2176.0	0.0	4574.615478515625	18829.0	-0.28043478260869564	772.0	1.1939393939393939	-166.0	-521.0	-0.4790419161676647	-332.0	-9.975740202283358	1.9798091494913523	-71.0	5.818388580730058	611.0	
9.807372981155613	1948.0	-0.7373854947342664	2111.0	1.4521456579967431	1258.0	9.888412017167381	-16128.0	1024.0	-0.627835683629675	1.2949110974862048	2112.0	0.0	4594.146728515625	19469.0	-0.2782608695652174	773.0	1.1939393939393939	-166.0	-525.0	-0.471057884231537	-331.0	-12.82706741816822	2.32879492621721	-81.0	5.831692727413622	797.0	
9.891500047801543	1945.0	-0.8251560525937439	2118.0	1.4882538013978608	1251.0	10.006131207847945	-16320.0	1024.0	-0.627835683629675	1.3733905579399142	2240.0	0.0	4613.677978515625	20109.0	-0.2891304347826087	768.0	1.187878787878788	-169.0	-503.0	-0.5149700598802396	-363.0	-11.333962227138162	2.280369643053782	-86.0	6.3034536907124465	700.0	
9.929526817549199	1947.0	-0.7035153742552759	2108.0	1.4657540903365534	1248.0	9.966891477621092	-16256.0	768.0	-0.47087676272225626	1.3733905579399142	2240.0	0.0	4633.209228515625	20749.0	-0.2891304347826087	768.0	1.197979797979798	-164.0	-515.0	-0.4910179640718563	-370.0	-6.308458629736784	2.855871269925374	-148.0	6.359662533065429	373.0	
9.649131752078702	1951.0	-0.7456595974713199	2112.0	1.4143359263653503	1271.0	9.731453096259962	-15872.0	1024.0	-0.627835683629675	1.137952176578786	1856.0	0.0	4652.740478515625	21389.0	-0.30434782608695654	761.0	1.1696969696969697	-178.0	-500.0	-0.5209580838323354	-336.0	-3.5180427448745424	3.0871403361847505	-175.0	5.814648108057111	191.0	
9.770438730091312	1949.0	-0.7851693900331641	2115.0	1.4392502837620267	1261.0	9.888412017167381	-16128.0	1088.0	-0.6670754138565297	1.2949110974862048	2112.0	0.0	4672.271728515625	22029.0	-0.28695652173913044	769.0	1.1818181818181819	-172.0	-505.0	-0.5109780439121757	-322.0	-5.457788654986399	2.7059261306102877	-140.0	5.621117810504237	317.0	
9.929054925960465	1952.0	-0.8120354163206376	2117.0	1.4044232071445908	1248.0	9.966891477621092	-16256.0	1088.0	-0.6670754138565297	1.25567136725935	2048.0	0.0	4691.802978515625	22669.0	-0.3	763.0	1.187878787878788	-169.0	-521.0	-0.4790419161676647	-325.0	-3.8756371596989454	1.259650457898038	-51.0	5.650923671977218	213.0	
9.952832340808728	1951.0	-0.8615272733894583	2121.0	1.4162142554934694	1246.0	10.084610668301655	-16448.0	1152.0	-0.7063151440833844	1.2164316370324952	1984.0	0.0	4711.334228515625	23309.0	-0.29782608695652174	764.0	1.1818181818181819	-172.0	-517.0	-0.48702594810379246	-377.0	1.5484519275211661	1.1053714401570662	-68.0	6.387557305819846	-140.0	
9.661081874578427	1951.0	-0.7702863085060465	2114.0	1.4142091604800004	1270.0	9.809932556713672	-16000.0	896.0	-0.5493562231759657	1.3341508277130594	2176.0	0.0	4730.865478515625	23949.0	-0.3	763.0	1.1656565656565656	-180.0	-495.0	-0.530938123752495	-397.0	4.027422546966518	0.06609507102026324	-11.0	6.666950109131096	-302.0	
9.636201147149018	1944.0	-0.7348921777724123	2111.0	1.498651643910633	1272.0	9.731453096259962	-15872.0	960.0	-0.5885959534028203	1.3733905579399142	2240.0	0.0	4750.396728515625	24589.0	-0.2956521739130435	765.0	1.1919191919191918	-167.0	-520.0	-0.48103792415169666	-364.0	1.8231272975354922	-0.39009509141325016	31.0	6.187091920940995	-159.0	
9.795672836517381	1952.0	-0.7361855363825578	2111.0	1.4038478850495406	1259.0	9.888412017167381	-16128.0	896.0	-0.5493562231759657	1.3341508277130594	2176.0	0.0	4769.927978515625	25229.0	-0.2891304347826087	768.0	1.1797979797979798	-173.0	-519.0	-0.4830339321357286	-311.0	-0.284873187816057	-0.12117988913642218	25.0	5.402088275604397	-22.0	
9.794948808287593	1952.0	-0.8093270144240249	2117.0	1.4031092299868282	1259.0	9.849172286940528	-16064.0	1088.0	-0.6670754138565297	1.25567136725935	2048.0	0.0	4789.459228515625	25869.0	-0.29782608695652174	764.0	1.183838383838384	-171.0	-500.0	-0.5209580838323354	-350.0	-2.1720743383126737	-0.6582345859727178	68.0	6.014116180645485	101.0	
9.927714588195172	1946.0	-0.8744172580180668	2122.0	1.4760751419764695	1248.0	10.006131207847945	-16320.0	1152.0	-0.7063151440833844	1.2949110974862048	2112.0	0.0	4808.990478515625	26509.0	-0.29782608695652174	764.0	1.185858585858586	-170.0	-519.0	-0.4830339321357286	-391.0	-1.44555406087801	-0.7637283705578899	70.0	6.63042512235783	54.0	
9.805052160960361	1935.0	-0.8136266277675147	2117.0	1.6079865444885546	1258.0	9.888412017167381	-16128.0	960.0	-0.5885959534028203	1.4126302881667687	2304.0	0.0	4828.521728515625	27149.0	-0.2847826086956522	770.0	1.183838383838384	-171.0	-521.0	-0.4790419161676647	-367.0	3.4680679993143992	-0.16158047310719986	8.0	6.2162698903490625	-266.0	
9.697509693581063	1939.0	-0.6397934738184828	2103.0	1.5604566802699147	1267.0	9.770692826486817	-15936.0	832.0	-0.510116492949111	1.4518700183936235	2368.0	0.0	4848.052978515625	27789.0	-0.2891304347826087	768.0	1.185858585858586	-170.0	-510.0	-0.500998003992016	-319.0	4.70366068014821	-0.18839119528443365	6.0	5.473875940727035	-347.0	
9.710800153846082	1945.0	-0.6020383431557801	2100.0	1.4886779795526857	1266.0	9.809932556713672	-16000.0	704.0	-0.4316370324954016	1.3341508277130594	2176.0	0.0	4867.584228515625	28429.0	-0.29130434782608694	767.0	1.2	-163.0	-520.0	-0.48103792415169666	-332.0	1.9325589324658805	0.29641881606962683	-14.0	5.699305589382567	-166.0	
9.624871651743916	1952.0	-0.7449287257634771	2112.0	1.4020524413079967	1273.0	9.731453096259962	-15872.0	768.0	-0.47087676272225626	1.25567136725935	2048.0	0.0	4887.115478515625	29069.0	-0.28043478260869564	772.0	1.1777777777777778	-174.0	-515.0	-0.4910179640718563	-377.0	-0.8321696291700228	-0.6030002680129689	57.0	6.411363521386758	14.0	
9.416629783844483	1942.0	-0.7187468710546282	2110.0	1.520713768886934	1290.0	9.692213366033108	-15808.0	896.0	-0.5493562231759657	1.3733905579399142	2240.0	0.0	4906.646728515625	29709.0	-0.29347826086956524	766.0	1.202020202020202	-162.0	-510.0	-0.500998003992016	-415.0	-3.779566369575539	-1.245567031750105	112.0	7.018784256851649	206.0	
9.697151997025285	1941.0	-0.7002678355209697	2108.0	1.5357519741451633	1267.0	9.770692826486817	-15936.0	768.0	-0.47087676272225626	1.4126302881667687	2304.0	0.0	4926.177978515625	30349.0	-0.2891304347826087	768.0	1.202020202020202	-162.0	-523.0	-0.47504990019960086	-431.0	-9.450661657312729	-2.2698879923516166	206.0	7.318841217333584	575.0	
9.891267340176514	1949.0	-0.8973437906377398	2124.0	1.439336825856833	1251.0	9.888412017167381	-16128.0	960.0	-0.5885959534028203	1.3341508277130594	2176.0	0.0	4945.709228515625	30989.0	-0.29347826086956524	766.0	1.1777777777777778	-174.0	-505.0	-0.5109780439121757	-442.0	-9.383963762580489	-1.9064095873309579	181.0	7.485474618614399	571.0	
9.864708007442058	1947.0	-1.0923721653719125	2140.0	1.4612173343243153	1253.0	9.927651747394236	-16192.0	1536.0	-0.9417535254445125	1.3733905579399142	2240.0	0.0	4965.240478515625	31629.0	-0.29782608695652174	764.0	1.1898989898989898	-168.0	-507.0	-0.5069860279441119	-533.0	-3.4101997223901774	-1.4030320376300558	116.0	8.809767396463448	183.0	
9.621734196081503	1952.0	-1.0618751306098342	2138.0	1.398851602702909	1273.0	9.770692826486817	-15936.0	1472.0	-0.9025137952176578	1.2949110974862048	2112.0	0.0	4984.771728515625	32269.0	-0.2956521739130435	765.0	1.187878787878788	-169.0	-523.0	-0.47504990019960086	-562.0	2.9397413640208834	-0.7082077341898995	39.0	9.187332624382604	-230.0	
9.573093324040297	1954.0	-1.0726036335343931	2139.0	1.3741615234110827	1277.0	9.652973635806253	-15744.0	1536.0	-0.9417535254445125	1.2949110974862048	2112.0	0.0	5004.302978515625	32909.0	-0.30217391304347824	762.0	1.183838383838384	-171.0	-508.0	-0.5049900199600799	-516.0	2.516385037692306	-0.9056299067210467	56.0	8.491946415782774	-203.0	
9.658802071194783	1957.0	-1.0736118570159525	2139.0	1.338863950334559	1270.0	9.692213366033108	-15808.0	1600.0	-0.9809932556713672	1.137952176578786	1856.0	0.0	5023.834228515625	33549.0	-0.2891304347826087	768.0	1.1898989898989898	-168.0	-508.0	-0.5049900199600799	-441.0	0.5886195478417069	-0.6958450447053375	54.0	7.370539660034892	-78.0	
9.572500761079931	1959.0	-1.1933139219399993	2149.0	1.3127075310420013	1277.0	9.613733905579398	-15680.0	1600.0	-0.9809932556713672	1.1771919068056407	1920.0	0.0	5043.365478515625	34189.0	-0.2956521739130435	765.0	1.1898989898989898	-168.0	-521.0	-0.4790419161676647	-386.0	0.4705401109766947	-0.9240317073201723	72.0	6.535218553262857	-71.0	
9.62089597281876	1955.0	-1.1830622890141762	2148.0	1.3614867705729852	1273.0	9.692213366033108	-15808.0	1664.0	-1.020232985898222	1.2164316370324952	1984.0	0.0	5062.896728515625	34829.0	-0.2956521739130435	765.0	1.187878787878788	-169.0	-520.0	-0.48103792415169666	-356.0	0.34451611986066005	-0.7920619607312724	65.0	6.080205028915462	-63.0	
9.585164117911654	1954.0	-1.0850400982288753	2140.0	1.3741578667028513	1276.0	9.731453096259962	-15872.0	1600.0	-0.9809932556713672	1.1771919068056407	1920.0	0.0	5082.427978515625	35469.0	-0.2956521739130435	765.0	1.197979797979798	-164.0	-506.0	-0.5089820359281437	-316.0	0.8477971122789159	-0.5029056420806081	45.0	5.466807199979874	-96.0	
9.48776386123717	1959.0	-1.1306391617591143	2144.0	1.3124869096453826	1284.0	9.574494175352545	-15616.0	1600.0	-0.9809932556713672	1.1771919068056407	1920.0	0.0	5101.959228515625	36109.0	-0.29130434782608694	767.0	1.197979797979798	-164.0	-521.0	-0.4790419161676647	-258.0	0.9343534381323604	-0.1737947162948275	25.0	4.583812359154798	-102.0	
9.487513883375676	1955.0	-1.1072124090760964	2142.0	1.360911448477935	1284.0	9.496014714898834	-15488.0	1536.0	-0.9417535254445125	1.1771919068056407	1920.0	0.0	5121.490478515625	36749.0	-0.2826086956521739	771.0	1.187878787878788	-169.0	-509.0	-0.502994011976048	-202.0	-0.38030659826735125	-0.33308350791116154	44.0	3.745247932902826	-17.0	
9.560292025600479	1951.0	-1.0974532128587482	2141.0	1.409929592946694	1278.0	9.613733905579398	-15680.0	1600.0	-0.9809932556713672	1.2949110974862048	2112.0	0.0	5141.021728515625	37389.0	-0.2956521739130435	765.0	1.1919191919191918	-167.0	-501.0	-0.5189620758483035	-156.0	-1.2472370701281155	-0.37969288992826106	53.0	3.054297465758316	39.0	
9.49946616465496	1956.0	-1.1437909314516994	2145.0	1.3486169932958876	1283.0	9.613733905579398	-15680.0	1408.0	-0.8632740649908032	1.1771919068056407	1920.0	0.0	5160.552978515625	38029.0	-0.2826086956521739	771.0	1.187878787878788	-169.0	-517.0	-0.48702594810379246	-95.0	-0.4554672602880454	-0.08284722382278946	32.0	2.1186231136675193	-13.0	
9.499955326480158	1959.0	-1.1308853801133516	2144.0	1.31260636211427	1283.0	9.613733905579398	-15680.0	1536.0	-0.9417535254445125	1.2164316370324952	1984.0	0.0	5180.084228515625	38669.0	-0.30217391304347824	762.0	1.1797979797979798	-173.0	-509.0	-0.502994011976048	-51.0	-0.9224454803572611	-0.06855499011384794	35.0	1.4540913749556639	17.0	
9.609176399164506	1950.0	-1.0742960285945768	2139.0	1.4226982012960603	1274.0	9.692213366033108	-15808.0	1408.0	-0.8632740649908032	1.2949110974862048	2112.0	0.0	5199.615478515625	39309.0	-0.29347826086956524	766.0	1.1919191919191918	-167.0	-497.0	-0.5269461077844312	-41.0	-1.8929808185261416	-0.2797796516015726	54.0	1.311705473584501	80.0	
9.59734694803641	1950.0	-1.0374790712196058	2136.0	1.422948076358529	1275.0	9.692213366033108	-15808.0	1216.0	-0.745554874310239	1.25567136725935	2048.0	0.0	5219.146728515625	39949.0	-0.29347826086956524	766.0	1.2	-163.0	-523.0	-0.47504990019960086	44.0	-1.7177424237689762	0.11955487269432076	30.0	0.01717742423768976	68.0	
9.561259555353086	1952.0	-1.0118830534776686	2134.0	1.3987467770669466	1278.0	9.613733905579398	-15680.0	1408.0	-0.8632740649908032	1.2949110974862048	2112.0	0.0	5238.677978515625	40589.0	-0.28695652173913044	769.0	1.1818181818181819	-172.0	-515.0	-0.4910179640718563	76.0	-0.8877720618768201	0.725934277284407	-13.0	-0.4778142945903573	14.0	
9.525292834041394	1954.0	-0.974096789395487	2131.0	1.3746685869524828	1281.0	9.53525444512569	-15552.0	1344.0	-0.8240343347639485	1.1771919068056407	1920.0	0.0	5258.209228515625	41229.0	-0.3	763.0	1.202020202020202	-162.0	-509.0	-0.502994011976048	127.0	-1.6910879315648772	0.9777892190136628	-24.0	-1.2454465351330206	66.0	
9.658534823096822	1945.0	-0.9545706136059208	2129.0	1.4846300035406916	1270.0	9.809932556713672	-16000.0	1152.0	-0.7063151440833844	1.3341508277130594	2176.0	0.0	5277.740478515625	41869.0	-0.2956521739130435	765.0	1.197979797979798	-164.0	-522.0	-0.4770459081836328	103.0	-2.161684847759242	1.1308745376576503	-33.0	-0.8757215545642326	97.0	
