Device	Device	Device	Device	Device	Device	Device	Device	Device	Device	Device	Device	Device	Device	Device	Device	Device	Device	Device	Device	Device	Device	Device	Device	Device	Device	Device	
Low Noise Accelerometer X	Low Noise Accelerometer X	Low Noise Accelerometer Z	Low Noise Accelerometer Z	Low Noise Accelerometer Y	Low Noise Accelerometer Y	Wide Range Accelerometer X	Wide Range Accelerometer X	Wide Range Accelerometer Z	Wide Range Accelerometer Z	Wide Range Accelerometer Y	Wide Range Accelerometer Y	Event_Marker	Timestamp	Timestamp	Magnetometer Z	Magnetometer Z	Magnetometer X	Magnetometer X	Magnetometer Y	Magnetometer Y	Gyroscope Y	Gyroscope Y	Gyroscope Z	Gyroscope Z	Gyroscope X	Gyroscope X	
UNCAL	CAL	UNCAL	CAL	CAL	UNCAL	UNCAL	CAL	CAL	UNCAL	CAL	UNCAL	CAL	UNCAL	CAL	CAL	UNCAL	UNCAL	CAL	CAL	UNCAL	CAL	UNCAL	UNCAL	CAL	CAL	UNCAL	
no units	m/(s^2)	no units	m/(s^2)	m/(s^2)	no units	no units	m/(s^2)	m/(s^2)	no units	m/(s^2)	no units	no units	no units	ms	local_flux	no units	no units	local_flux	local_flux	no units	deg/s	no units	no units	deg/s	deg/s	no units	
1997.0	9.777782633807982	2103.0	-0.6274415539805763	0.8625877481476714	1261.0	-16064.0	9.849172286940528	-0.510116492949111	832.0	0.7063151440833844	1152.0	0.0	48814.0	1489.68505859375	-0.40217391304347827	716.0	-190.0	1.1454545454545455	-0.530938123752495	-495.0	-0.14996015520710484	-142.0	86.0	-0.9422988766287596	2.830396939955113	-33.0	
1992.0	9.764977017809047	2103.0	-0.6283875106231778	0.9226911962766777	1262.0	-16064.0	9.849172286940528	-0.4316370324954016	704.0	0.745554874310239	1216.0	0.0	49454.0	1509.21630859375	-0.391304347826087	721.0	-189.0	1.1474747474747475	-0.4990019960079841	-511.0	-0.22827337696681646	-137.0	92.0	-1.0237614737879823	2.7551344447962847	-28.0	
1992.0	9.740594087323071	2103.0	-0.6278950739147027	0.9224522913389027	1264.0	-15936.0	9.770692826486817	-0.4316370324954016	704.0	0.745554874310239	1216.0	0.0	50094.0	1528.74755859375	-0.39565217391304347	719.0	-192.0	1.1414141414141414	-0.500998003992016	-510.0	0.2224640463649125	-144.0	59.0	-0.5646387298967945	2.857090948889963	-57.0	
1994.0	9.667328942052626	2106.0	-0.6625116328112756	0.897277088755064	1270.0	-15936.0	9.770692826486817	-0.47087676272225626	768.0	0.7063151440833844	1152.0	0.0	50734.0	1548.27880859375	-0.3934782608695652	720.0	-190.0	1.1454545454545455	-0.5129740518962077	-504.0	0.15185461081619497	-161.0	35.0	-0.21024642855077524	3.116352176325299	-52.0	
1998.0	9.716224109514442	2109.0	-0.6991135052514881	0.8492072506209426	1266.0	-15872.0	9.731453096259962	-0.5493562231759657	896.0	0.745554874310239	1216.0	0.0	51374.0	1567.81005859375	-0.4	717.0	-188.0	1.1494949494949496	-0.5249500998003993	-498.0	-0.3057004398796192	-159.0	16.0	0.107673704230069	3.090509475881686	-22.0	
1999.0	9.667219064578786	2112.0	-0.7344609358559038	0.8363155330944575	1270.0	-16064.0	9.849172286940528	-0.510116492949111	832.0	0.6670754138565297	1088.0	0.0	52014.0	1587.34130859375	-0.3978260869565217	718.0	-196.0	1.1333333333333333	-0.5429141716566867	-489.0	-0.7937825092120709	-196.0	34.0	-0.15073035691408124	3.658127939160562	10.0	
1997.0	9.71573926524836	2112.0	-0.7359226792715894	0.860882503209165	1266.0	-15936.0	9.770692826486817	-0.5885959534028203	960.0	0.6670754138565297	1088.0	0.0	52654.0	1606.87255859375	-0.39565217391304347	719.0	-203.0	1.1191919191919193	-0.5708582834331338	-475.0	-1.2085636147970846	-179.0	22.0	0.06839065833534085	3.4037206171365644	37.0	
1998.0	9.70354995878493	2113.0	-0.7476282722582285	0.84859536144358	1267.0	-15936.0	9.770692826486817	-0.5885959534028203	960.0	0.627835683629675	1024.0	0.0	53294.0	1626.40380859375	-0.40869565217391307	713.0	-193.0	1.1393939393939394	-0.5508982035928145	-485.0	-1.3026045251026859	-159.0	16.0	0.17705822856159442	3.100478516733917	43.0	
1999.0	9.630403326106558	2114.0	-0.7581027734736803	0.8357109573335575	1273.0	-16000.0	9.809932556713672	-0.7063151440833844	1152.0	0.5885959534028203	960.0	0.0	53934.0	1645.93505859375	-0.3934782608695652	720.0	-198.0	1.1292929292929292	-0.5269461077844312	-497.0	-1.3965934875442685	-164.0	34.0	-0.08930703221379527	3.1774640337347586	49.0	
1994.0	9.666846256566101	2110.0	-0.7112726181722536	0.8967846520465889	1270.0	-15808.0	9.692213366033108	-0.627835683629675	1024.0	0.6670754138565297	1088.0	0.0	54574.0	1665.46630859375	-0.4043478260869565	715.0	-189.0	1.1474747474747475	-0.530938123752495	-495.0	-2.0847153735878794	-178.0	34.0	-0.04993085921131964	3.397273009249187	94.0	
1993.0	9.715368616015233	2111.0	-0.7246861729288159	0.9091839328645989	1266.0	-15936.0	9.770692826486817	-0.5493562231759657	896.0	0.7063151440833844	1152.0	0.0	55214.0	1684.99755859375	-0.391304347826087	721.0	-191.0	1.1434343434343435	-0.5049900199600799	-508.0	-2.261173909750084	-192.0	-3.0	0.5085561833200697	3.6119653512648013	106.0	
1989.0	9.727430774768356	2108.0	-0.6893153922597911	0.9578510333431577	1265.0	-15936.0	9.770692826486817	-0.5493562231759657	896.0	0.7063151440833844	1152.0	0.0	55854.0	1704.52880859375	-0.39565217391304347	719.0	-193.0	1.1393939393939394	-0.5069860279441119	-507.0	-1.92431247072971	-180.0	-11.0	0.6123510373773962	3.426087231171176	84.0	
1989.0	9.763643156382427	2111.0	-0.7266247863432371	0.9578400632184639	1262.0	-16064.0	9.849172286940528	-0.5493562231759657	896.0	0.745554874310239	1216.0	0.0	56494.0	1724.06005859375	-0.3934782608695652	720.0	-188.0	1.1494949494949496	-0.5149700598802396	-503.0	-1.906693169068041	-171.0	-35.0	0.976420109107869	3.2890289088769924	83.0	
1989.0	9.812650360097642	2109.0	-0.7032291670796982	0.9585640914482515	1258.0	-16128.0	9.888412017167381	-0.627835683629675	1024.0	0.745554874310239	1216.0	0.0	57134.0	1743.59130859375	-0.391304347826087	721.0	-191.0	1.1434343434343435	-0.5109780439121757	-505.0	-1.6118449032467477	-171.0	-58.0	1.3007262560136035	3.2860804262187795	64.0	
1989.0	9.848862741711715	2112.0	-0.7405385611631443	0.9585531213235576	1255.0	-16256.0	9.966891477621092	-0.5885959534028203	960.0	0.7847946045370937	1280.0	0.0	57774.0	1763.12255859375	-0.3934782608695652	720.0	-193.0	1.1393939393939394	-0.5289421157684632	-496.0	-1.2412144568624572	-172.0	-74.0	1.5142020718962605	3.297583247230222	40.0	
1993.0	9.910190717159784	2113.0	-0.7530061592771052	0.9108489540125615	1250.0	-16256.0	9.966891477621092	-0.627835683629675	1024.0	0.7847946045370937	1280.0	0.0	58414.0	1782.65380859375	-0.4043478260869565	715.0	-189.0	1.1474747474747475	-0.5229540918163673	-499.0	-1.0030692222388555	-148.0	-49.0	1.137415330319583	2.930182783477142	24.0	
1994.0	9.909830861824448	2117.0	-0.8015287096387155	0.8983119371845076	1250.0	-16320.0	10.006131207847945	-0.6670754138565297	1088.0	0.745554874310239	1216.0	0.0	59054.0	1802.18505859375	-0.39565217391304347	719.0	-189.0	1.1474747474747475	-0.502994011976048	-509.0	-1.1593010488217754	-152.0	-26.0	0.8010280191668122	2.9925816036441115	34.0	
1992.0	9.946521611365926	2114.0	-0.7661734956794302	0.923128782361684	1247.0	-16384.0	10.0453709380748	-0.5885959534028203	960.0	0.7847946045370937	1280.0	0.0	59694.0	1821.71630859375	-0.40217391304347827	716.0	-197.0	1.1313131313131313	-0.5608782435129741	-480.0	-0.937466006902427	-147.0	24.0	0.03900493793798583	2.9143176258484926	19.0	
1994.0	9.910192875939341	2114.0	-0.764957970617982	0.898681264715864	1250.0	-16320.0	10.006131207847945	-0.5885959534028203	960.0	0.7847946045370937	1280.0	0.0	60334.0	1841.24755859375	-0.40869565217391307	713.0	-188.0	1.1494949494949496	-0.530938123752495	-495.0	-0.2814809217784425	-124.0	25.0	-0.007651732297507069	2.557947889065693	-24.0	
1995.0	9.886294789719447	2111.0	-0.7276563598894056	0.8867671071898664	1252.0	-16192.0	9.927651747394236	-0.5885959534028203	960.0	0.745554874310239	1216.0	0.0	60974.0	1860.77880859375	-0.39565217391304347	719.0	-193.0	1.1393939393939394	-0.5049900199600799	-508.0	-0.5777724450807342	-110.0	44.0	-0.26337030322390065	2.3479830476447234	-5.0	
1995.0	9.825216792132874	2112.0	-0.7386155144584625	0.8860467356683102	1257.0	-16128.0	9.888412017167381	-0.627835683629675	1024.0	0.6670754138565297	1088.0	0.0	61614.0	1880.31005859375	-0.40652173913043477	714.0	-200.0	1.1252525252525252	-0.5508982035928145	-485.0	-0.04634354594762227	-103.0	73.0	-0.7308818081661375	2.2362048803263965	-40.0	
1992.0	9.739870059093283	2109.0	-0.7010365519561698	0.9217136362761902	1264.0	-15936.0	9.770692826486817	-0.5885959534028203	960.0	0.7063151440833844	1152.0	0.0	62254.0	1899.84130859375	-0.40217391304347827	716.0	-189.0	1.1474747474747475	-0.5149700598802396	-503.0	0.2044931852550834	-128.0	61.0	-0.5836391251556198	2.6139246498964988	-56.0	
1993.0	9.813503694817294	2106.0	-0.6657046880614935	0.9107550985012928	1258.0	-16192.0	9.927651747394236	-0.510116492949111	832.0	0.7063151440833844	1152.0	0.0	62894.0	1919.37255859375	-0.3934782608695652	720.0	-191.0	1.1434343434343435	-0.5209580838323354	-500.0	0.4553886312146205	-138.0	34.0	-0.2023874971851174	2.763506950189755	-72.0	
1992.0	9.653685102790945	2116.0	-0.7846447478582188	0.9200157047541463	1271.0	-15936.0	9.770692826486817	-0.6670754138565297	1088.0	0.745554874310239	1216.0	0.0	63534.0	1938.90380859375	-0.39565217391304347	719.0	-194.0	1.1373737373737374	-0.5409181636726548	-490.0	-0.6741212805070911	-29.0	-6.0	0.5422383296679945	1.1170073725008884	1.0	
1993.0	9.885566443930543	2115.0	-0.7768942152491192	0.9103638307205489	1252.0	-16128.0	9.888412017167381	-0.745554874310239	1216.0	0.7847946045370937	1280.0	0.0	64174.0	1958.43505859375	-0.40217391304347827	716.0	-201.0	1.1232323232323231	-0.5808383233532934	-470.0	-0.3420289504015363	-111.0	7.0	0.2743362232080754	2.360834738173217	-20.0	
1998.0	9.656232154272551	2101.0	-0.6003604427583444	0.8495948616934551	1271.0	-15808.0	9.692213366033108	-0.27467811158798283	448.0	0.6670754138565297	1088.0	0.0	64814.0	1977.96630859375	-0.3978260869565217	718.0	-195.0	1.1353535353535353	-0.5049900199600799	-508.0	2.6286348634417354	-152.0	-24.0	0.50740267217702	2.9547022445214766	-213.0	
1999.0	9.837416892494096	2116.0	-0.786668978176207	0.8374954309504076	1256.0	-16128.0	9.888412017167381	-0.627835683629675	1024.0	0.5885959534028203	960.0	0.0	65454.0	1997.49755859375	-0.4043478260869565	715.0	-195.0	1.1353535353535353	-0.5289421157684632	-496.0	1.0856002781355798	-126.0	13.0	0.07589273112796538	2.5746953280171234	-113.0	
1993.0	9.75133965488604	2116.0	-0.7863760596927512	0.9089267443856676	1263.0	-16128.0	9.888412017167381	-0.7063151440833844	1152.0	0.745554874310239	1216.0	0.0	558.0	2017.02880859375	-0.40217391304347827	716.0	-186.0	1.1535353535353536	-0.5249500998003993	-498.0	-0.3200357570670977	-171.0	21.0	0.026408543337550924	3.2731623347569827	-21.0	
1992.0	9.764011646835996	2111.0	-0.7259094813451338	0.9217063228597276	1262.0	-16064.0	9.849172286940528	-0.5493562231759657	896.0	0.745554874310239	1216.0	0.0	1198.0	2036.56005859375	-0.3934782608695652	720.0	-190.0	1.1454545454545455	-0.502994011976048	-509.0	0.7783965467021361	-168.0	57.0	-0.5879473848802872	3.216550635293435	-93.0	
1993.0	9.751822340372566	2112.0	-0.7376150743317731	0.9094191810941425	1263.0	-16064.0	9.849172286940528	-0.627835683629675	1024.0	0.7847946045370937	1280.0	0.0	1838.0	2056.09130859375	-0.40652173913043477	714.0	-196.0	1.1333333333333333	-0.5349301397205589	-493.0	0.43893254703541873	-156.0	59.0	-0.5870053177715987	3.03743576958668	-71.0	
1995.0	9.800471847532002	2115.0	-0.774693816770721	0.8854385031991788	1259.0	-16064.0	9.849172286940528	-0.6670754138565297	1088.0	0.7063151440833844	1152.0	0.0	2478.0	2075.62255859375	-0.39565217391304347	719.0	-190.0	1.1454545454545455	-0.5049900199600799	-508.0	-1.163087256416307	-177.0	126.0	-1.4927781559750357	3.372847602602186	33.0	
1991.0	9.678186545868995	2114.0	-0.7609951268855726	0.9325454081657376	1269.0	-16000.0	9.809932556713672	-0.5885959534028203	960.0	0.7847946045370937	1280.0	0.0	3118.0	2095.15380859375	-0.3891304347826087	722.0	-193.0	1.1393939393939394	-0.5129740518962077	-504.0	-0.5316839300515945	-205.0	136.0	-1.7036830855035985	3.792389082646524	-8.0	
1987.0	9.665745102764513	2112.0	-0.7373221558483172	0.9808504945294027	1270.0	-15936.0	9.770692826486817	-0.6670754138565297	1088.0	0.8240343347639485	1344.0	0.0	3758.0	2114.68505859375	-0.39565217391304347	719.0	-192.0	1.1414141414141414	-0.5249500998003993	-498.0	-0.5454837148861745	-195.0	116.0	-1.3967888953264789	3.640435825742018	-7.0	
1987.0	9.71402827824994	2116.0	-0.7870680146262452	0.9808358676964777	1266.0	-15936.0	9.770692826486817	-0.6670754138565297	1088.0	0.8240343347639485	1344.0	0.0	4398.0	2134.21630859375	-0.4	717.0	-186.0	1.1535353535353536	-0.5169660678642716	-502.0	-0.9780780471547024	-160.0	103.0	-1.150485005409553	3.1124423774297223	21.0	
1989.0	9.702444487424223	2113.0	-0.7497741872525385	0.9569965825197889	1267.0	-15936.0	9.770692826486817	-0.5885959534028203	960.0	0.7063151440833844	1152.0	0.0	5038.0	2153.74755859375	-0.3978260869565217	718.0	-193.0	1.1393939393939394	-0.5209580838323354	-500.0	-0.37418426116534176	-145.0	50.0	-0.3887878389785668	2.878266557440551	-18.0	
1991.0	9.678186545868995	2114.0	-0.7609951268855726	0.9325454081657376	1269.0	-15936.0	9.770692826486817	-0.7063151440833844	1152.0	0.7847946045370937	1280.0	0.0	5678.0	2173.27880859375	-0.3978260869565217	718.0	-195.0	1.1353535353535353	-0.5389221556886228	-491.0	0.322279777428767	-143.0	6.0	0.22362515889084716	2.8408836661040393	-63.0	
1990.0	9.812411176133939	2112.0	-0.739561471101064	0.9461501837973164	1258.0	-16064.0	9.849172286940528	-0.5493562231759657	896.0	0.7847946045370937	1280.0	0.0	6318.0	2192.81005859375	-0.4	717.0	-188.0	1.1494949494949496	-1.003992015968064	-258.0	-0.6697355170956734	-157.0	-13.0	0.5690098843379813	3.0637315757032764	2.0	
1992.0	9.763890975464365	2112.0	-0.7380997276853783	0.9215832136826089	1262.0	-16128.0	9.888412017167381	-0.627835683629675	1024.0	0.745554874310239	1216.0	0.0	6958.0	2212.34130859375	-0.3978260869565217	718.0	-187.0	1.1515151515151516	-0.4970059880239522	-512.0	-0.34835304115963495	-143.0	-22.0	0.6900913080121261	2.8475899942899234	-19.0	
1993.0	9.764013805615555	2112.0	-0.7378612926860105	0.9095386335630301	1262.0	-16064.0	9.849172286940528	-0.627835683629675	1024.0	0.7063151440833844	1152.0	0.0	7598.0	2231.87255859375	-0.3934782608695652	720.0	-192.0	1.1414141414141414	-0.5229540918163673	-499.0	-0.3252213067741745	-118.0	4.0	0.31388536732290895	2.46713054006394	-21.0	
1991.0	9.714519598854697	2116.0	-0.7861142746287741	0.9326575472181626	1266.0	-15936.0	9.770692826486817	-0.7063151440833844	1152.0	0.745554874310239	1216.0	0.0	8238.0	2251.40380859375	-0.3934782608695652	720.0	-188.0	1.1494949494949496	-0.4930139720558883	-514.0	-0.7289969897099342	-136.0	55.0	-0.4335801066413902	2.7449325554484303	5.0	
1987.0	9.616375884934403	2117.0	-0.7972885141325896	0.9797571387682588	1274.0	-15872.0	9.731453096259962	-0.7063151440833844	1152.0	0.745554874310239	1216.0	0.0	8878.0	2270.93505859375	-0.3934782608695652	720.0	-195.0	1.1353535353535353	-0.5069860279441119	-507.0	-0.8205771877397366	-200.0	12.0	0.17853617509416922	3.7192323878469793	12.0	
1990.0	9.628453155144435	2121.0	-0.8455804128497019	0.943250414169935	1273.0	-15872.0	9.731453096259962	-0.7063151440833844	1152.0	0.745554874310239	1216.0	0.0	9518.0	2290.46630859375	-0.39565217391304347	719.0	-194.0	1.1373737373737374	-0.530938123752495	-495.0	-1.5621191822482792	-155.0	4.0	0.37746395375248465	3.0422371614042323	60.0	
1988.0	9.664540547827757	2123.0	-0.871176430591639	0.9674517134615176	1270.0	-15936.0	9.770692826486817	-0.745554874310239	1216.0	0.7847946045370937	1280.0	0.0	10158.0	2309.99755859375	-0.39565217391304347	719.0	-187.0	1.1515151515151516	-0.5149700598802396	-503.0	-1.7802757515442162	-115.0	-12.0	0.6568623117059531	2.436053708085785	74.0	
1989.0	9.713670581694162	2121.0	-0.8475423763287322	0.9561311615717264	1266.0	-15936.0	9.770692826486817	-0.6670754138565297	1088.0	0.8240343347639485	1344.0	0.0	10798.0	2329.52880859375	-0.391304347826087	721.0	-191.0	1.1434343434343435	-0.5049900199600799	-508.0	-1.025180906828388	-80.0	-70.0	1.495165703570435	1.8961833680036453	25.0	
1994.0	9.75061778543581	2123.0	-0.8714693490750949	0.8960204000262575	1263.0	-16000.0	9.809932556713672	-0.745554874310239	1216.0	0.745554874310239	1216.0	0.0	11438.0	2349.06005859375	-0.3978260869565217	718.0	-196.0	1.1333333333333333	-0.530938123752495	-495.0	-1.89811913885319	-100.0	-59.0	1.3788373629097477	2.2090952598295965	82.0	
1991.0	9.811568635312078	2120.0	-0.8368450068236521	0.9331207302607877	1258.0	-16128.0	9.888412017167381	-0.745554874310239	1216.0	0.745554874310239	1216.0	0.0	12078.0	2368.59130859375	-0.4043478260869565	715.0	-190.0	1.1454545454545455	-0.5469061876247505	-487.0	-2.3131909656466694	-119.0	-34.0	1.021354832990209	2.50221936212795	109.0	
1988.0	9.872640156559976	2116.0	-0.7900304182319652	0.9703441696724365	1253.0	-16128.0	9.888412017167381	-0.5885959534028203	960.0	0.9025137952176578	1472.0	0.0	12718.0	2388.12255859375	-0.40652173913043477	714.0	-188.0	1.1494949494949496	-0.5129740518962077	-504.0	-1.8611367335105622	-72.0	-26.0	0.8985449843420643	1.7828699224681857	79.0	
1991.0	9.83655492265621	2115.0	-0.7763862118309047	0.9339751810841564	1256.0	-16320.0	10.006131207847945	-0.5493562231759657	896.0	0.6670754138565297	1088.0	0.0	13358.0	2407.65380859375	-0.4	717.0	-192.0	1.1414141414141414	-0.5189620758483035	-501.0	-1.3955510135870397	-27.0	-4.0	0.5636815616321299	1.0938034188811177	48.0	
1994.0	9.849114878352768	2115.0	-0.7759171251870389	0.8979608931943076	1255.0	-16192.0	9.927651747394236	-0.5493562231759657	896.0	0.7063151440833844	1152.0	0.0	13998.0	2427.18505859375	-0.40217391304347827	716.0	-193.0	1.1393939393939394	-0.5069860279441119	-507.0	-0.9858045901756006	-29.0	27.0	0.06917886433276692	1.1201242055975735	21.0	
1991.0	9.80034254104214	2112.0	-0.7390768177474587	0.9339861512088501	1259.0	-16128.0	9.888412017167381	-0.627835683629675	1024.0	0.7847946045370937	1280.0	0.0	14638.0	2446.71630859375	-0.3891304347826087	722.0	-194.0	1.1373737373737374	-0.5049900199600799	-508.0	-0.37741059262413235	-89.0	17.0	0.14025777844375967	2.026587794139169	-18.0	
1990.0	9.690737866447318	2110.0	-0.7127187948781998	0.9452018774626789	1268.0	-16064.0	9.849172286940528	-0.627835683629675	1024.0	0.7847946045370937	1280.0	0.0	15278.0	2466.24755859375	-0.4043478260869565	715.0	-197.0	1.1313131313131313	-0.5269461077844312	-497.0	-0.4614486819736595	-116.0	-10.0	0.534478575148579	2.438074562865364	-12.0	
1994.0	9.775966086894838	2115.0	-0.7744398150616137	0.8972441783809826	1261.0	-16128.0	9.888412017167381	-0.6670754138565297	1088.0	0.7847946045370937	1280.0	0.0	15918.0	2485.77880859375	-0.4043478260869565	715.0	-189.0	1.1474747474747475	-0.5189620758483035	-501.0	-0.9899323513879432	-136.0	-46.0	1.0988238730921187	2.7475419090652107	23.0	
1995.0	9.824251421159824	2120.0	-0.8361374851804185	0.8850618622513602	1257.0	-16192.0	9.927651747394236	-0.745554874310239	1216.0	0.6670754138565297	1088.0	0.0	16558.0	2505.31005859375	-0.4	717.0	-198.0	1.1292929292929292	-0.5249500998003993	-498.0	0.0020869862409009735	-183.0	-70.0	1.3610062612546376	3.452450613027325	-41.0	
1990.0	9.83643209250502	2115.0	-0.7766246468302724	0.9460197612037352	1256.0	-16192.0	9.927651747394236	-0.627835683629675	1024.0	0.7063151440833844	1152.0	0.0	17198.0	2524.84130859375	-0.4043478260869565	715.0	-196.0	1.1333333333333333	-0.5349301397205589	-493.0	0.9869615559143822	-180.0	-95.0	1.6690966799655458	3.3969744909047352	-105.0	
1992.0	9.835953724577614	2121.0	-0.849289254873004	0.9211919459018652	1256.0	-16128.0	9.888412017167381	-0.745554874310239	1216.0	0.745554874310239	1216.0	0.0	17838.0	2544.37255859375	-0.4043478260869565	715.0	-186.0	1.1535353535353536	-0.500998003992016	-510.0	0.23604455436661595	-181.0	-98.0	1.7657296494986368	3.419692786395497	-56.0	
1991.0	9.90873834314109	2123.0	-0.8753854926782859	0.9337070224805314	1250.0	-16320.0	10.006131207847945	-0.6670754138565297	1088.0	0.745554874310239	1216.0	0.0	18478.0	2563.90380859375	-0.4	717.0	-202.0	1.121212121212121	-0.5469061876247505	-487.0	0.03166926006107999	-194.0	-52.0	1.0823902523213609	3.61945517051726	-43.0	
1991.0	9.79937717006909	2120.0	-0.8365987884694147	0.9330012777919001	1259.0	-16128.0	9.888412017167381	-0.745554874310239	1216.0	0.745554874310239	1216.0	0.0	19118.0	2583.43505859375	-0.4	717.0	-192.0	1.1414141414141414	-0.5349301397205589	-493.0	1.1335040395595986	-202.0	-28.0	0.6410155415611501	3.7301098265245565	-115.0	
1990.0	9.847778858146592	2122.0	-0.8622025895662215	0.9452774494327914	1255.0	-16192.0	9.927651747394236	-0.7847946045370937	1280.0	0.7063151440833844	1152.0	0.0	19758.0	2602.96630859375	-0.4	717.0	-195.0	1.1353535353535353	-0.5508982035928145	-485.0	0.45233678197934624	-176.0	-11.0	0.4493697094648914	3.3414842367429443	-71.0	
1990.0	9.787183546046544	2119.0	-0.8244007587743005	0.9450495146197101	1260.0	-16064.0	9.849172286940528	-0.6670754138565297	1088.0	0.8632740649908032	1408.0	0.0	20398.0	2622.49755859375	-0.391304347826087	721.0	-197.0	1.1313131313131313	-0.5069860279441119	-507.0	1.2087222258084112	-194.0	-26.0	0.6106622684540721	3.6076846408597874	-120.0	
1991.0	9.664788366909693	2124.0	-0.8826513719337801	0.9311948639256625	1270.0	-15936.0	9.770692826486817	-0.7063151440833844	1152.0	0.745554874310239	1216.0	0.0	21038.0	2642.02880859375	-0.3978260869565217	718.0	-193.0	1.1393939393939394	-0.5229540918163673	-499.0	1.1622422790670621	-199.0	-18.0	0.4909154176672055	3.6841950677036266	-117.0	
1989.0	9.762436442666115	2121.0	-0.8485272497456823	0.9566089714472764	1262.0	-15936.0	9.770692826486817	-0.7063151440833844	1152.0	0.745554874310239	1216.0	0.0	21678.0	2661.56005859375	-0.40652173913043477	714.0	-189.0	1.1474747474747475	-0.5169660678642716	-502.0	0.24787443974297468	-235.0	-22.0	0.5926242935922551	4.240867263207134	-57.0	
1991.0	9.737695815624361	2126.0	-0.9085091747396942	0.9316653603847501	1264.0	-16128.0	9.888412017167381	-0.745554874310239	1216.0	0.745554874310239	1216.0	0.0	22318.0	2681.09130859375	-0.4	717.0	-191.0	1.1434343434343435	-0.5209580838323354	-500.0	0.5012137501811093	-233.0	-77.0	1.4007963137707102	4.207915619152181	-73.0	
1992.0	9.7253858377893	2128.0	-0.9324050140665779	0.9192551094420462	1265.0	-16000.0	9.809932556713672	-0.7063151440833844	1152.0	0.7847946045370937	1280.0	0.0	22958.0	2700.62255859375	-0.3934782608695652	720.0	-195.0	1.1353535353535353	-0.5489021956087825	-486.0	0.7727920899889559	-193.0	-86.0	1.541161595813674	3.596834816742696	-91.0	
1994.0	9.774759373178526	2125.0	-0.8963422784640588	0.896013086609795	1261.0	-16128.0	9.888412017167381	-0.745554874310239	1216.0	0.7063151440833844	1152.0	0.0	23598.0	2720.15380859375	-0.4043478260869565	715.0	-188.0	1.1494949494949496	-0.5429141716566867	-489.0	1.0200206774891656	-183.0	-108.0	1.8598732187725437	3.4422712761148424	-107.0	
1995.0	9.787435682687597	2122.0	-0.859779322798195	0.8844572864904601	1260.0	-16064.0	9.849172286940528	-0.745554874310239	1216.0	0.745554874310239	1216.0	0.0	24238.0	2739.68505859375	-0.40217391304347827	716.0	-190.0	1.1454545454545455	-0.5049900199600799	-508.0	1.2939243905205158	-123.0	-152.0	2.5369815864037877	2.5269847104674183	-125.0	
1994.0	9.702093267207122	2121.0	-0.8461039829776558	0.895788808504945	1267.0	-15936.0	9.770692826486817	-0.6670754138565297	1088.0	0.7063151440833844	1152.0	0.0	24878.0	2759.21630859375	-0.39565217391304347	719.0	-190.0	1.1454545454545455	-0.5409181636726548	-490.0	1.3591566036104556	-164.0	-138.0	2.2976034061194968	3.1499065328232114	-129.0	
2000.0	9.959333703703537	2117.0	-0.8010829730594589	0.8265222663425851	1246.0	-16384.0	10.0453709380748	-0.7063151440833844	1152.0	0.627835683629675	1024.0	0.0	25518.0	2778.74755859375	-0.39565217391304347	719.0	-204.0	1.1171717171717173	-0.5688622754491018	-476.0	-0.1579127419536927	-78.0	-128.0	2.305585786724483	1.8570924354043277	-31.0	
2005.0	9.790232712030699	2109.0	-0.6989217703813386	0.7656119045972163	1260.0	-16000.0	9.809932556713672	-0.5493562231759657	896.0	0.5493562231759657	896.0	0.0	26158.0	2798.27880859375	-0.391304347826087	721.0	-194.0	1.1373737373737374	-0.5149700598802396	-503.0	2.3342368728767644	-99.0	-158.0	2.569131620576822	2.151562574237012	-193.0	
2005.0	9.912147364460582	2109.0	-0.7013839539237138	0.7668064292860913	1250.0	-16256.0	9.966891477621092	-0.6670754138565297	1088.0	0.5885959534028203	960.0	0.0	26798.0	2817.81005859375	-0.3891304347826087	722.0	-197.0	1.1313131313131313	-0.532934131736527	-494.0	1.0148312134649666	-131.0	-124.0	2.131749446427236	2.6514486460402553	-107.0	
2002.0	9.91141685989212	2112.0	-0.7386699979425506	0.8025708421134713	1250.0	-16256.0	9.966891477621092	-0.5885959534028203	960.0	0.5885959534028203	960.0	0.0	27438.0	2837.34130859375	-0.40217391304347827	716.0	-188.0	1.1494949494949496	-0.5269461077844312	-497.0	1.1358676230001734	-196.0	-152.0	2.5035716910353707	3.6388314378384394	-114.0	
1996.0	9.935424823585851	2109.0	-0.7040223056264989	0.8754465553000752	1248.0	-16320.0	10.006131207847945	-0.5885959534028203	960.0	0.7063151440833844	1152.0	0.0	28078.0	2856.87255859375	-0.3934782608695652	720.0	-196.0	1.1333333333333333	-0.5089820359281437	-506.0	2.6991162419800974	-239.0	-205.0	3.163212589987552	4.277191347085902	-215.0	
1996.0	9.95992842544346	2108.0	-0.6923244959947294	0.875808569414969	1246.0	-16384.0	10.0453709380748	-0.5493562231759657	896.0	0.6670754138565297	1088.0	0.0	28718.0	2876.40380859375	-0.3978260869565217	718.0	-193.0	1.1393939393939394	-0.56686626746507	-477.0	3.4369031395697647	-210.0	-244.0	3.7142128536435535	3.828748839326736	-263.0	
2003.0	9.935922620529285	2112.0	-0.7389239996516579	0.7907651669316675	1248.0	-16448.0	10.084610668301655	-0.627835683629675	1024.0	0.627835683629675	1024.0	0.0	29358.0	2895.93505859375	-0.391304347826087	721.0	-189.0	1.1474747474747475	-0.5089820359281437	-506.0	4.706516405804737	-149.0	-281.0	4.217680675153955	2.8882960526719907	-346.0	
2001.0	9.91129402974093	2112.0	-0.7389084329419184	0.8146154222330501	1250.0	-16320.0	10.006131207847945	-0.5493562231759657	896.0	0.627835683629675	1024.0	0.0	29998.0	2915.46630859375	-0.3869565217391304	723.0	-187.0	1.1515151515151516	-0.5109780439121757	-505.0	5.355736744382805	-132.0	-229.0	3.403226950009566	2.6232487162063625	-389.0	
2006.0	9.960915384212093	2110.0	-0.7143206386815406	0.7551165498649438	1246.0	-16512.0	10.123850398528509	-0.47087676272225626	768.0	0.5493562231759657	896.0	0.0	30638.0	2934.99755859375	-0.391304347826087	721.0	-189.0	1.1474747474747475	-0.5389221556886228	-491.0	4.906450407166318	-137.0	-194.0	2.906717822800369	2.703787206954953	-360.0	
2004.0	9.948478258666725	2110.0	-0.7145512903260386	0.7790862576352139	1247.0	-16448.0	10.084610668301655	-0.5493562231759657	896.0	0.5493562231759657	896.0	0.0	31278.0	2954.52880859375	-0.3891304347826087	722.0	-199.0	1.1272727272727272	-0.5249500998003993	-498.0	4.671803586578511	-162.0	-139.0	2.083252409891069	3.08636181204296	-345.0	
2002.0	9.887395943521035	2109.0	-0.701606822213342	0.8027012647070526	1252.0	-16192.0	9.927651747394236	-0.5885959534028203	960.0	0.6670754138565297	1088.0	0.0	31918.0	2974.06005859375	-0.391304347826087	721.0	-200.0	1.1252525252525252	-0.564870259481038	-478.0	4.643036027229652	-187.0	-25.0	0.3609000792601077	3.466877624518578	-344.0	
1998.0	9.71694813774423	2103.0	-0.625972027210021	0.8499459056836551	1266.0	-16064.0	9.849172286940528	-0.510116492949111	832.0	0.6670754138565297	1088.0	0.0	32558.0	2993.59130859375	-0.3847826086956522	724.0	-203.0	1.1191919191919193	-0.5349301397205589	-493.0	4.705915338088952	-193.0	73.0	-1.1163918782061097	3.5575035842616964	-349.0	
1999.0	9.668063764180204	2105.0	-0.6491292114741922	0.8371772973342888	1270.0	-15936.0	9.770692826486817	-0.5493562231759657	896.0	0.745554874310239	1216.0	0.0	33198.0	3013.12255859375	-0.3869565217391304	723.0	-187.0	1.1515151515151516	-0.530938123752495	-495.0	4.434943921296351	-169.0	118.0	-1.7575941758067382	3.1951942870227783	-332.0	
2000.0	9.703674947715676	2114.0	-0.7593416485997375	0.8243830920273038	1267.0	-16000.0	9.809932556713672	-0.627835683629675	1024.0	0.6670754138565297	1088.0	0.0	33838.0	3032.65380859375	-0.3739130434782609	729.0	-197.0	1.1313131313131313	-0.5209580838323354	-500.0	3.438924075298652	-211.0	153.0	-2.2385601565081847	3.8439377554447325	-267.0	
1994.0	9.373527062504595	2116.0	-0.7785048557120203	0.8931791377305761	1294.0	-15488.0	9.496014714898834	-0.6670754138565297	1088.0	0.745554874310239	1216.0	0.0	34478.0	3052.18505859375	-0.3804347826086957	726.0	-195.0	1.1353535353535353	-0.5548902195608784	-483.0	2.971613138274058	-252.0	241.0	-3.550318610905823	4.472185009301671	-237.0	
1997.0	9.67868218403287	2116.0	-0.7839450095698549	0.8600317090940275	1269.0	-15872.0	9.731453096259962	-0.7063151440833844	1152.0	0.6670754138565297	1088.0	0.0	35118.0	3071.71630859375	-0.3717391304347826	730.0	-197.0	1.1313131313131313	-0.5349301397205589	-493.0	1.7806370491657815	-259.0	110.0	-1.5076672392324695	4.59055864851975	-158.0	
1994.0	9.555916355662895	2120.0	-0.8309591163865611	0.8944784880554137	1279.0	-15680.0	9.613733905579398	-0.745554874310239	1216.0	0.7063151440833844	1152.0	0.0	35758.0	3091.24755859375	-0.3782608695652174	727.0	-188.0	1.1494949494949496	-0.5229540918163673	-499.0	2.4784374681498793	-198.0	102.0	-1.3991838522490594	3.6558239903375127	-204.0	
1996.0	9.630155507024622	2113.0	-0.7466278321315389	0.8719678068694126	1273.0	-15808.0	9.692213366033108	-0.6670754138565297	1088.0	0.745554874310239	1216.0	0.0	36398.0	3110.77880859375	-0.3760869565217391	728.0	-189.0	1.1474747474747475	-0.5469061876247505	-487.0	1.8094602131212183	-134.0	103.0	-1.3286801778304607	2.6891297324695485	-161.0	
1993.0	9.65416994705703	2113.0	-0.7478355738381174	0.9083404521659239	1271.0	-16000.0	9.809932556713672	-0.5885959534028203	960.0	0.7063151440833844	1152.0	0.0	37038.0	3130.31005859375	-0.3739130434782609	729.0	-189.0	1.1474747474747475	-0.5089820359281437	-506.0	0.8741086778359666	-120.0	88.0	-1.0301750444865583	2.485555491168409	-100.0	
1992.0	9.715366457235675	2110.0	-0.7127343615879392	0.9213516221612964	1266.0	-15936.0	9.770692826486817	-0.5885959534028203	960.0	0.8240343347639485	1344.0	0.0	37678.0	3149.84130859375	-0.3760869565217391	728.0	-192.0	1.1414141414141414	-0.5149700598802396	-503.0	1.2429610263010182	-116.0	79.0	-0.9184811741305468	2.4210304657826174	-124.0	
1989.0	9.62989905282445	2108.0	-0.687345645425891	0.9568954135920577	1273.0	-15872.0	9.731453096259962	-0.5885959534028203	960.0	0.7847946045370937	1280.0	0.0	38318.0	3169.37255859375	-0.3782608695652174	727.0	-189.0	1.1474747474747475	-0.5389221556886228	-491.0	1.169433761253327	-113.0	55.0	-0.5517184914711708	2.3761383620072385	-119.0	
1991.0	9.715484969827747	2108.0	-0.688592303906818	0.9336424206351127	1266.0	-15936.0	9.770692826486817	-0.510116492949111	832.0	0.745554874310239	1216.0	0.0	38958.0	3188.90380859375	-0.3847826086956522	724.0	-184.0	1.1575757575757575	-0.5249500998003993	-498.0	0.3661139772481475	-63.0	45.0	-0.31546414607258066	1.6237152860830317	-67.0	
1991.0	9.727435092327473	2110.0	-0.7132190149415445	0.9335156547497626	1265.0	-16064.0	9.849172286940528	-0.510116492949111	832.0	0.745554874310239	1216.0	0.0	39598.0	3208.43505859375	-0.3739130434782609	729.0	-188.0	1.1494949494949496	-0.5349301397205589	-493.0	0.5575501112544566	-26.0	62.0	-0.5611511590141386	1.0590632821574175	-80.0	
1991.0	9.740229914428618	2105.0	-0.6525140015945595	0.9342506531042439	1264.0	-15936.0	9.770692826486817	-0.5493562231759657	896.0	0.745554874310239	1216.0	0.0	40238.0	3227.96630859375	-0.3760869565217391	728.0	-191.0	1.1434343434343435	-0.5528942115768464	-484.0	0.37233914833676257	-18.0	62.0	-0.5433935558429759	0.9392423879843131	-68.0	
1993.0	9.777170641831592	2104.0	-0.6405855403182921	0.9106429594488676	1261.0	-16000.0	9.809932556713672	-0.47087676272225626	768.0	0.6670754138565297	1088.0	0.0	40878.0	3247.49755859375	-0.3739130434782609	729.0	-195.0	1.1353535353535353	-0.5129740518962077	-504.0	-0.18317916347834753	-3.0	70.0	-0.6155440360404805	0.7166606889731866	-32.0	
1994.0	9.765222678111426	2103.0	-0.6279106406244421	0.8986020360375202	1262.0	-16064.0	9.849172286940528	-0.47087676272225626	768.0	0.7063151440833844	1152.0	0.0	41518.0	3267.02880859375	-0.3673913043478261	732.0	-186.0	1.1535353535353536	-0.5049900199600799	-508.0	-0.5116975169940737	-3.0	113.0	-1.2373568198052014	0.7199458725083437	-11.0	
1991.0	9.667684479828845	2100.0	-0.5900854597679119	0.9341494841765128	1270.0	-16000.0	9.809932556713672	-0.39239730226854685	640.0	0.745554874310239	1216.0	0.0	42158.0	3286.56005859375	-0.3826086956521739	725.0	-187.0	1.1515151515151516	-0.5349301397205589	-493.0	-0.5203392811287133	9.0	159.0	-1.9191101452070864	0.5375227844462681	-11.0	
1991.0	9.667563808457214	2101.0	-0.6022757061081564	0.934026374999394	1270.0	-15872.0	9.731453096259962	-0.47087676272225626	768.0	0.745554874310239	1216.0	0.0	42798.0	3306.09130859375	-0.3782608695652174	727.0	-185.0	1.1555555555555554	-0.5049900199600799	-508.0	-0.9816786197975178	1.0	175.0	-2.131747907357844	0.6638091816352376	19.0	
1990.0	9.60624230934782	2103.0	-0.6256635420168256	0.9452274744202976	1275.0	-15808.0	9.692213366033108	-0.47087676272225626	768.0	0.8240343347639485	1344.0	0.0	43438.0	3325.62255859375	-0.3695652173913044	731.0	-193.0	1.1393939393939394	-0.5169660678642716	-502.0	-1.3089250879055077	-4.0	112.0	-1.167485642140651	0.7431272736927435	41.0	
1992.0	9.630508886021282	2106.0	-0.6622498477472987	0.9210078915875589	1273.0	-15936.0	9.770692826486817	-0.5493562231759657	896.0	0.7063151440833844	1152.0	0.0	44078.0	3345.15380859375	-0.3739130434782609	729.0	-186.0	1.1535353535353536	-0.5209580838323354	-500.0	-1.9121020924256404	-51.0	89.0	-0.8092700923126893	1.4639879410763477	81.0	
1989.0	9.678664913796403	2108.0	-0.688330518842841	0.9573732234676077	1269.0	-15936.0	9.770692826486817	-0.5493562231759657	896.0	0.8240343347639485	1344.0	0.0	44718.0	3364.68505859375	-0.3782608695652174	727.0	-184.0	1.1575757575757575	-0.5149700598802396	-503.0	-2.583538740414106	-65.0	80.0	-0.6361226781457184	1.6836300642102249	125.0	
1992.0	9.727437251107032	2111.0	-0.7251708262824212	0.9213479654530651	1265.0	-15872.0	9.731453096259962	-0.627835683629675	1024.0	0.7063151440833844	1152.0	0.0	45358.0	3384.21630859375	-0.3782608695652174	727.0	-191.0	1.1434343434343435	-0.5369261477045909	-492.0	-2.3177881021826803	-45.0	27.0	0.15215107646427714	1.3767900483222073	108.0	
1990.0	9.740107084277428	2105.0	-0.6527524365939273	0.9462952332238227	1264.0	-16128.0	9.888412017167381	-0.5885959534028203	960.0	0.745554874310239	1216.0	0.0	45998.0	3403.74755859375	-0.3739130434782609	729.0	-188.0	1.1494949494949496	-0.530938123752495	-495.0	-1.5166979569558146	-14.0	-27.0	0.9248497203446414	0.8972962571360981	56.0	
1991.0	9.777045652900846	2103.0	-0.628872163976783	0.9348552288651439	1261.0	-16064.0	9.849172286940528	-0.510116492949111	832.0	0.7063151440833844	1152.0	0.0	46638.0	3423.27880859375	-0.3847826086956522	724.0	-187.0	1.1515151515151516	-0.500998003992016	-510.0	-1.692620027810971	18.0	-10.0	0.7016890133663845	0.4123634626355242	67.0	
1993.0	9.826057174175178	2103.0	-0.6293801673949976	0.9112438785015365	1257.0	-16128.0	9.888412017167381	-0.5885959534028203	960.0	0.7847946045370937	1280.0	0.0	47278.0	3442.81005859375	-0.3760869565217391	728.0	-184.0	1.1575757575757575	-0.4970059880239522	-512.0	-1.2751111034317066	9.0	-24.0	0.8770501595322482	0.5450705026692981	40.0	
1993.0	9.728525452231272	2103.0	-0.6274104205610974	0.9102882587504364	1265.0	-16000.0	9.809932556713672	-0.5493562231759657	896.0	0.745554874310239	1216.0	0.0	47918.0	3462.34130859375	-0.3826086956521739	725.0	-184.0	1.1575757575757575	-0.5289421157684632	-496.0	-1.0170121747599752	-36.0	-65.0	1.4464027019143455	1.2269001597704137	24.0	
1989.0	9.837515976070144	2105.0	-0.6549606184271952	0.9592954330945015	1256.0	-16192.0	9.927651747394236	-0.510116492949111	832.0	0.7847946045370937	1280.0	0.0	48558.0	3481.87255859375	-0.3782608695652174	727.0	-187.0	1.1515151515151516	-0.4990019960079841	-511.0	-1.5547083695158956	-75.0	-21.0	0.8004299564103716	1.8254330152540947	59.0	
1991.0	9.77668363878595	2106.0	-0.6654429029975165	0.9344859013337877	1261.0	-16128.0	9.888412017167381	-0.47087676272225626	768.0	0.745554874310239	1216.0	0.0	49198.0	3501.40380859375	-0.3978260869565217	718.0	-192.0	1.1414141414141414	-0.5189620758483035	-501.0	-0.8754337867928541	-87.0	-39.0	1.015717132690978	2.001149775130286	15.0	
1995.0	9.850082408105376	2108.0	-0.6903469658059596	0.8867780773145602	1255.0	-16256.0	9.966891477621092	-0.5493562231759657	896.0	0.745554874310239	1216.0	0.0	49838.0	3520.93505859375	-0.3826086956521739	725.0	-190.0	1.1454545454545455	-0.5269461077844312	-497.0	-1.7536319405500524	-73.0	-26.0	0.8904542857330014	1.7970040000138656	72.0	
1993.0	9.922864867889295	2109.0	-0.7044913922703647	0.911460843189924	1249.0	-16320.0	10.006131207847945	-0.5493562231759657	896.0	0.7063151440833844	1152.0	0.0	50478.0	3540.46630859375	-0.3782608695652174	727.0	-189.0	1.1474747474747475	-0.5169660678642716	-502.0	-1.3592068457966342	-71.0	1.0	0.4594214279767861	1.7626414981157612	46.0	
1992.0	9.788153234578711	2113.0	-0.7507824107340979	0.9216990094432652	1260.0	-16064.0	9.849172286940528	-0.627835683629675	1024.0	0.7847946045370937	1280.0	0.0	51118.0	3559.99755859375	-0.3782608695652174	727.0	-190.0	1.1454545454545455	-0.5229540918163673	-499.0	-0.8326196367694014	-100.0	-5.0	0.4950833951659155	2.1984402648087586	12.0	
1993.0	9.849354062316474	2112.0	-0.7395848211656731	0.9103748008452426	1255.0	-16256.0	9.966891477621092	-0.7063151440833844	1152.0	0.745554874310239	1216.0	0.0	51758.0	3579.52880859375	-0.3869565217391304	723.0	-188.0	1.1494949494949496	-0.532934131736527	-494.0	-1.158177103297811	-109.0	27.0	0.032506789725160225	2.3385779687516095	33.0	
1994.0	9.848632192866244	2119.0	-0.824678110548017	0.8974684564858325	1255.0	-16256.0	9.966891477621092	-0.7063151440833844	1152.0	0.745554874310239	1216.0	0.0	52398.0	3599.06005859375	-0.3891304347826087	722.0	-203.0	1.1191919191919193	-0.5489021956087825	-486.0	-1.6447808150824472	-89.0	82.0	-0.7460459977013274	2.039261496363752	64.0	
1992.0	9.812294822321423	2115.0	-0.7756553401230619	0.9216916960268027	1258.0	-16000.0	9.809932556713672	-0.7063151440833844	1152.0	0.745554874310239	1216.0	0.0	53038.0	3618.59130859375	-0.3760869565217391	728.0	-187.0	1.1515151515151516	-0.502994011976048	-509.0	-1.3075560736625473	-99.0	93.0	-0.9405180311236518	2.187980503702405	42.0	
1989.0	9.762798456781008	2118.0	-0.8119565107249487	0.9569782989786326	1262.0	-16064.0	9.849172286940528	-0.6670754138565297	1088.0	0.745554874310239	1216.0	0.0	53678.0	3638.12255859375	-0.3869565217391304	723.0	-184.0	1.1575757575757575	-0.5269461077844312	-497.0	-1.2525362638190147	-70.0	107.0	-1.136599876811194	1.7463656668206997	38.0	
1987.0	9.738531880107548	2115.0	-0.7753702049944757	0.9811978818113715	1264.0	-16000.0	9.809932556713672	-0.6670754138565297	1088.0	0.7847946045370937	1280.0	0.0	54318.0	3657.65380859375	-0.3934782608695652	720.0	-185.0	1.1555555555555554	-0.4990019960079841	-511.0	-1.3777642541692305	-28.0	83.0	-0.7425125879293174	1.1088346767622246	46.0	
1991.0	9.76328545982665	2116.0	-0.7870991480457241	0.9331353570937126	1262.0	-16128.0	9.888412017167381	-0.6670754138565297	1088.0	0.7847946045370937	1280.0	0.0	54958.0	3677.18505859375	-0.3826086956521739	725.0	-189.0	1.1474747474747475	-0.5049900199600799	-508.0	-0.8696062140037146	-5.0	47.0	-0.2241578571550413	0.7539432104290106	13.0	
1987.0	9.775468289951407	2112.0	-0.7395381210364548	0.9819255667493901	1261.0	-16128.0	9.888412017167381	-0.5493562231759657	896.0	0.7063151440833844	1152.0	0.0	55598.0	3696.71630859375	-0.3869565217391304	723.0	-184.0	1.1575757575757575	-0.5389221556886228	-491.0	-0.9129284961602111	-7.0	31.0	0.017520703615043015	0.7847946842011458	16.0	
1992.0	9.80046537119333	2112.0	-0.7388383827480909	0.9219415710892713	1259.0	-16064.0	9.849172286940528	-0.510116492949111	832.0	0.8240343347639485	1344.0	0.0	56238.0	3716.24755859375	-0.3847826086956522	724.0	-184.0	1.1575757575757575	-0.5149700598802396	-503.0	-0.817457133066409	-6.0	7.0	0.3713043517177483	0.7686308450949227	10.0	
1992.0	9.861543368779902	2111.0	-0.7278792281790338	0.9226619426108277	1254.0	-16192.0	9.927651747394236	-0.5885959534028203	960.0	0.745554874310239	1216.0	0.0	56878.0	3735.77880859375	-0.3869565217391304	723.0	-191.0	1.1434343434343435	-0.5289421157684632	-496.0	-0.6468302127977478	-13.0	1.0	0.4451251854227252	0.8733884542192323	-1.0	
1989.0	9.861416221069595	2109.0	-0.7042140404966483	0.9590419013238015	1254.0	-16192.0	9.927651747394236	-0.5885959534028203	960.0	0.8240343347639485	1344.0	0.0	57518.0	3755.31005859375	-0.3891304347826087	722.0	-185.0	1.1555555555555554	-0.5229540918163673	-499.0	-0.9351966246473458	-41.0	8.0	0.34321374091825624	1.302127631645713	18.0	
1993.0	9.8861698007887	2110.0	-0.7159429835478966	0.9109793766061427	1252.0	-16256.0	9.966891477621092	-0.510116492949111	832.0	0.745554874310239	1216.0	0.0	58158.0	3774.84130859375	-0.40217391304347827	716.0	-184.0	1.1575757575757575	-0.5508982035928145	-485.0	-0.21819452193844477	-26.0	19.0	0.13751832862550256	1.0668207284893467	-29.0	
1988.0	9.898471143505528	2104.0	-0.6442398988575061	0.9720603847356366	1251.0	-16256.0	9.966891477621092	-0.5493562231759657	896.0	0.8240343347639485	1344.0	0.0	58798.0	3794.37255859375	-0.391304347826087	721.0	-186.0	1.1535353535353536	-0.4990019960079841	-511.0	-0.11411177629283024	-21.0	36.0	-0.12155656909451606	0.9897342736564646	-36.0	
1991.0	9.801428583386821	2103.0	-0.6293646006852581	0.935094133802919	1259.0	-16000.0	9.809932556713672	-0.47087676272225626	768.0	0.7063151440833844	1152.0	0.0	59438.0	3813.90380859375	-0.3891304347826087	722.0	-185.0	1.1555555555555554	-0.5189620758483035	-501.0	0.9254321055174545	-2.0	40.0	-0.2423199028997989	0.6903654508079434	-104.0	
1993.0	9.850440104661155	2103.0	-0.6298726041034726	0.9114827834393114	1255.0	-16192.0	9.927651747394236	-0.47087676272225626	768.0	0.7847946045370937	1280.0	0.0	60078.0	3833.43505859375	-0.3869565217391304	723.0	-186.0	1.1535353535353536	-0.4970059880239522	-512.0	1.1731503153065288	-20.0	42.0	-0.30049666813957565	0.9616525272651857	-120.0	
1991.0	9.874818717588013	2101.0	-0.6064614181301942	0.9360570669704816	1253.0	-16128.0	9.888412017167381	-0.47087676272225626	768.0	0.7847946045370937	1280.0	0.0	60718.0	3852.96630859375	-0.3934782608695652	720.0	-187.0	1.1515151515151516	-0.5269461077844312	-497.0	1.07625539510462	-64.0	15.0	0.0842767586693755	1.6318229973797524	-113.0	
1994.0	9.875066536669951	2102.0	-0.6179363594723353	0.8998002174346266	1253.0	-16256.0	9.966891477621092	-0.510116492949111	832.0	0.7847946045370937	1280.0	0.0	61358.0	3872.49755859375	-0.3847826086956522	724.0	-185.0	1.1555555555555554	-0.5429141716566867	-489.0	2.490719290829538	-60.0	-12.0	0.3930611328023671	1.5568418565213626	-205.0	
1995.0	9.912005105293368	2100.0	-0.5940560868551911	0.8883602130759478	1250.0	-16384.0	10.0453709380748	-0.39239730226854685	640.0	0.6670754138565297	1088.0	0.0	61998.0	3892.02880859375	-0.3847826086956522	724.0	-191.0	1.1434343434343435	-0.5189620758483035	-501.0	3.0863307007666636	-56.0	1.0	0.15913749002115168	1.4900492405208507	-244.0	
1994.0	9.814471224569903	2099.0	-0.5801345286804143	0.8995722826215452	1258.0	-16192.0	9.927651747394236	-0.5493562231759657	896.0	0.7847946045370937	1280.0	0.0	62638.0	3911.56005859375	-0.3804347826086957	726.0	-192.0	1.1414141414141414	-0.5209580838323354	-500.0	4.244648247962606	-106.0	-4.0	0.12306285652637344	2.23892233881315	-319.0	
1990.0	9.765696728479716	2095.0	-0.5313424098999573	0.9477652299327853	1262.0	-15872.0	9.731453096259962	-0.4316370324954016	704.0	0.8240343347639485	1344.0	0.0	63278.0	3931.09130859375	-0.3847826086956522	724.0	-181.0	1.1636363636363636	-0.5269461077844312	-497.0	3.9003112436530314	-138.0	-29.0	0.5023736251211031	2.729057724065371	-296.0	
1990.0	9.765696728479716	2095.0	-0.5313424098999573	0.9477652299327853	1262.0	-16000.0	9.809932556713672	-0.3531575720416922	576.0	0.7063151440833844	1152.0	0.0	63918.0	3950.62255859375	-0.3978260869565217	718.0	-187.0	1.1515151515151516	-0.5429141716566867	-489.0	3.166782599056731	-189.0	3.0	0.04264048287539396	3.512058409750878	-248.0	
1992.0	9.728523293451714	2102.0	-0.6154586092202208	0.9224559480471339	1265.0	-16128.0	9.888412017167381	-0.6670754138565297	1088.0	0.745554874310239	1216.0	0.0	64558.0	3970.15380859375	-0.3804347826086957	726.0	-187.0	1.1515151515151516	-0.5289421157684632	-496.0	2.1400115566050038	-289.0	95.0	-1.3260430992986927	5.043238667703912	-181.0	
1981.0	9.715584053403797	2097.0	-0.5568839441578063	1.0554424227792065	1266.0	-16000.0	9.809932556713672	-0.4316370324954016	704.0	0.8632740649908032	1408.0	0.0	65198.0	3989.68505859375	-0.3869565217391304	723.0	-181.0	1.1636363636363636	-0.5249500998003993	-498.0	3.297434183365643	-338.0	95.0	-1.436409600052792	5.776911589725279	-256.0	
1981.0	9.642193919202604	2099.0	-0.5797871267128702	1.054479489611644	1272.0	-15808.0	9.692213366033108	-0.4316370324954016	704.0	0.8632740649908032	1408.0	0.0	302.0	4009.21630859375	-0.3847826086956522	724.0	-181.0	1.1636363636363636	-0.4990019960079841	-511.0	2.4335871328516934	-370.0	57.0	-0.8260383835166005	6.272242075439545	-199.0	
1981.0	9.788250159375202	2101.0	-0.6071222396442094	1.0556667008840566	1260.0	-16064.0	9.849172286940528	-0.47087676272225626	768.0	0.8632740649908032	1408.0	0.0	942.0	4028.74755859375	-0.3717391304347826	730.0	-188.0	1.1494949494949496	-0.5249500998003993	-498.0	1.8824416509679212	-386.0	66.0	-0.9323450320148059	6.521099537862945	-163.0	
1983.0	9.629282743288945	2107.0	-0.6765860090818532	1.029286003486649	1273.0	-15872.0	9.731453096259962	-0.510116492949111	832.0	0.9025137952176578	1472.0	0.0	1582.0	4048.27880859375	-0.3804347826086957	726.0	-183.0	1.1595959595959595	-0.5429141716566867	-489.0	4.0262319292641955	-395.0	-5.0	-0.022560354438387886	6.6365437643575484	-302.0	
1984.0	9.690966256513232	2102.0	-0.6166274341524505	1.0184542315971015	1268.0	-15872.0	9.731453096259962	-0.47087676272225626	768.0	0.8632740649908032	1408.0	0.0	2222.0	4067.81005859375	-0.3717391304347826	730.0	-189.0	1.1474747474747475	-0.5049900199600799	-508.0	2.258488591769492	-381.0	8.0	-0.08591085660823394	6.441293441078503	-187.0	
1985.0	9.799726231506634	2111.0	-0.7283171814034208	1.0063767411034414	1259.0	-16128.0	9.888412017167381	-0.5493562231759657	896.0	0.8240343347639485	1344.0	0.0	2862.0	4087.34130859375	-0.3739130434782609	729.0	-190.0	1.1454545454545455	-0.5089820359281437	-506.0	0.9438648459653104	-354.0	55.0	-0.682634864548874	6.043793290703845	-102.0	
1985.0	9.726577440048706	2111.0	-0.7268398712779958	1.0056600262901165	1265.0	-16000.0	9.809932556713672	-0.4316370324954016	704.0	0.8240343347639485	1344.0	0.0	3502.0	4106.87255859375	-0.3847826086956522	724.0	-181.0	1.1636363636363636	-0.5189620758483035	-501.0	2.1878879178091677	-372.0	61.0	-0.8701244631801675	6.30511731854054	-183.0	
1986.0	9.69024654584256	2110.0	-0.713672534875671	0.993380197940994	1268.0	-15936.0	9.770692826486817	-0.5493562231759657	896.0	0.8240343347639485	1344.0	0.0	4142.0	4126.40380859375	-0.3695652173913044	731.0	-187.0	1.1515151515151516	-0.5049900199600799	-508.0	2.1348535359050635	-291.0	29.0	-0.3373955837196878	5.073708498861482	-180.0	
1983.0	9.702793548861766	2104.0	-0.6414925801865448	1.0303720458313304	1267.0	-15936.0	9.770692826486817	-0.627835683629675	1024.0	0.9025137952176578	1472.0	0.0	4782.0	4145.93505859375	-0.3804347826086957	726.0	-184.0	1.1575757575757575	-0.5409181636726548	-490.0	1.4216003635277723	-243.0	34.0	-0.3335141607503105	4.350803007771566	-134.0	
1985.0	9.690244387063002	2109.0	-0.7017207235347942	1.0055478872376915	1268.0	-15872.0	9.731453096259962	-0.5885959534028203	960.0	0.8240343347639485	1344.0	0.0	5422.0	4165.46630859375	-0.3760869565217391	728.0	-180.0	1.1656565656565656	-0.5229540918163673	-499.0	2.7573279585951895	-189.0	-28.0	0.5359061420434212	3.516152956155493	-221.0	
1988.0	9.642329702031143	2105.0	-0.6512595597587628	0.9694287737118802	1272.0	-15872.0	9.731453096259962	-0.5493562231759657	896.0	0.7847946045370937	1280.0	0.0	6062.0	4184.99755859375	-0.3739130434782609	729.0	-176.0	1.1737373737373737	-0.4970059880239522	-512.0	2.9031457570628945	-152.0	-116.0	1.8676070588085736	2.951957135585265	-230.0	
1987.0	9.71511432059462	2107.0	-0.6773557975640446	0.9819438502905465	1266.0	-16000.0	9.809932556713672	-0.5493562231759657	896.0	0.7847946045370937	1280.0	0.0	6702.0	4204.52880859375	-0.3673913043478261	732.0	-188.0	1.1494949494949496	-0.5249500998003993	-498.0	2.043221990316789	-153.0	-108.0	1.8069093579700835	2.9757654987280113	-174.0	
1985.0	9.691089086664421	2102.0	-0.6163889991530827	1.0064096514775227	1268.0	-15808.0	9.692213366033108	-0.3531575720416922	576.0	0.8632740649908032	1408.0	0.0	7342.0	4224.06005859375	-0.3717391304347826	730.0	-183.0	1.1595959595959595	-0.532934131736527	-494.0	2.5373404105618462	-143.0	-140.0	2.2583624860511717	2.8187330597727085	-206.0	
1986.0	9.655120206573171	2098.0	-0.5666509237300242	0.9944991506597565	1271.0	-15808.0	9.692213366033108	-0.510116492949111	832.0	0.8632740649908032	1408.0	0.0	7982.0	4243.59130859375	-0.3630434782608696	734.0	-182.0	1.1616161616161615	-0.500998003992016	-510.0	3.0920253692741757	-103.0	-196.0	3.0836712235803017	2.2048211911741786	-242.0	
1984.0	9.703037050384589	2103.0	-0.6290638988469325	1.0184505748888704	1267.0	-15936.0	9.770692826486817	-0.5885959534028203	960.0	0.8240343347639485	1344.0	0.0	8622.0	4263.12255859375	-0.3630434782608696	734.0	-186.0	1.1535353535353536	-0.502994011976048	-509.0	2.491351876943621	-99.0	-183.0	2.933009009996917	2.1499914241963434	-203.0	
1978.0	9.739719164807836	2096.0	-0.5459014395241402	1.0919381772528367	1264.0	-15936.0	9.770692826486817	-0.47087676272225626	768.0	0.7847946045370937	1280.0	0.0	9262.0	4282.65380859375	-0.3695652173913044	731.0	-179.0	1.1676767676767676	-0.5229540918163673	-499.0	2.3443766949321123	-111.0	-214.0	3.400705718628685	2.333970681719881	-193.0	
1976.0	9.787756679990885	2100.0	-0.5961241683008038	1.116012710659069	1260.0	-16192.0	9.927651747394236	-0.4316370324954016	704.0	1.020232985898222	1664.0	0.0	9902.0	4302.18505859375	-0.3739130434782609	729.0	-185.0	1.1555555555555554	-0.5349301397205589	-493.0	2.1381702931018873	-56.0	-222.0	3.5684577902267036	1.4995308445974984	-180.0	
1983.0	9.910410472107463	2101.0	-0.6091075531878489	1.0327720653337742	1250.0	-16256.0	9.966891477621092	-0.4316370324954016	704.0	0.8632740649908032	1408.0	0.0	10542.0	4321.71630859375	-0.36086956521739133	735.0	-185.0	1.1555555555555554	-0.532934131736527	-494.0	2.3308959644800025	-34.0	-199.0	3.223600527710141	1.1630028274274433	-193.0	
1988.0	9.850187968020101	2100.0	-0.594494040079578	0.9720750115685616	1255.0	-16128.0	9.888412017167381	-0.47087676272225626	768.0	0.8240343347639485	1344.0	0.0	11182.0	4341.24755859375	-0.3673913043478261	732.0	-192.0	1.1414141414141414	-0.5728542914171657	-474.0	3.6531214666754397	15.0	-166.0	2.6666308950007416	0.4045334241165156	-280.0	
1991.0	9.815068105089384	2091.0	-0.4833278629565615	0.9366908963972316	1258.0	-16192.0	9.927651747394236	-0.3139178418148375	512.0	0.8240343347639485	1344.0	0.0	11822.0	4360.77880859375	-0.3652173913043478	733.0	-183.0	1.1595959595959595	-0.5109780439121757	-505.0	3.646505464180162	47.0	-153.0	2.4916565006571414	-0.08209243106765715	-280.0	
2000.0	9.828003027578184	2094.0	-0.5179989053372225	0.8280398002585541	1257.0	-16192.0	9.927651747394236	-0.3531575720416922	576.0	0.6670754138565297	1088.0	0.0	12462.0	4380.31005859375	-0.3630434782608696	734.0	-188.0	1.1494949494949496	-0.56686626746507	-477.0	2.9352204004268323	62.0	-129.0	2.1904673264245216	-0.3031164625594014	-234.0	
1999.0	9.852625142027867	2091.0	-0.48215903802433174	0.8406926128472639	1255.0	-16256.0	9.966891477621092	-0.3531575720416922	576.0	0.627835683629675	1024.0	0.0	13102.0	4399.84130859375	-0.3717391304347826	730.0	-183.0	1.1595959595959595	-0.5389221556886228	-491.0	1.3806039261130438	14.0	-45.0	1.0100967972816353	0.4424677249974247	-133.0	
1996.0	9.558092757911371	2104.0	-0.6354383049439134	0.8723590746501563	1279.0	-15680.0	9.613733905579398	-0.39239730226854685	640.0	0.8240343347639485	1344.0	0.0	13742.0	4419.37255859375	-0.358695652173913	736.0	-185.0	1.1555555555555554	-0.5109780439121757	-505.0	3.028784954572252	-180.0	-6.0	0.19265293783574977	3.376556256918156	-239.0	
1997.0	9.753158360578741	2105.0	-0.6513296099525904	0.8621026248556588	1263.0	-16128.0	9.888412017167381	-0.5493562231759657	896.0	0.7063151440833844	1152.0	0.0	14382.0	4438.90380859375	-0.3673913043478261	732.0	-192.0	1.1414141414141414	-0.564870259481038	-478.0	-0.6079786185006419	-5.0	41.0	-0.15241211531329954	0.7513269344739799	-4.0	
2001.0	9.633303756584825	2092.0	-0.4894404839895654	0.8143301989910126	1273.0	-15872.0	9.731453096259962	-0.3531575720416922	576.0	0.627835683629675	1024.0	0.0	15022.0	4458.43505859375	-0.3695652173913044	731.0	-190.0	1.1454545454545455	-0.5249500998003993	-498.0	1.3220133249039767	-47.0	-4.0	0.36237178329292696	1.3708102850019108	-129.0	
2004.0	9.5602821128372	2094.0	-0.511628361546526	0.7772335254647138	1279.0	-15744.0	9.652973635806253	-0.3531575720416922	576.0	0.6670754138565297	1088.0	0.0	15662.0	4477.96630859375	-0.35434782608695653	738.0	-181.0	1.1636363636363636	-0.5249500998003993	-498.0	0.9439073132304868	-66.0	-21.0	0.6320015900623261	1.663564729149064	-104.0	
2002.0	9.75485855367937	2096.0	-0.5404252178935509	0.8029877068518338	1263.0	-16064.0	9.849172286940528	-0.39239730226854685	640.0	0.627835683629675	1024.0	0.0	16302.0	4497.49755859375	-0.3695652173913044	731.0	-188.0	1.1494949494949496	-0.5469061876247505	-487.0	-1.6768911487363685	-97.0	-3.0	0.5256847799595987	2.161255603502573	67.0	
2002.0	9.596248834148891	2097.0	-0.5494146256287076	0.8013117155791775	1276.0	-15872.0	9.731453096259962	-0.510116492949111	832.0	0.5493562231759657	896.0	0.0	16942.0	4517.02880859375	-0.36086956521739133	735.0	-176.0	1.1737373737373737	-0.5369261477045909	-492.0	-1.1453720915221666	-129.0	-39.0	1.008953507901659	2.642632428139556	33.0	
1998.0	9.680494413386898	2102.0	-0.6130431258070639	0.8497106574541113	1269.0	-15936.0	9.770692826486817	-0.4316370324954016	704.0	0.745554874310239	1216.0	0.0	17582.0	4536.56005859375	-0.3739130434782609	729.0	-185.0	1.1555555555555554	-0.5269461077844312	-497.0	-1.768364598462443	-172.0	-36.0	0.9811765793228339	3.302854748646222	74.0	
1990.0	9.802150452837049	2096.0	-0.5442713113029143	0.948000478162329	1259.0	-16128.0	9.888412017167381	-0.3139178418148375	512.0	0.745554874310239	1216.0	0.0	18222.0	4556.09130859375	-0.3652173913043478	733.0	-189.0	1.1474747474747475	-0.5369261477045909	-492.0	-3.0258946104495523	-184.0	-25.0	0.8964827466996146	3.4979395544695144	156.0	
1989.0	9.80202762268586	2096.0	-0.5445097463022821	0.9600450582819078	1259.0	-16128.0	9.888412017167381	-0.47087676272225626	768.0	0.7063151440833844	1152.0	0.0	18862.0	4575.62255859375	-0.36086956521739133	735.0	-177.0	1.1717171717171717	-0.5089820359281437	-506.0	-2.569503838977637	-139.0	-44.0	1.1769519460750755	2.808965000366963	126.0	
1989.0	9.850914155029445	2095.0	-0.5333043733789877	0.9606459773345766	1255.0	-16192.0	9.927651747394236	-0.39239730226854685	640.0	0.7847946045370937	1280.0	0.0	19502.0	4595.15380859375	-0.3630434782608696	734.0	-178.0	1.1696969696969697	-0.5089820359281437	-506.0	-2.563428473681092	-94.0	-26.0	0.9340404590396822	2.1244936003261645	125.0	
1991.0	9.924791292276279	2091.0	-0.4855438281446991	0.9377659686172192	1249.0	-16384.0	10.0453709380748	-0.39239730226854685	640.0	0.8240343347639485	1344.0	0.0	20142.0	4614.68505859375	-0.3630434782608696	734.0	-186.0	1.1535353535353536	-0.5129740518962077	-504.0	-1.8357901597351667	-79.0	-86.0	1.7920725325617732	1.889080335057428	78.0	
1994.0	9.974046315073432	2090.0	-0.4736231502233013	0.9022331473111517	1245.0	-16448.0	10.084610668301655	-0.3139178418148375	512.0	0.745554874310239	1216.0	0.0	20782.0	4634.21630859375	-0.3673913043478261	732.0	-180.0	1.1656565656565656	-0.530938123752495	-495.0	-1.6176855383032482	-94.0	-94.0	1.887707005609948	2.115036170972386	64.0	
1993.0	9.960766648706205	2098.0	-0.5711373375903877	0.9131734015448928	1246.0	-16256.0	9.966891477621092	-0.39239730226854685	640.0	0.745554874310239	1216.0	0.0	21422.0	4653.74755859375	-0.3739130434782609	729.0	-182.0	1.1616161616161615	-0.5209580838323354	-500.0	-2.1103009245690436	-141.0	-36.0	1.023834663209207	2.8347912221734473	96.0	
1991.0	9.948329523160837	2098.0	-0.5713679892348857	0.9371431093151629	1247.0	-16384.0	10.0453709380748	-0.3531575720416922	576.0	0.745554874310239	1216.0	0.0	22062.0	4673.27880859375	-0.3695652173913044	731.0	-189.0	1.1474747474747475	-0.5548902195608784	-483.0	-0.8343888443129648	-131.0	37.0	-0.1533379409996954	2.6699408466180348	12.0	
1990.0	9.850916313809003	2096.0	-0.5452561847198644	0.948478288037879	1255.0	-16128.0	9.888412017167381	-0.47087676272225626	768.0	0.745554874310239	1216.0	0.0	22702.0	4692.81005859375	-0.3760869565217391	728.0	-180.0	1.1656565656565656	-0.5349301397205589	-493.0	-0.3607449261545972	-94.0	13.0	0.19602603795492674	2.1024667648508992	-19.0	
1993.0	9.924916281207027	2092.0	-0.4972572044862081	0.9135536992009429	1249.0	-16192.0	9.927651747394236	-0.39239730226854685	640.0	0.745554874310239	1216.0	0.0	23342.0	4712.34130859375	-0.3739130434782609	729.0	-187.0	1.1515151515151516	-0.5169660678642716	-502.0	-0.03081084416500894	-53.0	23.0	0.04808055414665971	1.4755932795443119	-41.0	
1994.0	9.87687660724442	2087.0	-0.4350826643686677	0.901646855091408	1253.0	-16192.0	9.927651747394236	-0.3531575720416922	576.0	0.7063151440833844	1152.0	0.0	23982.0	4731.87255859375	-0.3739130434782609	729.0	-189.0	1.1474747474747475	-0.5429141716566867	-489.0	0.21516058224180315	-58.0	24.0	0.01292661402556261	1.5491791926566696	-57.0	
1994.0	9.852614348130075	2086.0	-0.42239998131994816	0.9015310593307516	1255.0	-16256.0	9.966891477621092	-0.39239730226854685	640.0	0.8240343347639485	1344.0	0.0	24622.0	4751.40380859375	-0.36086956521739133	735.0	-179.0	1.1676767676767676	-0.5049900199600799	-508.0	1.0519173857483495	-91.0	-1.0	0.309424888577279	2.0427127653060144	-111.0	
1991.0	9.852245857676506	2086.0	-0.4231152863180515	0.9376647996894879	1255.0	-16128.0	9.888412017167381	-0.23543838136112813	384.0	0.745554874310239	1216.0	0.0	25262.0	4770.93505859375	-0.3717391304347826	730.0	-178.0	1.1696969696969697	-0.5149700598802396	-503.0	1.394136604429172	-88.0	-36.0	0.8121691571985357	1.9936631966933511	-133.0	
1994.0	9.864443799258169	2089.0	-0.4592169386949192	0.9012811842682829	1254.0	-16064.0	9.849172286940528	-0.3531575720416922	576.0	0.7063151440833844	1152.0	0.0	25902.0	4790.46630859375	-0.3673913043478261	732.0	-182.0	1.1616161616161615	-0.5349301397205589	-493.0	2.4272428802848176	-130.0	-32.0	0.6547436146079999	2.6221154038967716	-200.0	
1998.0	9.766800041060863	2094.0	-0.5172446835647705	0.851531698153274	1262.0	-16000.0	9.809932556713672	-0.39239730226854685	640.0	0.6670754138565297	1088.0	0.0	26542.0	4809.99755859375	-0.3695652173913044	731.0	-179.0	1.1676767676767676	-0.5249500998003993	-498.0	2.7685710928474596	-125.0	-63.0	1.098796612300601	2.5426564943947194	-222.0	
1996.0	9.864448116817284	2091.0	-0.48312056137667264	0.8769458056748878	1254.0	-16256.0	9.966891477621092	-0.39239730226854685	640.0	0.745554874310239	1216.0	0.0	27182.0	4829.52880859375	-0.358695652173913	736.0	-183.0	1.1595959595959595	-0.5249500998003993	-498.0	2.3753611634405276	-161.0	-65.0	1.1342478901991648	3.094117110799055	-196.0	
1996.0	9.803128776487448	2094.0	-0.5184602086262187	0.875979215799094	1259.0	-16192.0	9.927651747394236	-0.3139178418148375	512.0	0.7063151440833844	1152.0	0.0	27822.0	4849.06005859375	-0.3652173913043478	733.0	-184.0	1.1575757575757575	-0.5489021956087825	-486.0	2.7729517514130424	-154.0	-64.0	1.0958416366612316	2.9836773265923338	-222.0	
1994.0	9.8396988546573	2092.0	-0.4952952410071777	0.9006729517991515	1256.0	-16128.0	9.888412017167381	-0.3531575720416922	576.0	0.7063151440833844	1152.0	0.0	28462.0	4868.59130859375	-0.3717391304347826	730.0	-178.0	1.1696969696969697	-0.5349301397205589	-493.0	2.9085955607127327	-152.0	-50.0	0.8777225050982328	2.9519026375487667	-231.0	
1995.0	9.741927948749687	2095.0	-0.5296577981946433	0.8873034243971165	1264.0	-16000.0	9.809932556713672	-0.510116492949111	832.0	0.745554874310239	1216.0	0.0	29102.0	4888.12255859375	-0.3652173913043478	733.0	-186.0	1.1535353535353536	-0.5209580838323354	-500.0	2.9273624225883803	-156.0	-69.0	1.158840442650035	3.0125514708311507	-232.0	
1996.0	9.778625174629841	2095.0	-0.5301580182579881	0.8756172016842002	1261.0	-16128.0	9.888412017167381	-0.39239730226854685	640.0	0.745554874310239	1216.0	0.0	29742.0	4907.65380859375	-0.3717391304347826	730.0	-190.0	1.1454545454545455	-0.5608782435129741	-480.0	2.423533093124429	-183.0	-58.0	1.0125635672380326	3.42823615195849	-199.0	
1997.0	9.74132890945065	2102.0	-0.6145126525776193	0.8623524999181277	1264.0	-16064.0	9.849172286940528	-0.27467811158798283	448.0	0.6670754138565297	1088.0	0.0	30382.0	4927.18505859375	-0.3760869565217391	728.0	-175.0	1.1757575757575758	-0.5129740518962077	-504.0	1.9356438870723909	-209.0	-52.0	0.9407481429962025	3.8285523063764244	-167.0	
1994.0	9.76558469222632	2100.0	-0.5913399016037086	0.8989713635688765	1262.0	-16000.0	9.809932556713672	-0.510116492949111	832.0	0.7063151440833844	1152.0	0.0	31022.0	4946.71630859375	-0.3804347826086957	726.0	-181.0	1.1636363636363636	-0.5628742514970061	-479.0	1.3976039615025546	-221.0	-32.0	0.6710452666252075	4.016442211335545	-132.0	
1993.0	9.801191558202675	2107.0	-0.6776487160475005	0.9105125368552864	1259.0	-16064.0	9.849172286940528	-0.47087676272225626	768.0	0.745554874310239	1216.0	0.0	31662.0	4966.24755859375	-0.3695652173913044	731.0	-180.0	1.1656565656565656	-0.5469061876247505	-487.0	0.7153606631579523	-202.0	-1.0	0.26532071935930446	3.734291260288573	-88.0	
1988.0	9.825805037534124	2100.0	-0.594001603371103	0.9718361066307867	1257.0	-16192.0	9.927651747394236	-0.510116492949111	832.0	0.745554874310239	1216.0	0.0	32302.0	4985.77880859375	-0.3717391304347826	730.0	-186.0	1.1535353535353536	-0.5369261477045909	-492.0	1.3697174561547687	-174.0	6.0	0.13186418086216384	3.3018921790506197	-131.0	
1988.0	9.838237845520375	2098.0	-0.5698673290448515	0.9722017774539116	1256.0	-16192.0	9.927651747394236	-0.510116492949111	832.0	0.8240343347639485	1344.0	0.0	32942.0	5005.31005859375	-0.358695652173913	736.0	-184.0	1.1575757575757575	-0.5289421157684632	-496.0	1.685855667626899	-122.0	-5.0	0.306413483561682	2.5078562722210695	-152.0	
1991.0	9.924187935418121	2096.0	-0.5464950598459217	0.9371504227316254	1249.0	-16320.0	10.006131207847945	-0.4316370324954016	704.0	0.8240343347639485	1344.0	0.0	33582.0	5024.84130859375	-0.3673913043478261	732.0	-186.0	1.1535353535353536	-0.5429141716566867	-489.0	1.0651336046831348	-97.0	19.0	0.005004774662830724	2.133835355968378	-112.0	
1990.0	9.900285531639113	2091.0	-0.4852898264355919	0.9495716437990229	1251.0	-16192.0	9.927651747394236	-0.3139178418148375	512.0	0.745554874310239	1216.0	0.0	34222.0	5044.37255859375	-0.3739130434782609	729.0	-177.0	1.1717171717171717	-0.530938123752495	-495.0	1.8572795216155287	-93.0	51.0	-0.5274552410196482	2.0650773948979135	-164.0	
1987.0	9.838959714970605	2091.0	-0.48477403966250765	0.9851081218133216	1256.0	-16192.0	9.927651747394236	-0.3139178418148375	512.0	0.8632740649908032	1408.0	0.0	34862.0	5063.90380859375	-0.3652173913043478	733.0	-185.0	1.1555555555555554	-0.5369261477045909	-492.0	1.9730402233625686	-66.0	71.0	-0.818936405310453	1.6532734000477434	-172.0	
1990.0	9.912959682368626	2087.0	-0.4367750594288514	0.9501835329763855	1250.0	-16384.0	10.0453709380748	-0.39239730226854685	640.0	0.7063151440833844	1152.0	0.0	35502.0	5083.43505859375	-0.3652173913043478	733.0	-185.0	1.1555555555555554	-0.5628742514970061	-479.0	1.7424577307462839	-86.0	94.0	-1.1598827504114841	1.9597617344796097	-157.0	
1993.0	9.79105150627742	2090.0	-0.4701683099091064	0.9124859403974178	1260.0	-16128.0	9.888412017167381	-0.3139178418148375	512.0	0.745554874310239	1216.0	0.0	36142.0	5102.96630859375	-0.3695652173913044	731.0	-175.0	1.1757575757575758	-0.5189620758483035	-501.0	2.2020317761886465	-108.0	119.0	-1.5800657280956718	2.2897667544814597	-187.0	
1986.0	9.778362244090998	2087.0	-0.4350203975297099	0.9970478762969379	1261.0	-16128.0	9.888412017167381	-0.3531575720416922	576.0	0.8240343347639485	1344.0	0.0	36782.0	5122.49755859375	-0.3652173913043478	733.0	-190.0	1.1454545454545455	-0.5548902195608784	-483.0	2.4537673421437773	-133.0	101.0	-1.3429305814951673	2.6674775357040375	-203.0	
1985.0	9.704969951110247	2088.0	-0.44597176874389705	1.0082526324260728	1267.0	-16064.0	9.849172286940528	-0.3531575720416922	576.0	0.8632740649908032	1408.0	0.0	37422.0	5142.02880859375	-0.3630434782608696	734.0	-179.0	1.1676767676767676	-0.5548902195608784	-483.0	2.7609123588203897	-106.0	72.0	-0.9130994104468995	2.253759697704572	-223.0	
1989.0	9.741552981957446	2092.0	-0.4945176691701165	0.9599402326459453	1264.0	-16000.0	9.809932556713672	-0.39239730226854685	640.0	0.8240343347639485	1344.0	0.0	38062.0	5161.56005859375	-0.3673913043478261	732.0	-188.0	1.1494949494949496	-0.5369261477045909	-492.0	2.856103681915661	-100.0	45.0	-0.5112769352208617	2.1615530316219083	-229.0	
1994.0	9.766670734571	2091.0	-0.48162768454150806	0.9000793461629453	1262.0	-16064.0	9.849172286940528	-0.3139178418148375	512.0	0.745554874310239	1216.0	0.0	38702.0	5181.09130859375	-0.3565217391304348	737.0	-183.0	1.1595959595959595	-0.5209580838323354	-500.0	3.2310902392213694	-98.0	-3.0	0.18348091033872876	2.127384915098281	-253.0	
1996.0	9.718029862529795	2092.0	-0.49235618746606696	0.875389266871119	1266.0	-16000.0	9.809932556713672	-0.3139178418148375	512.0	0.7063151440833844	1152.0	0.0	39342.0	5200.62255859375	-0.36086956521739133	735.0	-186.0	1.1535353535353536	-0.5489021956087825	-486.0	3.035707206757202	-110.0	-18.0	0.41466674539198695	2.3118482511263445	-240.0	
1991.0	9.741677970888194	2093.0	-0.5062310455116255	0.9357279632296691	1264.0	-16064.0	9.849172286940528	-0.3531575720416922	576.0	0.745554874310239	1216.0	0.0	39982.0	5220.15380859375	-0.3652173913043478	733.0	-176.0	1.1737373737373737	-0.5409181636726548	-490.0	2.1245018792892383	-118.0	32.0	-0.2764054713746308	2.4426333082033054	-181.0	
1994.0	9.69340127174144	2092.0	-0.4923406207563275	0.8992395221725015	1268.0	-16000.0	9.809932556713672	-0.27467811158798283	448.0	0.745554874310239	1216.0	0.0	40622.0	5239.68505859375	-0.358695652173913	736.0	-180.0	1.1656565656565656	-0.5209580838323354	-500.0	2.585292880912347	-97.0	7.0	0.07911173401478883	2.118633763206086	-211.0	
1995.0	9.644758240920675	2092.0	-0.49111731234000966	0.8867171321773727	1272.0	-15872.0	9.731453096259962	-0.3139178418148375	512.0	0.7847946045370937	1280.0	0.0	41262.0	5259.21630859375	-0.358695652173913	736.0	-181.0	1.1636363636363636	-0.5528942115768464	-484.0	2.650378140785907	-99.0	-16.0	0.4181926560964627	2.14840116155792	-215.0	
1992.0	9.681084817567704	2091.0	-0.48038102606058103	0.9233323391198902	1269.0	-16000.0	9.809932556713672	-0.3531575720416922	576.0	0.7847946045370937	1280.0	0.0	41902.0	5278.74755859375	-0.3630434782608696	734.0	-174.0	1.1777777777777778	-0.5169660678642716	-502.0	2.13351762703334	-111.0	-35.0	0.7317233388398974	2.336079272398868	-181.0	
1991.0	9.705465589274121	2090.0	-0.4689216514281793	0.9357389333543628	1267.0	-15808.0	9.692213366033108	-0.07847946045370938	128.0	0.6670754138565297	1088.0	0.0	42542.0	5298.27880859375	-0.3521739130434783	739.0	-174.0	1.1777777777777778	-0.5169660678642716	-502.0	2.247353406432042	-102.0	-87.0	1.5088858486673988	2.1980587853273144	-188.0	
1993.0	9.633045143605097	2086.0	-0.41820648594304066	0.9114254950103553	1273.0	-16000.0	9.809932556713672	-0.3139178418148375	512.0	0.6670754138565297	1088.0	0.0	43182.0	5317.81005859375	-0.36086956521739133	735.0	-188.0	1.1494949494949496	-0.5608782435129741	-480.0	1.4000377450767636	-73.0	-90.0	1.6304791154934348	1.7654673031575976	-133.0	
1994.0	9.99854991693104	2089.0	-0.4619253405915319	0.9025951614260455	1243.0	-16384.0	10.0453709380748	-0.3531575720416922	576.0	0.7063151440833844	1152.0	0.0	43822.0	5337.34130859375	-0.358695652173913	736.0	-182.0	1.1616161616161615	-0.5728542914171657	-474.0	0.6594270903863353	-120.0	-117.0	2.058230062365753	2.487702307042905	-84.0	
1987.0	9.717648419398877	2086.0	-0.42136062441891	0.9845291430100405	1266.0	-16000.0	9.809932556713672	-0.23543838136112813	384.0	0.8632740649908032	1408.0	0.0	44462.0	5356.87255859375	-0.35434782608695653	738.0	-187.0	1.1515151515151516	-0.5249500998003993	-498.0	1.3434757580827494	-75.0	-120.0	2.0829742121939736	1.796451173978108	-129.0	
1993.0	9.889910613309269	2079.0	-0.3380453470003169	0.9147957610968241	1252.0	-16192.0	9.927651747394236	-0.15695892090741875	256.0	0.745554874310239	1216.0	0.0	45102.0	5376.40380859375	-0.36086956521739133	735.0	-181.0	1.1636363636363636	-0.5429141716566867	-489.0	2.4860291973499895	-19.0	-123.0	2.0824984451299904	0.9333146129694659	-204.0	
1995.0	9.842235112241113	2072.0	-0.25125187920291975	0.8910905552219479	1256.0	-16256.0	9.966891477621092	-0.07847946045370938	128.0	0.745554874310239	1216.0	0.0	45742.0	5395.93505859375	-0.3630434782608696	734.0	-190.0	1.1454545454545455	-0.5908183632734532	-465.0	1.2512451931875133	-28.0	-62.0	1.248421398012914	1.0825445822886572	-124.0	
1991.0	9.767991643320268	2077.0	-0.3116795407761883	0.9379366150013442	1262.0	-16064.0	9.849172286940528	-0.15695892090741875	256.0	0.8240343347639485	1344.0	0.0	46382.0	5415.46630859375	-0.35	740.0	-180.0	1.1656565656565656	-0.5269461077844312	-497.0	2.32553235088089	-41.0	-54.0	1.045802236605299	1.2695203418904308	-194.0	
1993.0	9.781152797095425	2071.0	-0.23830741109022324	0.9147055622937866	1261.0	-16064.0	9.849172286940528	-0.15695892090741875	256.0	0.745554874310239	1216.0	0.0	47022.0	5434.99755859375	-0.35	740.0	-179.0	1.1676767676767676	-0.5508982035928145	-485.0	1.7729201256133869	-49.0	-43.0	0.9144795861024408	1.3967194679453871	-158.0	
1997.0	9.793352897456645	2075.0	-0.2863608748079676	0.8661542575758842	1260.0	-16192.0	9.927651747394236	-0.19619865113427343	320.0	0.7063151440833844	1152.0	0.0	47662.0	5454.52880859375	-0.3521739130434783	739.0	-176.0	1.1737373737373737	-0.5189620758483035	-501.0	1.270072893302855	-93.0	-22.0	0.6078671139241072	2.07094946118104	-125.0	
1997.0	9.768849295599036	2076.0	-0.2980586844397371	0.8657922434609904	1262.0	-16064.0	9.849172286940528	-0.23543838136112813	384.0	0.7063151440833844	1152.0	0.0	48302.0	5474.06005859375	-0.3456521739130435	742.0	-177.0	1.1717171717171717	-0.5209580838323354	-500.0	1.3946027408153039	-122.0	-6.0	0.3416771910158949	2.5107688014891854	-133.0	
1995.0	9.561348726165857	2076.0	-0.2943498424164349	0.8878507117290603	1279.0	-15680.0	9.613733905579398	0.03923973022685469	-64.0	0.7063151440833844	1152.0	0.0	48942.0	5493.59130859375	-0.3565217391304348	737.0	-177.0	1.1717171717171717	-0.5548902195608784	-483.0	-1.7352134528982706	-166.0	44.0	-0.21688085014443886	3.2112684843388686	71.0	
1994.0	9.87784197821747	2079.0	-0.33756069364671165	0.9026317285083579	1253.0	-16256.0	9.966891477621092	-0.23543838136112813	384.0	0.7063151440833844	1152.0	0.0	49582.0	5513.12255859375	-0.35	740.0	-180.0	1.1656565656565656	-0.5289421157684632	-496.0	-0.03480339511233783	-202.0	-10.0	0.45246467154805003	3.7417929008712756	-39.0	
1994.0	9.670225054971777	2082.0	-0.3699457206454074	0.9002317090059141	1270.0	-15936.0	9.770692826486817	-0.19619865113427343	320.0	0.745554874310239	1216.0	0.0	50222.0	5532.65380859375	-0.3521739130434783	739.0	-178.0	1.1696969696969697	-0.5249500998003993	-498.0	1.794543378442768	-189.0	-51.0	0.9477435350289262	3.5257808019570174	-158.0	
1994.0	9.719232258686992	2080.0	-0.3465501013818684	0.9009557372357017	1266.0	-15936.0	9.770692826486817	-0.11771919068056406	192.0	0.7063151440833844	1152.0	0.0	50862.0	5552.18505859375	-0.35	740.0	-180.0	1.1656565656565656	-0.564870259481038	-478.0	-2.5306482015761267	-192.0	-47.0	1.1869817589487035	3.6146600941830616	124.0	
2001.0	9.682552303043302	2088.0	-0.44166437204553743	0.8153004455750377	1269.0	-15744.0	9.652973635806253	-0.27467811158798283	448.0	0.7063151440833844	1152.0	0.0	51502.0	5571.71630859375	-0.3565217391304348	737.0	-175.0	1.1757575757575758	-0.5249500998003993	-498.0	-3.3943338321339214	-159.0	-47.0	1.2671703244629025	3.121395809804229	180.0	
1995.0	9.705836238507247	2091.0	-0.4801581577709527	0.8874375036989289	1267.0	-16064.0	9.849172286940528	-0.3139178418148375	512.0	0.7063151440833844	1152.0	0.0	52142.0	5591.24755859375	-0.3521739130434783	739.0	-188.0	1.1494949494949496	-0.5508982035928145	-485.0	-3.0704662250652017	-199.0	-20.0	0.8154969370510631	3.726522152744949	159.0	
1990.0	9.888938765997542	2084.0	-0.39971188369964283	0.9503139555699667	1252.0	-16320.0	10.006131207847945	-0.3531575720416922	576.0	0.7063151440833844	1152.0	0.0	52782.0	5610.77880859375	-0.35434782608695653	738.0	-182.0	1.1616161616161615	-0.5568862275449102	-482.0	-0.38480668104217725	-189.0	-41.0	0.9495012616878191	3.547574302551867	-16.0	
1988.0	9.815423642865603	2085.0	-0.41090168991319787	0.9735632918186804	1258.0	-16128.0	9.888412017167381	-0.23543838136112813	384.0	0.7847946045370937	1280.0	0.0	53422.0	5630.31005859375	-0.3717391304347826	730.0	-178.0	1.1696969696969697	-0.5708582834331338	-475.0	0.9109344354196712	-103.0	-72.0	1.3764046878089595	2.226632100512724	-101.0	
1987.0	9.85187520844338	2085.0	-0.4118787799752781	0.9859662293449216	1255.0	-16256.0	9.966891477621092	-0.3139178418148375	512.0	0.7847946045370937	1280.0	0.0	54062.0	5649.84130859375	-0.358695652173913	736.0	-187.0	1.1515151515151516	-0.5728542914171657	-474.0	1.2173539090386623	-70.0	-102.0	1.824929050516232	1.721666765092123	-121.0	
1991.0	9.96281374446482	2079.0	-0.33999952712447756	0.9396016361493067	1246.0	-16384.0	10.0453709380748	-0.27467811158798283	448.0	0.7847946045370937	1280.0	0.0	54702.0	5669.37255859375	-0.3565217391304348	737.0	-177.0	1.1717171717171717	-0.564870259481038	-478.0	2.4363201953614406	-69.0	-152.0	2.490322549413475	1.6942679767536102	-200.0	
1997.0	9.964154082230111	2074.0	-0.27761768542704834	0.867949701317428	1246.0	-16384.0	10.0453709380748	-0.11771919068056406	192.0	0.745554874310239	1216.0	0.0	55342.0	5688.90380859375	-0.3673913043478261	732.0	-178.0	1.1696969696969697	-0.5289421157684632	-496.0	2.3856848296133313	-64.0	-126.0	2.107083498513326	1.6187287030346653	-197.0	
2001.0	10.025723400421443	2073.0	-0.26570479086052023	0.8204917523606693	1241.0	-16448.0	10.084610668301655	-0.15695892090741875	256.0	0.7063151440833844	1152.0	0.0	55982.0	5708.43505859375	-0.35434782608695653	738.0	-182.0	1.1616161616161615	-0.5369261477045909	-492.0	2.374764664060653	-60.0	-57.0	1.0757942434911485	1.5580014027890514	-197.0	
2002.0	9.903569564027855	2076.0	-0.29957491133951086	0.8068833200208592	1251.0	-16448.0	10.084610668301655	-0.19619865113427343	320.0	0.627835683629675	1024.0	0.0	56622.0	5727.96630859375	-0.35434782608695653	738.0	-182.0	1.1616161616161615	-0.5508982035928145	-485.0	3.2465496307200943	-105.0	3.0	0.08819135906858205	2.2336941995102895	-254.0	
2010.0	9.831886099265967	2072.0	-0.24742913585816542	0.710302400959379	1257.0	-16128.0	9.888412017167381	-0.11771919068056406	192.0	0.5885959534028203	960.0	0.0	57262.0	5747.49755859375	-0.35434782608695653	738.0	-183.0	1.1595959595959595	-0.5868263473053893	-467.0	2.111858416257031	-95.0	94.0	-1.1910683232941348	2.0929498569020684	-181.0	
2009.0	9.856266870972386	2071.0	-0.23596976122576374	0.7227089951938515	1255.0	-16192.0	9.927651747394236	-0.07847946045370938	128.0	0.510116492949111	832.0	0.0	57902.0	5767.02880859375	-0.3652173913043478	733.0	-183.0	1.1595959595959595	-0.5588822355289422	-481.0	1.1453112432000923	-176.0	175.0	-2.387467010187496	3.334554492130737	-118.0	
2004.0	9.684851535442972	2072.0	-0.24590512560352196	0.7811364520502014	1269.0	-15936.0	9.770692826486817	-0.19619865113427343	320.0	0.5885959534028203	960.0	0.0	58542.0	5786.56005859375	-0.3565217391304348	737.0	-179.0	1.1676767676767676	-0.5688622754491018	-476.0	1.8426605827609999	-254.0	203.0	-2.9032451006513518	4.513892785807371	-163.0	
1997.0	9.659608793898668	2072.0	-0.24708173389062144	0.8652096079494778	1271.0	-15872.0	9.731453096259962	-0.15695892090741875	256.0	0.7063151440833844	1152.0	0.0	59182.0	5806.09130859375	-0.3630434782608696	734.0	-175.0	1.1757575757575758	-0.5269461077844312	-497.0	0.5607221037094225	-311.0	216.0	-3.0436015373186494	5.393632322689142	-79.0	
1993.0	9.781032125723794	2072.0	-0.25049765743046776	0.9145824531166679	1261.0	-16064.0	9.849172286940528	-0.07847946045370938	128.0	0.7063151440833844	1152.0	0.0	59822.0	5825.62255859375	-0.34782608695652173	741.0	-174.0	1.1777777777777778	-0.5229540918163673	-499.0	-0.18657109686735918	-343.0	219.0	-3.056035122411248	5.887797269904035	-30.0	
1993.0	9.74445772999483	2072.0	-0.2497590023677552	0.9142240957100054	1264.0	-16000.0	9.809932556713672	-0.11771919068056406	192.0	0.7847946045370937	1280.0	0.0	60462.0	5845.15380859375	-0.36086956521739133	735.0	-175.0	1.1757575757575758	-0.5568862275449102	-482.0	0.38557267650463395	-335.0	180.0	-2.506281762708936	5.760402828368033	-67.0	
1990.0	9.743727225426365	2075.0	-0.28704504638659206	0.9499885085373855	1264.0	-16000.0	9.809932556713672	-0.15695892090741875	256.0	0.7847946045370937	1280.0	0.0	61102.0	5864.68505859375	-0.3565217391304348	737.0	-170.0	1.185858585858586	-0.5229540918163673	-499.0	0.3567913795088273	-349.0	181.0	-2.527788198452314	5.973618397991984	-65.0	
1984.0	9.743231587262493	2073.0	-0.2640951637023098	1.0225022076090955	1264.0	-16000.0	9.809932556713672	-0.03923973022685469	64.0	0.8632740649908032	1408.0	0.0	61742.0	5884.21630859375	-0.3456521739130435	742.0	-180.0	1.1656565656565656	-0.5269461077844312	-497.0	0.4369620472716508	-377.0	185.0	-2.6103723124534293	6.398672204622341	-70.0	
1986.0	9.620114538675413	2085.0	-0.4074390662441332	0.9957412125556377	1274.0	-15936.0	9.770692826486817	-0.27467811158798283	448.0	0.9025137952176578	1472.0	0.0	62382.0	5903.74755859375	-0.35	740.0	-176.0	1.1737373737373737	-0.5389221556886228	-491.0	1.4204913461794675	-397.0	89.0	-1.2517128922175516	6.693019421138967	-133.0	
1985.0	9.388957225765603	2080.0	-0.3420481208117656	1.0061317416519477	1293.0	-15616.0	9.574494175352545	-0.23543838136112813	384.0	0.8632740649908032	1408.0	0.0	63022.0	5923.27880859375	-0.34782608695652173	741.0	-166.0	1.1939393939393939	-0.5249500998003993	-498.0	1.339665721854502	-407.0	24.0	-0.2776583353264622	6.845918932135068	-127.0	
1985.0	9.766892648298239	2080.0	-0.34968088979312856	1.0098347681874604	1262.0	-16192.0	9.927651747394236	-0.19619865113427343	320.0	0.8632740649908032	1408.0	0.0	63662.0	5942.81005859375	-0.35434782608695653	738.0	-177.0	1.1717171717171717	-0.5409181636726548	-490.0	-2.9131717627162756	-330.0	-21.0	0.7398459287292094	5.717344645383816	150.0	
1991.0	9.900167019047041	2093.0	-0.5094318841167131	0.9372808453252067	1251.0	-16256.0	9.966891477621092	-0.47087676272225626	768.0	0.745554874310239	1216.0	0.0	64302.0	5962.34130859375	-0.358695652173913	736.0	-171.0	1.183838383838384	-0.5508982035928145	-485.0	-0.7372330693362905	-283.0	-54.0	1.1117463752516543	4.980756361111614	8.0	
1995.0	9.742289962864582	2092.0	-0.49308705917390977	0.8876727519284727	1264.0	-16128.0	9.888412017167381	-0.39239730226854685	640.0	0.6670754138565297	1088.0	0.0	64942.0	5981.87255859375	-0.3565217391304348	737.0	-185.0	1.1555555555555554	-0.5768463073852296	-472.0	2.3353251180283654	-304.0	-68.0	1.0950157124855977	5.2694224142189565	-192.0	
1994.0	9.65634419052595	2096.0	-0.540362951054593	0.8983887280573639	1271.0	-15872.0	9.731453096259962	-0.4316370324954016	704.0	0.745554874310239	1216.0	0.0	46.0	6001.40380859375	-0.35	740.0	-167.0	1.1919191919191918	-0.5269461077844312	-497.0	1.950725509431814	-298.0	-66.0	1.0954490278617344	5.182013657453211	-167.0	
1991.0	9.827018227589111	2093.0	-0.5079545739912881	0.9365641305118817	1257.0	-16064.0	9.849172286940528	-0.39239730226854685	640.0	0.745554874310239	1216.0	0.0	686.0	6020.93505859375	-0.3565217391304348	737.0	-173.0	1.1797979797979798	-0.5588822355289422	-481.0	-0.6913318412234648	-249.0	16.0	0.07976079805257405	4.46318708267079	4.0	
1991.0	9.74143662814493	2095.0	-0.5306115381921145	0.9354817448754316	1264.0	-16064.0	9.849172286940528	-0.4316370324954016	704.0	0.8240343347639485	1344.0	0.0	1326.0	6040.46630859375	-0.35434782608695653	738.0	-173.0	1.1797979797979798	-0.5289421157684632	-496.0	-0.7149885555391702	-193.0	17.0	0.10048324268546	3.6117126231979775	5.0	
1988.0	9.692181605347777	2096.0	-0.5425322161135123	0.9710145661814991	1268.0	-15872.0	9.731453096259962	-0.5493562231759657	896.0	0.8632740649908032	1408.0	0.0	1966.0	6059.99755859375	-0.36086956521739133	735.0	-180.0	1.1656565656565656	-0.56686626746507	-477.0	-0.43201515220411996	-165.0	46.0	-0.33696009434999225	3.1830273758566423	-14.0	
1984.0	9.692293641601175	2091.0	-0.48253472440976086	1.019808432545408	1268.0	-16000.0	9.809932556713672	-0.39239730226854685	640.0	0.7847946045370937	1280.0	0.0	2606.0	6079.52880859375	-0.35434782608695653	738.0	-177.0	1.1717171717171717	-0.5548902195608784	-483.0	-0.3384716928216275	-159.0	30.0	-0.09994046903893034	3.090837188411106	-20.0	
1987.0	9.778243731498925	2089.0	-0.4591624552108311	0.9847570778231216	1261.0	-16064.0	9.849172286940528	-0.23543838136112813	384.0	0.8240343347639485	1344.0	0.0	3246.0	6099.06005859375	-0.3521739130434783	739.0	-169.0	1.187878787878788	-0.530938123752495	-495.0	-0.21441687207098575	-118.0	-19.0	0.6510009648744635	2.466022495716908	-28.0	
1985.0	9.765927277325188	2088.0	-0.4472028605150846	1.0088498947705102	1262.0	-15936.0	9.770692826486817	-0.3139178418148375	512.0	0.8240343347639485	1344.0	0.0	3886.0	6118.59130859375	-0.36086956521739133	735.0	-175.0	1.1757575757575758	-0.5548902195608784	-483.0	-0.8008422239321793	-86.0	-26.0	0.8162313762092491	1.9851947340263942	10.0	
1984.0	9.765683775802367	2089.0	-0.4596315418546969	1.0207713657129702	1262.0	-16000.0	9.809932556713672	-0.27467811158798283	448.0	0.8240343347639485	1344.0	0.0	4526.0	6138.12255859375	-0.3521739130434783	739.0	-169.0	1.187878787878788	-0.5508982035928145	-485.0	-0.7160159624510773	-49.0	-14.0	0.6529269291360753	1.4216088288260318	4.0	
1985.0	9.765927277325188	2088.0	-0.4472028605150846	1.0088498947705102	1262.0	-16064.0	9.849172286940528	-0.27467811158798283	448.0	0.8240343347639485	1344.0	0.0	5166.0	6157.65380859375	-0.358695652173913	736.0	-180.0	1.1656565656565656	-0.5708582834331338	-475.0	-0.6180018152091941	-49.0	-54.0	1.2458052944130777	1.4206286873536131	-2.0	
