Device	Device	Device	Device	Device	Device	Device	Device	Device	Device	Device	Device	Device	Device	Device	Device	Device	Device	Device	Device	Device	Device	Device	Device	Device	Device	Device	
Low Noise Accelerometer X	Low Noise Accelerometer X	Low Noise Accelerometer Z	Low Noise Accelerometer Z	Low Noise Accelerometer Y	Low Noise Accelerometer Y	Wide Range Accelerometer X	Wide Range Accelerometer X	Wide Range Accelerometer Z	Wide Range Accelerometer Z	Wide Range Accelerometer Y	Wide Range Accelerometer Y	Event_Marker	Timestamp	Timestamp	Magnetometer Z	Magnetometer Z	Magnetometer X	Magnetometer X	Magnetometer Y	Magnetometer Y	Gyroscope Y	Gyroscope Y	Gyroscope Z	Gyroscope Z	Gyroscope X	Gyroscope X	
CAL	UNCAL	CAL	UNCAL	CAL	UNCAL	UNCAL	CAL	CAL	UNCAL	UNCAL	CAL	CAL	CAL	UNCAL	UNCAL	CAL	CAL	UNCAL	CAL	UNCAL	UNCAL	CAL	UNCAL	CAL	CAL	UNCAL	
m/(s^2)	no units	m/(s^2)	no units	m/(s^2)	no units	no units	m/(s^2)	m/(s^2)	no units	no units	m/(s^2)	no units	ms	no units	no units	local_flux	local_flux	no units	local_flux	no units	no units	deg/s	no units	deg/s	deg/s	no units	
9.788494542032534	2040.0	-0.06862776369675869	2058.0	0.3502107159761288	1261.0	-16128.0	9.888412017167381	0.11771919068056406	-192.0	192.0	0.11771919068056406	0.0	229.766845703125	7529.0	752.0	-0.3239130434782609	1.1353535353535353	-195.0	-0.5528942115768464	-484.0	-114.0	0.4279545246060194	-11.0	0.4887853457567822	2.3987622798489974	-70.0	
9.763383265757655	2038.0	-0.11737318234799729	2062.0	0.37356853456903627	1263.0	-16000.0	9.809932556713672	0.0	0.0	256.0	0.15695892090741875	0.0	249.298095703125	8169.0	751.0	-0.32608695652173914	1.1232323232323231	-201.0	-0.5828343313373254	-469.0	-154.0	-0.3614859976934251	-26.0	0.7442833615702562	3.015021704083398	-18.0	
9.909426553252903	2032.0	-0.07299742723407612	2058.0	0.44776188162163394	1251.0	-16192.0	9.927651747394236	-0.11771919068056406	192.0	320.0	0.19619865113427343	0.0	268.829345703125	8809.0	747.0	-0.3347826086956522	1.1313131313131313	-197.0	-0.5708582834331338	-475.0	-165.0	-1.416185745101171	-39.0	1.005900997506347	3.1928690817856125	51.0	
10.019884562567375	2037.0	-0.061830971085130304	2057.0	0.38873716242084644	1242.0	-16448.0	10.084610668301655	0.03923973022685469	-64.0	320.0	0.19619865113427343	0.0	288.360595703125	9449.0	749.0	-0.33043478260869563	1.1191919191919193	-203.0	-0.5708582834331338	-475.0	-113.0	0.06196805777592314	-26.0	0.7397539250890572	2.387213019042013	-46.0	
9.983803646222725	2042.0	-0.07209038736582335	2058.0	0.3280327952391714	1245.0	-16448.0	10.084610668301655	0.11771919068056406	-192.0	128.0	0.07847946045370938	0.0	307.891845703125	10089.0	746.0	-0.33695652173913043	1.1131313131313132	-206.0	-0.596806387225549	-462.0	-92.0	0.9454534046980909	-6.0	0.39118893537999516	2.0589865305918025	-104.0	
9.94685212492196	2035.0	-0.024259791937707303	2054.0	0.41247893537803526	1248.0	-16448.0	10.084610668301655	-0.03923973022685469	64.0	192.0	0.11771919068056406	0.0	327.423095703125	10729.0	746.0	-0.33695652173913043	1.1292929292929292	-198.0	-0.6107784431137725	-455.0	-77.0	0.9177412527865397	62.0	-0.6172470784343533	1.8311267699816403	-103.0	
9.886254654042354	2034.0	0.02549385019509051	2050.0	0.42441868986165143	1253.0	-16256.0	9.966891477621092	0.07847946045370938	-128.0	320.0	0.19619865113427343	0.0	346.954345703125	11369.0	750.0	-0.3282608695652174	1.1353535353535353	-195.0	-0.5568862275449102	-482.0	-79.0	0.6878284410467356	63.0	-0.6174543805234117	1.863844149049609	-88.0	
9.898933122330984	2036.0	0.050104994520077606	2048.0	0.40069520044561896	1252.0	-16256.0	9.966891477621092	0.15695892090741875	-256.0	320.0	0.19619865113427343	0.0	366.485595703125	12009.0	752.0	-0.3239130434782609	1.121212121212121	-202.0	-0.5808383233532934	-470.0	-95.0	0.17065265844153807	50.0	-0.39629023763263527	2.1123619144802235	-54.0	
9.922594183366732	2037.0	-0.03548073157074119	2055.0	0.3880277610239839	1250.0	-16384.0	10.0453709380748	0.11771919068056406	-192.0	320.0	0.19619865113427343	0.0	386.016845703125	12649.0	746.0	-0.33695652173913043	1.1272727272727272	-199.0	-0.5608782435129741	-480.0	-133.0	0.4815880008911252	59.0	-0.5759817419226935	2.687199329116564	-74.0	
9.84932472053717	2037.0	-0.04619366778556058	2056.0	0.3871879370335401	1256.0	-16256.0	9.966891477621092	0.0	0.0	256.0	0.15695892090741875	0.0	405.548095703125	13289.0	751.0	-0.32608695652173914	1.1333333333333333	-196.0	-0.5568862275449102	-482.0	-164.0	1.238371975973815	54.0	-0.5725507034371726	3.151114379099578	-123.0	
9.959649105802663	2036.0	0.024493410068401028	2050.0	0.40104624443581893	1247.0	-16192.0	9.927651747394236	0.11771919068056406	-192.0	256.0	0.15695892090741875	0.0	425.079345703125	13929.0	750.0	-0.3282608695652174	1.1232323232323231	-201.0	-0.5808383233532934	-470.0	-167.0	1.0368821348888448	71.0	-0.8152246692728339	3.198756653936283	-110.0	
9.837137572853297	2039.0	-0.06985107211307653	2058.0	0.3627331059712576	1257.0	-16256.0	9.966891477621092	0.11771919068056406	-192.0	256.0	0.15695892090741875	0.0	444.610595703125	14569.0	747.0	-0.3347826086956522	1.1373737373737374	-194.0	-0.5708582834331338	-475.0	-134.0	0.9523866707415795	91.0	-1.0891178143033264	2.697700467893345	-105.0	
9.81214480917049	2036.0	-0.09445443308319387	2060.0	0.3983817230379813	1259.0	-16128.0	9.888412017167381	0.07847946045370938	-128.0	320.0	0.19619865113427343	0.0	464.141845703125	15209.0	750.0	-0.3282608695652174	1.1272727272727272	-199.0	-0.5768463073852296	-472.0	-148.0	0.6439442880589173	116.0	-1.4509799284379212	2.9137126483741644	-85.0	
9.77507693405721	2031.0	-0.08271770667707574	2059.0	0.4583693754063313	1262.0	-16128.0	9.888412017167381	0.07847946045370938	-128.0	384.0	0.23543838136112813	0.0	483.673095703125	15849.0	747.0	-0.3347826086956522	1.1252525252525252	-200.0	-0.5928143712574852	-464.0	-158.0	1.7234863914261374	86.0	-1.0824245965786157	3.0550084820933434	-155.0	
9.726681722318384	2035.0	-0.09296933960289905	2060.0	0.4095901358753475	1266.0	-15936.0	9.770692826486817	0.0	0.0	320.0	0.19619865113427343	0.0	503.204345703125	16489.0	752.0	-0.3239130434782609	1.1151515151515152	-205.0	-0.5908183632734532	-465.0	-116.0	2.5061366865813515	42.0	-0.45167556140539844	2.408398709179814	-206.0	
9.751064652804361	2035.0	-0.09346177631137409	2060.0	0.4098290408131225	1264.0	-15936.0	9.770692826486817	0.03923973022685469	-64.0	256.0	0.15695892090741875	0.0	522.735595703125	17129.0	746.0	-0.33695652173913043	1.1272727272727272	-199.0	-0.5628742514970061	-479.0	-99.0	1.941581060740949	6.0	0.1376898504088212	2.15548913235837	-169.0	
9.824573299597624	2034.0	-0.04641653607518895	2056.0	0.4230827724545014	1258.0	-16064.0	9.849172286940528	-0.03923973022685469	64.0	192.0	0.11771919068056406	0.0	542.266845703125	17769.0	749.0	-0.33043478260869563	1.1191919191919193	-203.0	-0.5708582834331338	-475.0	-76.0	1.6142013770635264	19.0	-0.020434676895604992	1.8089530432635854	-148.0	
9.861274843036897	2037.0	-0.07082037882028713	2058.0	0.3870611711481901	1255.0	-16192.0	9.927651747394236	0.07847946045370938	-128.0	320.0	0.19619865113427343	0.0	561.798095703125	18409.0	750.0	-0.3282608695652174	1.1252525252525252	-200.0	-0.5489021956087825	-486.0	-102.0	1.959303196389224	-7.0	0.32953384343630426	2.200939287427743	-170.0	
9.825795124770845	2041.0	-0.00817675205888091	2053.0	0.3391400391488063	1258.0	-16128.0	9.888412017167381	0.11771919068056406	-192.0	384.0	0.23543838136112813	0.0	581.329345703125	19049.0	754.0	-0.31956521739130433	1.121212121212121	-202.0	-0.5568862275449102	-482.0	-130.0	2.0865334624760687	-10.0	0.3486219076287182	2.625522498074859	-178.0	
9.776540101973694	2038.0	-0.02009742998027872	2054.0	0.3746728604548738	1262.0	-16128.0	9.888412017167381	0.15695892090741875	-256.0	192.0	0.11771919068056406	0.0	600.860595703125	19689.0	752.0	-0.3239130434782609	1.121212121212121	-202.0	-0.5748502994011977	-473.0	-135.0	1.206762878772843	32.0	-0.2228730422618836	2.710365831288317	-121.0	
9.800427394295797	2032.0	0.0023600159955285693	2052.0	0.44742546446435894	1260.0	-16256.0	9.966891477621092	0.11771919068056406	-192.0	256.0	0.15695892090741875	0.0	620.391845703125	20329.0	749.0	-0.33043478260869563	1.1353535353535353	-195.0	-0.5728542914171657	-474.0	-183.0	-0.23734877242189822	95.0	-1.096092128383211	3.4548449706139532	-27.0	
9.812739530910415	2032.0	0.014304043981535564	2051.0	0.4476680261103652	1259.0	-16128.0	9.888412017167381	0.15695892090741875	-256.0	256.0	0.15695892090741875	0.0	639.923095703125	20969.0	752.0	-0.3239130434782609	1.1252525252525252	-200.0	-0.5748502994011977	-473.0	-227.0	0.2900785566009276	98.0	-1.2045466425640794	4.1187722182362725	-61.0	
9.751181006616875	2033.0	-0.05736790728937613	2057.0	0.4342875285836363	1264.0	-16064.0	9.849172286940528	0.0	0.0	384.0	0.23543838136112813	0.0	659.454345703125	21609.0	756.0	-0.31521739130434784	1.121212121212121	-202.0	-0.5788423153692616	-471.0	-228.0	0.5546983536282937	73.0	-0.8487599517530471	4.131335145741284	-78.0	
9.763118176439251	2027.0	-0.010283750278842346	2053.0	0.5071668984784715	1263.0	-16064.0	9.849172286940528	0.03923973022685469	-64.0	384.0	0.23543838136112813	0.0	678.985595703125	22249.0	755.0	-0.3173913043478261	1.1373737373737374	-194.0	-0.5528942115768464	-484.0	-234.0	0.4167918001790536	78.0	-0.9177743644876781	4.223968964127487	-69.0	
9.762878992475546	2028.0	-0.04661605430020807	2056.0	0.49475299082753643	1263.0	-16000.0	9.809932556713672	0.11771919068056406	-192.0	448.0	0.27467811158798283	0.0	698.516845703125	22889.0	757.0	-0.3130434782608696	1.1292929292929292	-198.0	-0.5548902195608784	-483.0	-177.0	0.3639630862481604	68.0	-0.7294956424331784	3.3575770991755416	-66.0	
9.763973669938462	2032.0	0.015288917398485619	2051.0	0.4471902162348152	1263.0	-16128.0	9.888412017167381	0.07847946045370938	-128.0	448.0	0.27467811158798283	0.0	718.048095703125	23529.0	750.0	-0.3282608695652174	1.1353535353535353	-195.0	-0.5808383233532934	-470.0	-135.0	1.3638778828396996	7.0	0.1410043471582116	2.7087946812476487	-131.0	
9.702790112437164	2039.0	-0.09152316289695289	2060.0	0.3611729104592574	1268.0	-16000.0	9.809932556713672	0.11771919068056406	-192.0	256.0	0.15695892090741875	0.0	737.579345703125	24169.0	754.0	-0.31956521739130433	1.1272727272727272	-199.0	-0.6027944111776448	-459.0	-137.0	0.9975800614740954	-3.0	0.31520698296849414	2.7428759104118754	-107.0	
9.616368130950683	2041.0	-0.2234154741612443	2071.0	0.33489338198958113	1275.0	-15872.0	9.731453096259962	-0.07847946045370938	128.0	256.0	0.15695892090741875	0.0	757.110595703125	24809.0	760.0	-0.3065217391304348	1.1272727272727272	-199.0	-0.5508982035928145	-485.0	-250.0	0.9352835874217618	11.0	0.04090251794048455	4.462130053859623	-102.0	
9.640731632420637	2032.0	-0.11634160880182884	2062.0	0.44464149059763375	1273.0	-15936.0	9.770692826486817	0.0	0.0	256.0	0.15695892090741875	0.0	776.641845703125	25449.0	753.0	-0.32173913043478264	1.1292929292929292	-198.0	-0.5728542914171657	-474.0	-300.0	-1.0683646647082954	23.0	-0.029971859639345053	5.242622810145182	29.0	
9.762163599363992	2032.0	-0.16756477770518202	2066.0	0.4453435785780338	1263.0	-16064.0	9.849172286940528	-0.07847946045370938	128.0	384.0	0.23543838136112813	0.0	796.173095703125	26089.0	754.0	-0.31956521739130433	1.1373737373737374	-194.0	-0.564870259481038	-478.0	-275.0	-3.3946380871280133	68.0	-0.5275167726293146	4.885657407487249	180.0	
9.652923097663624	2032.0	-0.11658782715606633	2062.0	0.44476094306652125	1272.0	-15936.0	9.770692826486817	0.0	0.0	384.0	0.23543838136112813	0.0	815.704345703125	26729.0	752.0	-0.3239130434782609	1.121212121212121	-202.0	-0.5708582834331338	-475.0	-235.0	-3.0986776187341216	101.0	-1.018533644157229	4.2743327837919045	160.0	
9.604626969500847	2026.0	0.00486889966712209	2052.0	0.5177817056796313	1276.0	-15744.0	9.652973635806253	0.07847946045370938	-128.0	512.0	0.3139178418148375	0.0	835.235595703125	27369.0	754.0	-0.31956521739130433	1.1232323232323231	-201.0	-0.5908183632734532	-465.0	-200.0	-2.914796398100885	68.0	-0.5152863777597472	3.7401745799505908	148.0	
9.763234530251767	2025.0	0.025810118743155613	2050.0	0.5316253862489853	1263.0	-16064.0	9.849172286940528	0.03923973022685469	-64.0	576.0	0.3531575720416922	0.0	854.766845703125	28009.0	753.0	-0.32173913043478264	1.1393939393939394	-193.0	-0.5489021956087825	-486.0	-134.0	-4.235316512355427	14.0	0.42636911584592224	2.749577499724315	234.0	
9.727623346716294	2024.0	0.13602255586870093	2041.0	0.5444195915559703	1266.0	-15936.0	9.770692826486817	0.27467811158798283	-448.0	512.0	0.3139178418148375	0.0	874.298095703125	28649.0	744.0	-0.341304347826087	1.1272727272727272	-199.0	-0.6147704590818364	-453.0	-148.0	-4.210147144591955	-38.0	1.1957104124859737	2.962253562700673	233.0	
9.848100736584392	2029.0	-0.0724816404609919	2058.0	0.4832983596359327	1256.0	-16128.0	9.888412017167381	0.11771919068056406	-192.0	448.0	0.27467811158798283	0.0	893.829345703125	29289.0	755.0	-0.3173913043478261	1.1353535353535353	-195.0	-0.5688622754491018	-476.0	-162.0	-3.2343842609690867	-88.0	1.8689053929259591	3.1654236905184363	170.0	
9.823961307621236	2030.0	-0.059560522412904604	2057.0	0.47113798375569765	1258.0	-16064.0	9.849172286940528	0.03923973022685469	-64.0	448.0	0.27467811158798283	0.0	913.360595703125	29929.0	752.0	-0.3239130434782609	1.1333333333333333	-196.0	-0.5489021956087825	-486.0	-230.0	-2.3074472018508296	-169.0	2.9774145559167535	4.190374852246645	111.0	
9.933800848620645	2028.0	-0.025682618579044275	2054.0	0.49667154374619904	1249.0	-16320.0	10.006131207847945	0.07847946045370938	-128.0	512.0	0.3139178418148375	0.0	932.891845703125	30569.0	753.0	-0.32173913043478264	1.1333333333333333	-196.0	-0.5469061876247505	-487.0	-247.0	-0.6069627720395772	-242.0	3.9431714078918896	4.431925141028381	1.0	
9.970377403129168	2029.0	-0.03837308498263353	2055.0	0.48486221185616407	1246.0	-16448.0	10.084610668301655	0.07847946045370938	-128.0	320.0	0.19619865113427343	0.0	952.423095703125	31209.0	747.0	-0.3347826086956522	1.107070707070707	-209.0	-0.5828343313373254	-469.0	-189.0	-1.0262273701767788	-264.0	4.337472477483671	3.553988509443213	28.0	
9.970144695504139	2033.0	-0.11056082302662942	2061.0	0.4359452363151365	1246.0	-16320.0	10.006131207847945	-0.07847946045370938	128.0	384.0	0.23543838136112813	0.0	971.954345703125	31849.0	749.0	-0.33043478260869563	1.1353535353535353	-195.0	-0.564870259481038	-478.0	-113.0	-1.9221595313209	-193.0	3.3815973312272276	2.4070542949329807	85.0	
10.129002234116555	2036.0	-0.11304635663361379	2061.0	0.40136437805193775	1233.0	-16704.0	10.241569589209073	0.0	0.0	320.0	0.19619865113427343	0.0	991.485595703125	32489.0	752.0	-0.3239130434782609	1.121212121212121	-202.0	-0.5688622754491018	-476.0	-128.0	-3.571215447193915	-125.0	2.4677558928142544	2.6516817362209886	192.0	
10.10437148454864	2033.0	-0.10107897858299758	2060.0	0.43738232265001775	1235.0	-16576.0	10.163090128755364	0.03923973022685469	-64.0	384.0	0.23543838136112813	0.0	1011.016845703125	33129.0	752.0	-0.3239130434782609	1.1232323232323231	-201.0	-0.594810379241517	-463.0	-172.0	-0.9082949402413888	-44.0	1.041255761095656	3.294254052064011	18.0	
10.092173542966977	2030.0	-0.06497732620612992	2057.0	0.4737659380712228	1236.0	-16576.0	10.163090128755364	0.0	0.0	384.0	0.23543838136112813	0.0	1030.548095703125	33769.0	751.0	-0.32608695652173914	1.1131313131313132	-206.0	-0.6167664670658684	-452.0	-141.0	-1.0476477325346	37.0	-0.14457877256958362	2.824164690253103	26.0	
9.835907112561845	2028.0	-0.060283610765877654	2057.0	0.4953465964637427	1257.0	-16192.0	9.927651747394236	-0.03923973022685469	64.0	320.0	0.19619865113427343	0.0	1050.079345703125	34409.0	754.0	-0.31956521739130433	1.1252525252525252	-200.0	-0.5508982035928145	-485.0	-101.0	-0.7641779400178723	51.0	-0.34986872184205475	2.212964973316529	7.0	
9.982096976783422	2034.0	-0.1471393454022327	2064.0	0.4236507811330889	1245.0	-16384.0	10.0453709380748	-0.03923973022685469	64.0	256.0	0.15695892090741875	0.0	1069.610595703125	35049.0	746.0	-0.33695652173913043	1.1373737373737374	-194.0	-0.5848303393213574	-468.0	-101.0	-0.6163508950594037	88.0	-0.9148801228518239	2.211486702866944	-3.0	
9.775318276800473	2031.0	-0.05833721399658673	2057.0	0.4586155937605688	1262.0	-16128.0	9.888412017167381	-0.03923973022685469	64.0	320.0	0.19619865113427343	0.0	1089.141845703125	35689.0	748.0	-0.33260869565217394	1.1313131313131313	-197.0	-0.5568862275449102	-482.0	-92.0	-1.361386327545189	36.0	-0.0779401766771618	2.082054927914235	46.0	
10.006719091233103	2033.0	-0.11129947808934199	2061.0	0.436303593721799	1243.0	-16448.0	10.084610668301655	0.03923973022685469	-64.0	384.0	0.23543838136112813	0.0	1108.673095703125	36329.0	753.0	-0.32173913043478264	1.1232323232323231	-201.0	-0.5588822355289422	-481.0	-99.0	-0.3406337264674343	-14.0	0.5963820745610434	2.1783112802304534	-20.0	
9.957709728738331	2032.0	-0.12274328601200421	2062.0	0.4477472547887089	1247.0	-16320.0	10.006131207847945	0.0	0.0	256.0	0.15695892090741875	0.0	1128.204345703125	36969.0	748.0	-0.33260869565217394	1.1252525252525252	-200.0	-0.5748502994011977	-473.0	-120.0	0.662929418739253	-38.0	0.8735785042104409	2.487667283759376	-85.0	
9.970144695504139	2033.0	-0.11056082302662942	2061.0	0.4359452363151365	1246.0	-16448.0	10.084610668301655	0.03923973022685469	-64.0	320.0	0.19619865113427343	0.0	1147.735595703125	37609.0	749.0	-0.33043478260869563	1.1414141414141414	-192.0	-0.5628742514970061	-479.0	-99.0	1.731507237324021	-25.0	0.6170786047105434	2.157589870592539	-155.0	
9.94576392379772	2034.0	-0.12202019765903116	2062.0	0.42353864208066394	1248.0	-16320.0	10.006131207847945	-0.03923973022685469	64.0	320.0	0.19619865113427343	0.0	1167.266845703125	38249.0	749.0	-0.33043478260869563	1.1191919191919193	-203.0	-0.5928143712574852	-464.0	-74.0	2.2064524358055606	-46.0	0.9140741230821581	1.7726122817255947	-186.0	
9.982945993943957	2036.0	-0.08571124370227458	2059.0	0.40017716677952514	1245.0	-16512.0	10.123850398528509	-0.03923973022685469	64.0	320.0	0.19619865113427343	0.0	1186.798095703125	38889.0	753.0	-0.32173913043478264	1.1232323232323231	-201.0	-0.5768463073852296	-472.0	-67.0	3.282765355138299	-71.0	1.2182338927328278	1.655385274205271	-256.0	
9.958690211168287	2039.0	-0.1088839946761852	2061.0	0.36355830312877635	1247.0	-16384.0	10.0453709380748	0.07847946045370938	-128.0	256.0	0.15695892090741875	0.0	1206.329345703125	39529.0	752.0	-0.3239130434782609	1.1414141414141414	-192.0	-0.5548902195608784	-483.0	-88.0	3.3598175014874907	-53.0	0.9302303304814177	1.974006387722768	-261.0	
9.921749483765314	2037.0	-0.12081245595245274	2062.0	0.3871659967841526	1250.0	-16384.0	10.0453709380748	0.07847946045370938	-128.0	256.0	0.15695892090741875	0.0	1225.860595703125	40169.0	751.0	-0.32608695652173914	1.121212121212121	-202.0	-0.5728542914171657	-474.0	-132.0	2.433583690052836	30.0	-0.276449668173685	2.6524702467496617	-201.0	
9.87286079264217	2036.0	-0.12006601753487048	2062.0	0.39873276702818133	1254.0	-16192.0	9.927651747394236	0.0	0.0	384.0	0.23543838136112813	0.0	1245.391845703125	40809.0	752.0	-0.3239130434782609	1.1434343434343435	-191.0	-0.5828343313373254	-469.0	-194.0	1.511773594672106	101.0	-1.314478082830835	3.60465412717115	-141.0	
9.92137451697307	2031.0	-0.08567232692792594	2059.0	0.45980280503298143	1250.0	-16256.0	9.966891477621092	-0.03923973022685469	64.0	384.0	0.23543838136112813	0.0	1264.923095703125	41449.0	754.0	-0.31956521739130433	1.1373737373737374	-194.0	-0.5588822355289422	-481.0	-231.0	0.12171246086027498	202.0	-2.754482212181673	4.181292381094821	-51.0	
9.860658533501391	2031.0	-0.060060742476249346	2057.0	0.4594517610427814	1255.0	-16320.0	10.006131207847945	0.03923973022685469	-64.0	448.0	0.27467811158798283	0.0	1284.454345703125	42089.0	757.0	-0.3130434782608696	1.1292929292929292	-198.0	-0.5708582834331338	-475.0	-266.0	0.05603295387698529	265.0	-3.715731430292969	4.714268567799634	-47.0	
9.798477223333672	2023.0	-0.08511762338049307	2059.0	0.5549649213007365	1260.0	-16064.0	9.849172286940528	0.11771919068056406	-192.0	512.0	0.3139178418148375	0.0	1303.985595703125	42729.0	751.0	-0.32608695652173914	1.1090909090909091	-208.0	-0.5988023952095809	-461.0	-284.0	-0.015572241398059655	351.0	-5.011053601382861	4.988748878307518	-43.0	
9.748252512004353	2018.0	-0.1706566493420935	2066.0	0.613848247783249	1264.0	-16064.0	9.849172286940528	-0.07847946045370938	128.0	768.0	0.47087676272225626	0.0	1323.516845703125	43369.0	760.0	-0.3065217391304348	1.1313131313131313	-197.0	-0.5489021956087825	-486.0	-326.0	-0.9491955031452285	379.0	-5.391414858111264	5.636868380886966	18.0	
9.773372423397465	2024.0	-0.1697184760543618	2066.0	0.5418196720035514	1262.0	-16064.0	9.849172286940528	-0.03923973022685469	64.0	704.0	0.4316370324954016	0.0	1343.048095703125	44009.0	756.0	-0.31521739130434784	1.1191919191919193	-203.0	-0.5688622754491018	-476.0	-336.0	-1.432977323737402	342.0	-4.809104654907503	5.793797453845739	50.0	
9.77276690775975	2023.0	-0.21871789641470762	2070.0	0.5533718154146551	1262.0	-16064.0	9.849172286940528	-0.07847946045370938	128.0	576.0	0.3531575720416922	0.0	1362.579345703125	44649.0	755.0	-0.3173913043478261	1.1353535353535353	-195.0	-0.5788423153692616	-471.0	-289.0	-0.1443367272138608	294.0	-4.15056070462196	5.066082150542101	-34.0	
9.760454771145131	2023.0	-0.23066192440071465	2071.0	0.5531292537686489	1263.0	-16064.0	9.849172286940528	-0.07847946045370938	128.0	576.0	0.3531575720416922	0.0	1382.110595703125	45289.0	754.0	-0.31956521739130433	1.1434343434343435	-191.0	-0.5429141716566867	-489.0	-228.0	0.42157285590656013	245.0	-3.4182050617892754	4.1326664007185006	-71.0	
9.797143361907052	2020.0	-0.18335489910055247	2067.0	0.5901137882425227	1260.0	-16064.0	9.849172286940528	-0.07847946045370938	128.0	640.0	0.39239730226854685	0.0	1401.641845703125	45929.0	754.0	-0.31956521739130433	1.1272727272727272	-199.0	-0.5449101796407186	-488.0	-156.0	1.311699482060998	171.0	-2.3269103162394837	3.0287081002364244	-129.0	
9.79811305043922	2022.0	-0.10973655106034988	2061.0	0.5667632830660777	1260.0	-16000.0	9.809932556713672	0.07847946045370938	-128.0	576.0	0.3531575720416922	0.0	1421.173095703125	46569.0	756.0	-0.31521739130434784	1.1232323232323231	-201.0	-0.5908183632734532	-465.0	-46.0	3.328822298055899	113.0	-1.53081669475017	1.3355330697951067	-261.0	
9.761411506999949	2019.0	-0.08533270831525168	2059.0	0.602784884372389	1263.0	-16000.0	9.809932556713672	0.0	0.0	704.0	0.4316370324954016	0.0	1440.704345703125	47209.0	756.0	-0.31521739130434784	1.1454545454545455	-190.0	-0.5449101796407186	-488.0	15.0	4.635850796787073	31.0	-0.35529030475583706	0.3947061308153993	-346.0	
9.701184685353468	2022.0	-0.04681557252522722	2056.0	0.5664232092005714	1268.0	-15936.0	9.770692826486817	0.0	0.0	576.0	0.3531575720416922	0.0	1460.235595703125	47849.0	758.0	-0.3108695652173913	1.1393939393939394	-193.0	-0.5628742514970061	-479.0	52.0	5.8280291714749985	-80.0	1.2484115021112843	-0.17995329551703135	-423.0	
9.76263117339361	2025.0	-0.03514111295806693	2055.0	0.5310098403633915	1263.0	-16064.0	9.849172286940528	0.07847946045370938	-128.0	576.0	0.3531575720416922	0.0	1479.766845703125	48489.0	755.0	-0.3173913043478261	1.1393939393939394	-193.0	-0.5928143712574852	-464.0	50.0	5.689482256990674	-177.0	2.711110500889586	-0.1481495754216178	-413.0	
9.87297067011601	2031.0	-0.04811671449024235	2056.0	0.4596943226887877	1254.0	-16384.0	10.0453709380748	0.03923973022685469	-64.0	320.0	0.19619865113427343	0.0	1499.298095703125	49129.0	761.0	-0.30434782608695654	1.1373737373737374	-194.0	-0.5608782435129741	-480.0	34.0	5.423390869308305	-228.0	3.4845143123225193	0.09785734605976867	-395.0	
9.83651478697912	2030.0	-0.02323600174640858	2054.0	0.4716267637559415	1257.0	-16128.0	9.888412017167381	0.07847946045370938	-128.0	384.0	0.23543838136112813	0.0	1518.829345703125	49769.0	762.0	-0.30217391304347824	1.1232323232323231	-201.0	-0.564870259481038	-478.0	13.0	6.224277470044822	-230.0	3.4459819470082698	0.4092401150333921	-447.0	
9.764223647799957	2036.0	-0.008137835284532269	2053.0	0.3987656774022626	1263.0	-16064.0	9.849172286940528	0.03923973022685469	-64.0	320.0	0.19619865113427343	0.0	1538.360595703125	50409.0	758.0	-0.3108695652173913	1.1232323232323231	-201.0	-0.5848303393213574	-468.0	2.0	6.633689053018021	-188.0	2.781109728202921	0.572446379431797	-474.0	
9.764844274894578	2044.0	-0.0428010943103235	2056.0	0.30203970891427623	1263.0	-16064.0	9.849172286940528	0.07847946045370938	-128.0	320.0	0.19619865113427343	0.0	1557.891845703125	51049.0	759.0	-0.30869565217391304	1.1191919191919193	-203.0	-0.5508982035928145	-485.0	-71.0	3.696192299581973	-165.0	2.59632126964734	1.7120875066619752	-282.0	
9.812631812216132	2038.0	-0.06959707040396931	2058.0	0.37453878115306133	1259.0	-16064.0	9.849172286940528	0.07847946045370938	-128.0	320.0	0.19619865113427343	0.0	1577.423095703125	51689.0	761.0	-0.30434782608695654	1.1313131313131313	-197.0	-0.5608782435129741	-480.0	-164.0	2.2664924610828927	-52.0	0.9450975081005849	3.140833174248487	-189.0	
9.751299519208949	2032.0	-0.03322584960825492	2055.0	0.4465783270574526	1264.0	-16128.0	9.888412017167381	0.0	0.0	384.0	0.23543838136112813	0.0	1596.954345703125	52329.0	759.0	-0.30869565217391304	1.1373737373737374	-194.0	-0.5788423153692616	-471.0	-255.0	1.0402260246485797	32.0	-0.2842858794962037	4.537126256863781	-109.0	
9.861621745694883	2030.0	0.04941303958658341	2048.0	0.472604323756429	1255.0	-16192.0	9.927651747394236	0.07847946045370938	-128.0	576.0	0.3531575720416922	0.0	1616.485595703125	52969.0	758.0	-0.3108695652173913	1.1373737373737374	-194.0	-0.6007984031936129	-460.0	-280.0	0.3451700146813707	89.0	-1.1056918203209494	4.924304953845582	-64.0	
9.775788009609649	2025.0	0.06213463940965164	2047.0	0.532114166249229	1262.0	-16064.0	9.849172286940528	0.15695892090741875	-256.0	512.0	0.3139178418148375	0.0	1636.016845703125	53609.0	762.0	-0.30217391304347824	1.1313131313131313	-197.0	-0.5449101796407186	-488.0	-249.0	-0.6479605925659224	136.0	-1.722358290629103	4.462753370184214	0.0	
9.750558220742697	2024.0	-0.010752836922708175	2053.0	0.5431811863683202	1264.0	-16128.0	9.888412017167381	0.11771919068056406	-192.0	640.0	0.39239730226854685	0.0	1655.548095703125	54249.0	760.0	-0.3065217391304348	1.1373737373737374	-194.0	-0.5848303393213574	-468.0	-251.0	-1.0070109407768395	180.0	-2.3582552813491873	4.496762124616894	23.0	
9.714218691418317	2021.0	0.05022174484312353	2048.0	0.5795721152059878	1267.0	-15936.0	9.770692826486817	0.15695892090741875	-256.0	640.0	0.39239730226854685	0.0	1675.079345703125	54889.0	763.0	-0.3	1.1333333333333333	-196.0	-0.5548902195608784	-483.0	-305.0	-1.4431563640380098	175.0	-2.285788752176196	5.322416354514906	52.0	
9.81090139620169	2019.0	-0.013176103690734686	2053.0	0.6040013493106515	1259.0	-16128.0	9.888412017167381	0.15695892090741875	-256.0	640.0	0.39239730226854685	0.0	1694.610595703125	55529.0	764.0	-0.29782608695652174	1.1353535353535353	-195.0	-0.5429141716566867	-489.0	-324.0	-1.2321650672371962	116.0	-1.4274749606553194	5.609279825577315	39.0	
9.860158577778401	2023.0	-0.013207237110213599	2053.0	0.5563008387078866	1255.0	-16320.0	10.006131207847945	0.07847946045370938	-128.0	576.0	0.3531575720416922	0.0	1714.141845703125	56169.0	760.0	-0.3065217391304348	1.1535353535353536	-186.0	-0.5708582834331338	-475.0	-306.0	-0.010735344850209697	33.0	-0.2571580878967956	5.323301269798312	-40.0	
9.823946196164329	2023.0	0.024102156973232453	2050.0	0.5563118088325802	1258.0	-16128.0	9.888412017167381	0.15695892090741875	-256.0	640.0	0.39239730226854685	0.0	1733.673095703125	56809.0	761.0	-0.30434782608695654	1.1434343434343435	-191.0	-0.5489021956087825	-486.0	-266.0	1.3751429697350062	-43.0	0.8101496670261008	4.701077467641054	-130.0	
9.946709865754746	2025.0	0.08306807513081543	2045.0	0.5340327191678916	1248.0	-16320.0	10.006131207847945	0.15695892090741875	-256.0	512.0	0.3139178418148375	0.0	1753.204345703125	57449.0	764.0	-0.29782608695652174	1.1272727272727272	-199.0	-0.5588822355289422	-481.0	-190.0	2.002159599734152	-105.0	1.7422802834068352	3.5389137652193887	-171.0	
9.948048044740482	2030.0	0.15740172816912137	2039.0	0.4745484736327104	1248.0	-16320.0	10.006131207847945	0.27467811158798283	-448.0	448.0	0.27467811158798283	0.0	1772.735595703125	58089.0	761.0	-0.30434782608695654	1.1333333333333333	-196.0	-0.5728542914171657	-474.0	-94.0	2.6706214943010718	-156.0	2.5187760685244953	2.0721531006463425	-215.0	
9.911962810836716	2033.0	0.17104593457018183	2038.0	0.43817948504443033	1251.0	-16384.0	10.0453709380748	0.27467811158798283	-448.0	384.0	0.23543838136112813	0.0	1792.266845703125	58729.0	764.0	-0.29782608695652174	1.1454545454545455	-190.0	-0.5489021956087825	-486.0	-94.0	3.2495320089145627	-130.0	2.088678799256122	2.066363995500208	-253.0	
9.89940285514016	2030.0	0.17057684792631597	2038.0	0.4741937729342791	1252.0	-16320.0	10.006131207847945	0.23543838136112813	-384.0	512.0	0.3139178418148375	0.0	1811.798095703125	59369.0	765.0	-0.2956521739130435	1.1333333333333333	-196.0	-0.5708582834331338	-475.0	-163.0	3.8729281519542993	-129.0	1.988320737640643	3.1095596918644874	-293.0	
9.874651434200613	2027.0	0.17035397963668764	2038.0	0.5100886083552404	1254.0	-16320.0	10.006131207847945	0.23543838136112813	-384.0	512.0	0.3139178418148375	0.0	1831.329345703125	60009.0	765.0	-0.2956521739130435	1.1414141414141414	-192.0	-0.5868263473053893	-467.0	-308.0	2.7516551676566747	-79.0	1.2285232221848073	5.326095615623814	-219.0	
9.935619554313348	2032.0	0.10936383116111648	2043.0	0.4498474242161903	1249.0	-16320.0	10.006131207847945	0.23543838136112813	-384.0	320.0	0.19619865113427343	0.0	1850.860595703125	60649.0	767.0	-0.29130434782608694	1.1292929292929292	-198.0	-0.5608782435129741	-480.0	-294.0	2.1490733432004205	-63.0	1.0390999674631072	5.119193677214384	-180.0	
9.740681099356284	2034.0	0.10158994848740777	2044.0	0.42372391529771397	1265.0	-16064.0	9.849172286940528	0.19619865113427343	-320.0	256.0	0.15695892090741875	0.0	1870.391845703125	61289.0	764.0	-0.29782608695652174	1.1292929292929292	-198.0	-0.56686626746507	-477.0	-289.0	-0.5954217419633853	29.0	-0.1461516943420209	5.0705930006895965	-2.0	
9.703253368907665	2030.0	0.06480412453191561	2047.0	0.47117455083801013	1268.0	-15936.0	9.770692826486817	0.23543838136112813	-384.0	512.0	0.3139178418148375	0.0	1889.923095703125	61929.0	760.0	-0.3065217391304348	1.1474747474747475	-189.0	-0.564870259481038	-478.0	-305.0	-5.467345897809343	112.0	-1.0611774244937775	5.362658249852618	315.0	
9.860764093416115	2024.0	0.035792183250132226	2049.0	0.5447486952967828	1255.0	-16192.0	9.927651747394236	0.11771919068056406	-192.0	576.0	0.3531575720416922	0.0	1909.454345703125	62569.0	759.0	-0.30869565217391304	1.1353535353535353	-195.0	-0.5868263473053893	-467.0	-338.0	-7.103439167480398	111.0	-0.9523888748039223	5.88092032323374	422.0	
9.957451115758602	2024.0	-0.05150928796547943	2056.0	0.5448425508080516	1247.0	-16384.0	10.0453709380748	0.07847946045370938	-128.0	448.0	0.27467811158798283	0.0	1928.985595703125	63209.0	764.0	-0.29782608695652174	1.1393939393939394	-193.0	-0.5608782435129741	-480.0	-352.0	-1.045740933668597	25.0	-0.09316645980455308	6.033271097549614	28.0	
9.653394989252357	2027.0	-0.008067785090704688	2053.0	0.5060918262584839	1272.0	-15808.0	9.692213366033108	0.19619865113427343	-320.0	512.0	0.3139178418148375	0.0	1948.516845703125	63849.0	765.0	-0.2956521739130435	1.1454545454545455	-190.0	-0.5788423153692616	-471.0	-336.0	4.864604091417831	-28.0	0.2998100654042887	5.730821639694187	-357.0	
9.555731802039029	2022.0	0.04147077210733452	2049.0	0.5658515438137527	1280.0	-15744.0	9.652973635806253	0.15695892090741875	-256.0	768.0	0.47087676272225626	0.0	1968.048095703125	64489.0	764.0	-0.29782608695652174	1.1252525252525252	-200.0	-0.5608782435129741	-480.0	-306.0	2.5324510195576733	-51.0	0.8252064559829941	5.297869406154233	-205.0	
9.786404270682755	2022.0	-0.06072934734513433	2057.0	0.5671362673056652	1261.0	-16000.0	9.809932556713672	0.15695892090741875	-256.0	512.0	0.3139178418148375	0.0	1987.579345703125	65129.0	767.0	-0.29130434782608694	1.1353535353535353	-195.0	-0.5708582834331338	-475.0	-294.0	0.7751862588736792	-106.0	1.7794001697016637	5.132932548057652	-90.0	
9.762501866903746	2021.0	4.758860651954411E-4	2052.0	0.5795574883730628	1263.0	-16064.0	9.849172286940528	0.11771919068056406	-192.0	704.0	0.4316370324954016	0.0	2007.110595703125	233.0	767.0	-0.29130434782608694	1.1373737373737374	-194.0	-0.5928143712574852	-464.0	-279.0	0.3479066487772573	-135.0	2.253046914545198	4.909068462029338	-62.0	
9.897217817773448	2024.0	0.022863281847175176	2050.0	0.5449839435263266	1252.0	-16256.0	9.966891477621092	0.11771919068056406	-192.0	512.0	0.3139178418148375	0.0	2026.641845703125	873.0	769.0	-0.28695652173913044	1.1353535353535353	-195.0	-0.5608782435129741	-480.0	-197.0	0.8554535940358419	-122.0	2.072705029988499	3.6568447036033684	-96.0	
9.945858689814653	2022.0	0.03359178477173402	2049.0	0.5696740228181529	1248.0	-16320.0	10.006131207847945	0.11771919068056406	-192.0	512.0	0.3139178418148375	0.0	2046.173095703125	1513.0	772.0	-0.28043478260869564	1.1252525252525252	-200.0	-0.5688622754491018	-476.0	-174.0	1.7356510421666969	-82.0	1.425735533110816	3.2982328431905006	-154.0	
9.94621638637043	2020.0	0.09406614647422101	2044.0	0.5943787289429042	1248.0	-16384.0	10.0453709380748	0.23543838136112813	-384.0	640.0	0.39239730226854685	0.0	2065.704345703125	2153.0	766.0	-0.29347826086956524	1.1515151515151516	-187.0	-0.5728542914171657	-474.0	-202.0	1.9191358550291708	-51.0	0.9311631534113642	3.7222535083698607	-166.0	
9.922540213877777	2012.0	0.26331455195117687	2030.0	0.6922199934414218	1250.0	-16320.0	10.006131207847945	0.3531575720416922	-576.0	768.0	0.47087676272225626	0.0	2085.235595703125	2793.0	767.0	-0.29130434782608694	1.1454545454545455	-190.0	-0.5508982035928145	-485.0	-176.0	2.39758729618075	6.0	0.0591077099583327	3.32203173160093	-198.0	
9.96045926493115	2020.0	0.3010541159041401	2027.0	0.5965910374228106	1247.0	-16384.0	10.0453709380748	0.4316370324954016	-704.0	512.0	0.3139178418148375	0.0	2104.766845703125	3433.0	771.0	-0.2826086956521739	1.1333333333333333	-196.0	-0.5908183632734532	-465.0	-216.0	1.1115207983422666	30.0	-0.23553675250758754	3.9432574155907223	-114.0	
10.034202778129004	2016.0	0.40833528284344445	2018.0	0.6465940553085194	1241.0	-16448.0	10.084610668301655	0.5493562231759657	-896.0	704.0	0.4316370324954016	0.0	2124.298095703125	4073.0	769.0	-0.28695652173913044	1.1494949494949496	-188.0	-0.5748502994011977	-473.0	-266.0	0.5039876829007148	39.0	-0.3586032323565593	4.709789020509396	-74.0	
10.08224461087117	2016.0	0.3342089313850274	2024.0	0.6463332101213569	1237.0	-16512.0	10.123850398528509	0.4316370324954016	-704.0	832.0	0.510116492949111	0.0	2143.829345703125	4713.0	768.0	-0.2891304347826087	1.1474747474747475	-189.0	-0.5508982035928145	-485.0	-287.0	0.40604114079133863	99.0	-1.2641120433125423	5.030160120911479	-68.0	
9.983885459562309	2024.0	0.15523246311020214	2039.0	0.5471743117568455	1245.0	-16384.0	10.0453709380748	0.27467811158798283	-448.0	640.0	0.39239730226854685	0.0	2163.360595703125	5353.0	769.0	-0.28695652173913044	1.1434343434343435	-191.0	-0.564870259481038	-478.0	-314.0	3.129720116537402	65.0	-0.9603608281014946	5.413569718986717	-245.0	
9.812480917930685	2024.0	0.08553804202806031	2045.0	0.5447633221297078	1259.0	-16128.0	9.888412017167381	0.19619865113427343	-320.0	576.0	0.3531575720416922	0.0	2182.891845703125	5993.0	768.0	-0.2891304347826087	1.1454545454545455	-190.0	-0.5888223552894213	-466.0	-405.0	5.328188726133438	16.0	-0.43410277640124584	6.775615451141708	-387.0	
9.787983792411753	2027.0	0.03798479837366067	2049.0	0.5078982401247215	1261.0	-16064.0	9.849172286940528	0.15695892090741875	-256.0	512.0	0.3139178418148375	0.0	2202.423095703125	6633.0	774.0	-0.27608695652173915	1.1393939393939394	-193.0	-0.5608782435129741	-480.0	-395.0	6.531553643799664	-41.0	0.3427993891624771	6.611490547212194	-465.0	
9.714352315467298	2027.0	-0.009298876861892263	2053.0	0.5066890886029215	1267.0	-15936.0	9.770692826486817	0.15695892090741875	-256.0	512.0	0.3139178418148375	0.0	2221.954345703125	7273.0	773.0	-0.2782608695652174	1.1393939393939394	-193.0	-0.5469061876247505	-487.0	-305.0	6.3137425961519025	-108.0	1.4172096409142256	5.2448473649130065	-451.0	
9.690090056352954	2027.0	0.003383806186827265	2052.0	0.5065732928422652	1269.0	-16000.0	9.809932556713672	0.11771919068056406	-192.0	576.0	0.3531575720416922	0.0	2241.485595703125	7913.0	774.0	-0.27608695652173915	1.1494949494949496	-188.0	-0.56686626746507	-477.0	-204.0	6.242902816198528	-143.0	2.00832258770354	3.7094340897087372	-447.0	
9.640843668674034	2028.0	-0.056344117098077434	2057.0	0.49343535696154256	1273.0	-15744.0	9.652973635806253	0.07847946045370938	-128.0	512.0	0.3139178418148375	0.0	2261.016845703125	8553.0	774.0	-0.27608695652173915	1.121212121212121	-202.0	-0.6147704590818364	-453.0	-160.0	5.736205481616759	-182.0	2.655064429203845	3.0452995421420073	-414.0	
9.593056131352478	2034.0	-0.02954814100443165	2055.0	0.4209362847227575	1277.0	-15744.0	9.652973635806253	0.03923973022685469	-64.0	384.0	0.23543838136112813	0.0	2280.548095703125	9193.0	775.0	-0.2739130434782609	1.1414141414141414	-192.0	-0.5868263473053893	-467.0	-125.0	5.2762329049207715	-217.0	3.2331089273916924	2.5175798762739863	-384.0	
9.751187482955551	2036.0	-0.0932233413120063	2060.0	0.39778446069354373	1264.0	-16000.0	9.809932556713672	-0.03923973022685469	64.0	320.0	0.19619865113427343	0.0	2300.079345703125	9833.0	773.0	-0.2782608695652174	1.1474747474747475	-189.0	-0.5808383233532934	-470.0	-138.0	2.9160838556206903	-216.0	3.3744740522277037	2.7388999979456945	-230.0	
9.76374312109299	2037.0	-0.06885063198638702	2058.0	0.3861055513970901	1263.0	-16128.0	9.888412017167381	0.03923973022685469	-64.0	256.0	0.15695892090741875	0.0	2319.610595703125	10473.0	773.0	-0.2782608695652174	1.1414141414141414	-192.0	-0.6067864271457086	-457.0	-130.0	4.5935960513810965	-160.0	2.4230059136598188	2.600451872185809	-340.0	
9.691663101743277	2029.0	0.1379533859282524	2041.0	0.483838333551414	1269.0	-15936.0	9.770692826486817	0.15695892090741875	-256.0	448.0	0.27467811158798283	0.0	2339.141845703125	11113.0	777.0	-0.26956521739130435	1.1393939393939394	-193.0	-0.594810379241517	-463.0	-34.0	5.5490232999248486	-79.0	1.2005184153880677	1.1308215540729951	-404.0	
9.703970920798778	2027.0	0.17380103659601284	2038.0	0.5084162737908152	1268.0	-15936.0	9.770692826486817	0.27467811158798283	-448.0	448.0	0.27467811158798283	0.0	2358.673095703125	11753.0	779.0	-0.26521739130434785	1.1414141414141414	-192.0	-0.596806387225549	-462.0	68.0	2.6437481430691188	-32.0	0.7601311220824711	-0.39145649283753536	-216.0	
9.80234086600543	2024.0	0.2930184481664545	2028.0	0.5467367256718392	1260.0	-16000.0	9.809932556713672	0.47087676272225626	-768.0	640.0	0.39239730226854685	0.0	2378.204345703125	12393.0	781.0	-0.2608695652173913	1.1393939393939394	-193.0	-0.5688622754491018	-476.0	51.0	0.8088428979389057	50.0	-0.3518869855259867	-0.11455230730638527	-97.0	
9.754178361891634	2024.0	0.35495455328462705	2023.0	0.5468744616818829	1264.0	-16000.0	9.809932556713672	0.5493562231759657	-896.0	512.0	0.3139178418148375	0.0	2397.735595703125	13033.0	781.0	-0.2608695652173913	1.1292929292929292	-198.0	-0.5688622754491018	-476.0	-19.0	0.6653858303360846	52.0	-0.4144729324478807	0.9515210466396049	-87.0	
9.839880632707445	2024.0	0.389801763825698	2020.0	0.5480799564954518	1257.0	-16128.0	9.888412017167381	0.47087676272225626	-768.0	576.0	0.3531575720416922	0.0	2417.266845703125	13673.0	776.0	-0.2717391304347826	1.1353535353535353	-195.0	-0.5808383233532934	-470.0	-53.0	0.30540439988161666	31.0	-0.09526005682399293	1.4722311271038455	-63.0	
9.803549738501301	2025.0	0.40296910022802285	2019.0	0.5358001281463293	1260.0	-16064.0	9.849172286940528	0.4316370324954016	-704.0	576.0	0.3531575720416922	0.0	2436.798095703125	14313.0	778.0	-0.2673913043478261	1.1474747474747475	-189.0	-0.5508982035928145	-485.0	-74.0	0.37191334565056455	17.0	0.09723030762501185	1.7909576726271446	-67.0	
9.766740476367747	2028.0	0.3434718285876162	2024.0	0.4986924844953367	1263.0	-16128.0	9.888412017167381	0.47087676272225626	-768.0	448.0	0.27467811158798283	0.0	2456.329345703125	14953.0	776.0	-0.2717391304347826	1.1414141414141414	-192.0	-0.5928143712574852	-464.0	-88.0	0.650620796145286	13.0	0.12928517379692328	2.00109835477619	-85.0	
9.827811997615646	2025.0	0.39028641717930324	2020.0	0.5359159239069855	1258.0	-16256.0	9.966891477621092	0.510116492949111	-832.0	576.0	0.3531575720416922	0.0	2475.860595703125	15593.0	774.0	-0.27608695652173915	1.1494949494949496	-188.0	-0.5788423153692616	-471.0	-98.0	1.3849025128063441	-67.0	1.2714958159772745	2.145846792362431	-132.0	
9.8279520980033	2034.0	0.2949103614516573	2028.0	0.4265298294138266	1258.0	-16256.0	9.966891477621092	0.3139178418148375	-512.0	320.0	0.19619865113427343	0.0	2495.391845703125	16233.0	783.0	-0.2565217391304348	1.1454545454545455	-190.0	-0.5568862275449102	-482.0	-114.0	1.5318611045952153	-111.0	1.9112038226021275	2.3877232140491054	-141.0	
9.864772154034645	2036.0	0.2946485763876803	2028.0	0.4027990265813316	1255.0	-16128.0	9.888412017167381	0.3139178418148375	-512.0	256.0	0.15695892090741875	0.0	2514.923095703125	16873.0	781.0	-0.2608695652173913	1.1313131313131313	-197.0	-0.5868263473053893	-467.0	-156.0	1.8008145883826987	-125.0	2.076828381805803	3.0238169491732076	-158.0	
9.864776471593762	2038.0	0.2707449537059269	2030.0	0.3784636479879365	1255.0	-16128.0	9.888412017167381	0.39239730226854685	-640.0	256.0	0.15695892090741875	0.0	2534.454345703125	17513.0	775.0	-0.2739130434782609	1.1434343434343435	-191.0	-0.5908183632734532	-465.0	-185.0	2.1329645715036536	-164.0	2.620775803606165	3.461560088125268	-179.0	
9.91341086729629	2033.0	0.317328890653116	2026.0	0.4396567951698554	1251.0	-16320.0	10.006131207847945	0.3531575720416922	-576.0	384.0	0.23543838136112813	0.0	2553.985595703125	18153.0	779.0	-0.26521739130434785	1.1292929292929292	-198.0	-0.6047904191616768	-458.0	-173.0	1.359570792132569	-132.0	2.2021442709384993	3.2867845202155563	-129.0	
9.876717958975252	2034.0	0.2939254880347072	2028.0	0.42700763928937663	1254.0	-16256.0	9.966891477621092	0.39239730226854685	-640.0	448.0	0.27467811158798283	0.0	2573.516845703125	18793.0	782.0	-0.25869565217391305	1.1292929292929292	-198.0	-0.5608782435129741	-480.0	-115.0	0.42579653406461654	-98.0	1.7926750029664087	2.4139929852296964	-69.0	
9.766501292404042	2029.0	0.3071395245662504	2027.0	0.4862785768444016	1263.0	-16000.0	9.809932556713672	0.3531575720416922	-576.0	448.0	0.27467811158798283	0.0	2593.048095703125	19433.0	778.0	-0.2673913043478261	1.1535353535353536	-186.0	-0.5748502994011977	-473.0	-111.0	0.10058956524293561	-81.0	1.5628703043543024	2.3564085530167724	-48.0	
9.766738317588189	2027.0	0.3554236399284929	2023.0	0.5108601737920342	1263.0	-16064.0	9.849172286940528	0.3531575720416922	-576.0	576.0	0.3531575720416922	0.0	2612.579345703125	20073.0	782.0	-0.25869565217391305	1.1494949494949496	-188.0	-0.5768463073852296	-472.0	-128.0	-1.6214139640950977	-36.0	0.9977168760073686	2.6321837213900006	64.0	
9.826732431609638	2028.0	0.24471876609447252	2032.0	0.49830487342282415	1258.0	-16192.0	9.927651747394236	0.39239730226854685	-640.0	320.0	0.19619865113427343	0.0	2632.110595703125	20713.0	779.0	-0.26521739130434785	1.1333333333333333	-196.0	-0.6087824351297406	-456.0	-122.0	-3.0199025075540034	-23.0	0.9037993200205396	2.5549138539728786	155.0	
9.960952744315467	2025.0	0.2900560445607346	2028.0	0.536245027647798	1247.0	-16512.0	10.123850398528509	0.3139178418148375	-512.0	512.0	0.3139178418148375	0.0	2651.641845703125	21353.0	779.0	-0.26521739130434785	1.1474747474747475	-189.0	-0.5808383233532934	-470.0	-176.0	1.1687739574199134	-84.0	1.493958455667421	3.334319864988539	-117.0	
9.899872587949336	2024.0	0.29104870133255434	2028.0	0.5476923454229393	1252.0	-16192.0	9.927651747394236	0.4316370324954016	-704.0	576.0	0.3531575720416922	0.0	2671.173095703125	21993.0	780.0	-0.26304347826086955	1.1434343434343435	-191.0	-0.564870259481038	-478.0	-104.0	2.1380392010153173	-72.0	1.2903898311044912	2.2295701783320525	-181.0	
9.802595161426042	2030.0	0.24568807280168312	2032.0	0.4739768082458916	1260.0	-16192.0	9.927651747394236	0.3531575720416922	-576.0	448.0	0.27467811158798283	0.0	2690.704345703125	22633.0	779.0	-0.26521739130434785	1.1333333333333333	-196.0	-0.5888223552894213	-466.0	-78.0	0.8885046294018178	-49.0	1.0483473415761906	1.8466282616907728	-100.0	
9.85172087773333	2029.0	0.29322574974634336	2028.0	0.48699163494949543	1256.0	-16192.0	9.927651747394236	0.4316370324954016	-704.0	384.0	0.23543838136112813	0.0	2710.235595703125	23273.0	783.0	-0.2565217391304348	1.1474747474747475	-189.0	-0.5588822355289422	-481.0	-112.0	2.480521872728035E-5	-23.0	0.6996960292416716	2.3726233260922998	-42.0	
9.900004053218758	2029.0	0.24347989096841524	2032.0	0.4869770081165704	1252.0	-16256.0	9.966891477621092	0.3531575720416922	-576.0	512.0	0.3139178418148375	0.0	2729.766845703125	23913.0	782.0	-0.25869565217391305	1.1454545454545455	-190.0	-0.5628742514970061	-479.0	-134.0	0.783323418830552	-9.0	0.42189936284227464	2.699391100412455	-93.0	
9.839160922036774	2026.0	0.2927566631024775	2028.0	0.5230059228393442	1257.0	-16256.0	9.966891477621092	0.3531575720416922	-576.0	448.0	0.27467811158798283	0.0	2749.298095703125	24553.0	784.0	-0.25434782608695655	1.1434343434343435	-191.0	-0.56686626746507	-477.0	-131.0	0.6448528710671275	-9.0	0.4333620080236432	2.655148429464234	-84.0	
9.766251314542547	2025.0	0.3305662772492683	2025.0	0.5347031156769542	1263.0	-16128.0	9.888412017167381	0.4316370324954016	-704.0	576.0	0.3531575720416922	0.0	2768.829345703125	25193.0	778.0	-0.2673913043478261	1.1494949494949496	-188.0	-0.5788423153692616	-471.0	-117.0	-2.539286180180926	40.0	-0.07113748740150337	2.4740620633227217	123.0	
9.936567655049931	2024.0	0.30250029261008626	2027.0	0.5481738120067206	1249.0	-16384.0	10.0453709380748	0.510116492949111	-832.0	576.0	0.3531575720416922	0.0	2788.360595703125	25833.0	782.0	-0.25869565217391305	1.1393939393939394	-193.0	-0.56686626746507	-477.0	-98.0	-1.8201711391145459	33.0	-0.0046814326616251775	2.17789752888164	76.0	
10.070559577689846	2027.0	0.25174621035059896	2031.0	0.5128616120972718	1238.0	-16640.0	10.20232985898222	0.39239730226854685	-640.0	512.0	0.3139178418148375	0.0	2807.891845703125	26473.0	781.0	-0.2608695652173913	1.1414141414141414	-192.0	-0.596806387225549	-462.0	-137.0	-0.6030092891894296	34.0	-0.12811463690598407	2.7588818039185106	-3.0	
9.89963556276519	2026.0	0.24276458597031186	2032.0	0.5231107484753067	1252.0	-16256.0	9.966891477621092	0.3531575720416922	-576.0	448.0	0.27467811158798283	0.0	2827.423095703125	27113.0	781.0	-0.2608695652173913	1.1555555555555554	-185.0	-0.5748502994011977	-473.0	-133.0	1.6171241826210532	55.0	-0.5950450451785927	2.6758439672992647	-148.0	
9.936686167642003	2023.0	0.3266423502912075	2025.0	0.5604646104805368	1249.0	-16384.0	10.0453709380748	0.47087676272225626	-768.0	704.0	0.4316370324954016	0.0	2846.954345703125	27753.0	771.0	-0.2826086956521739	1.1313131313131313	-197.0	-0.6067864271457086	-457.0	-106.0	1.1221019515650186	57.0	-0.5741506498800366	2.2701478017771257	-116.0	
9.937052499316016	2025.0	0.3393094666301877	2024.0	0.536498559418498	1249.0	-16448.0	10.084610668301655	0.510116492949111	-832.0	512.0	0.3139178418148375	0.0	2866.485595703125	28393.0	779.0	-0.26521739130434785	1.1373737373737374	-194.0	-0.5928143712574852	-464.0	-57.0	1.9804159360281353	13.0	0.055590747650430594	1.5163175136435212	-172.0	
9.949728808825087	2026.0	0.3758724222960514	2021.0	0.5249427592991631	1248.0	-16384.0	10.0453709380748	0.4316370324954016	-704.0	448.0	0.27467811158798283	0.0	2886.016845703125	29033.0	779.0	-0.26521739130434785	1.1555555555555554	-185.0	-0.5608782435129741	-480.0	-35.0	2.788119102387306	26.0	-0.18214391103555394	1.1736397215236556	-225.0	
9.937164535569412	2021.0	0.39930695833393903	2019.0	0.5852924257824069	1249.0	-16384.0	10.0453709380748	0.4316370324954016	-704.0	640.0	0.39239730226854685	0.0	2905.548095703125	29673.0	780.0	-0.26304347826086955	1.1515151515151516	-187.0	-0.5528942115768464	-484.0	-60.0	2.8358298717436297	39.0	-0.39557625478367636	1.5533907507122215	-228.0	
9.937039546638665	2019.0	0.4110203346754479	2018.0	0.6095046951986831	1249.0	-16448.0	10.084610668301655	0.47087676272225626	-768.0	832.0	0.510116492949111	0.0	2925.079345703125	30313.0	782.0	-0.25869565217391305	1.1393939393939394	-193.0	-0.5828343313373254	-469.0	-32.0	3.4617597797684896	31.0	-0.30216672586487975	1.121275938323988	-269.0	
9.949597343555663	2021.0	0.4234412326601905	2017.0	0.5856580966055319	1248.0	-16256.0	9.966891477621092	0.5493562231759657	-896.0	640.0	0.39239730226854685	0.0	2944.610595703125	30953.0	783.0	-0.2565217391304348	1.1555555555555554	-185.0	-0.5568862275449102	-482.0	10.0	2.8068349493530853	62.0	-0.6958002430613925	0.489041916666165	-227.0	
9.802577891189577	2022.0	0.3413025635286969	2024.0	0.5713183226194717	1260.0	-16064.0	9.849172286940528	0.47087676272225626	-768.0	640.0	0.39239730226854685	0.0	2964.141845703125	31593.0	783.0	-0.2565217391304348	1.1373737373737374	-194.0	-0.5688622754491018	-476.0	40.0	2.361880175413854	34.0	-0.22679033527735365	0.037217700147002146	-198.0	
9.766975342772335	2025.0	0.4037077552907354	2019.0	0.5354417707396668	1263.0	-16000.0	9.809932556713672	0.510116492949111	-832.0	512.0	0.3139178418148375	0.0	2983.673095703125	32233.0	782.0	-0.25869565217391305	1.1393939393939394	-193.0	-0.5828343313373254	-469.0	60.0	2.5741295662622146	31.0	-0.1844180812557936	-0.2690873032671849	-212.0	
9.76553808021055	2030.0	0.19766574250341765	2036.0	0.47312601413075406	1263.0	-16000.0	9.809932556713672	0.27467811158798283	-448.0	448.0	0.27467811158798283	0.0	3003.204345703125	32873.0	783.0	-0.2565217391304348	1.1535353535353536	-186.0	-0.5768463073852296	-472.0	18.0	2.846978000643538	-9.0	0.3707404868378246	0.3669674823509791	-229.0	
9.704087274611293	2025.0	0.20989490561801083	2035.0	0.5328747615613291	1268.0	-16000.0	9.809932556713672	0.23543838136112813	-384.0	512.0	0.3139178418148375	0.0	3022.735595703125	33513.0	783.0	-0.2565217391304348	1.1414141414141414	-192.0	-0.5788423153692616	-471.0	-10.0	5.15565560730432	-36.0	0.5978199060813151	0.7697362195923562	-379.0	
9.656541080033003	2031.0	0.2610713743921456	2031.0	0.4606219076767815	1272.0	-15872.0	9.731453096259962	0.3531575720416922	-576.0	384.0	0.23543838136112813	0.0	3042.266845703125	34153.0	783.0	-0.2565217391304348	1.1414141414141414	-192.0	-0.6027944111776448	-459.0	6.0	6.231853949699087	-69.0	1.0274029654429777	0.5156282285638456	-449.0	
9.669107512068235	2037.0	0.22568502701338133	2034.0	0.3881045518968402	1271.0	-15744.0	9.652973635806253	0.3531575720416922	-576.0	384.0	0.23543838136112813	0.0	3061.798095703125	34793.0	782.0	-0.25869565217391305	1.1454545454545455	-190.0	-0.6107784431137725	-455.0	40.0	4.348384077570009	-122.0	1.973779577840224	0.017352661125440594	-326.0	
9.693009915847245	2038.0	0.16447979360305148	2039.0	0.3756833308294426	1269.0	-15936.0	9.770692826486817	0.23543838136112813	-384.0	384.0	0.23543838136112813	0.0	3081.329345703125	35433.0	786.0	-0.25	1.1434343434343435	-191.0	-0.5588822355289422	-481.0	71.0	2.2423947583307653	-120.0	2.109230742552377	-0.4330703354160073	-189.0	
9.766755587824655	2035.0	0.25980914920147913	2031.0	0.41351865941845406	1263.0	-16128.0	9.888412017167381	0.3531575720416922	-576.0	448.0	0.27467811158798283	0.0	3100.860595703125	36073.0	781.0	-0.2608695652173913	1.1494949494949496	-188.0	-0.5808383233532934	-470.0	92.0	2.9882966492905667	-103.0	1.8152190726226736	-0.7599209893065939	-238.0	
9.646049807890645	2036.0	0.3722219848054227	2022.0	0.401387537204069	1273.0	-15936.0	9.770692826486817	0.39239730226854685	-640.0	320.0	0.19619865113427343	0.0	3120.391845703125	36713.0	784.0	-0.25434782608695655	1.1494949494949496	-188.0	-0.5548902195608784	-483.0	120.0	4.598490160869259	-129.0	2.1099889222003902	-1.2018784377303655	-343.0	
9.732364070682843	2040.0	0.4202131816842092	2018.0	0.3545378207164415	1266.0	-15936.0	9.770692826486817	0.5493562231759657	-896.0	320.0	0.19619865113427343	0.0	3139.923095703125	37353.0	787.0	-0.24782608695652175	1.1393939393939394	-193.0	-0.5508982035928145	-485.0	163.0	2.565038180890042	-111.0	2.0078118083581673	-1.835536313367836	-211.0	
9.732241240531653	2039.0	0.41997474668484136	2018.0	0.3665824008360203	1266.0	-15936.0	9.770692826486817	0.510116492949111	-832.0	256.0	0.15695892090741875	0.0	3159.454345703125	37993.0	783.0	-0.2565217391304348	1.121212121212121	-202.0	-0.596806387225549	-462.0	106.0	0.3692291846502036	-38.0	1.0315105347996167	-0.9466580713141827	-68.0	
9.744788243550863	2036.0	0.4921547013739676	2012.0	0.40357424872635667	1265.0	-15936.0	9.770692826486817	0.47087676272225626	-768.0	320.0	0.19619865113427343	0.0	3178.985595703125	38633.0	786.0	-0.25	1.1494949494949496	-188.0	-0.5768463073852296	-472.0	47.0	0.09428074539148015	12.0	0.265128222644054	-0.04657018387977033	-50.0	
9.646767359781757	2033.0	0.4812188968695198	2013.0	0.4386292601568741	1273.0	-15872.0	9.731453096259962	0.5493562231759657	-896.0	384.0	0.23543838136112813	0.0	3198.516845703125	39273.0	785.0	-0.25217391304347825	1.1414141414141414	-192.0	-0.5888223552894213	-466.0	10.0	-0.6539308615233367	26.0	0.08479919230814015	0.5236495747749292	-1.0	
9.695287560451332	2031.0	0.4797571534538342	2013.0	0.46319623027158163	1269.0	-15808.0	9.692213366033108	0.627835683629675	-1024.0	448.0	0.27467811158798283	0.0	3218.048095703125	39913.0	787.0	-0.24782608695652175	1.1393939393939394	-193.0	-0.594810379241517	-463.0	-31.0	-0.8649142009026244	41.0	-0.15034688927241813	1.149333552655414	13.0	
9.647122897557976	2030.0	0.5536450699128835	2007.0	0.4755016555783229	1273.0	-15744.0	9.652973635806253	0.627835683629675	-1024.0	448.0	0.27467811158798283	0.0	3237.579345703125	40553.0	786.0	-0.25	1.1575757575757575	-184.0	-0.5568862275449102	-482.0	-93.0	-0.7095967375533355	-14.0	0.6257120902466906	2.090746157489602	4.0	
9.610311476644865	2032.0	0.5060996096133537	2011.0	0.4505617012240279	1276.0	-15744.0	9.652973635806253	0.627835683629675	-1024.0	320.0	0.19619865113427343	0.0	3257.110595703125	41193.0	787.0	-0.24782608695652175	1.1535353535353536	-186.0	-0.5848303393213574	-468.0	-89.0	-0.5813423785661589	-55.0	1.2339117006103921	2.0286271119985892	-4.0	
9.634815078502474	2032.0	0.5177974192451231	2010.0	0.4509237153389216	1274.0	-15808.0	9.692213366033108	0.5885959534028203	-960.0	320.0	0.19619865113427343	0.0	3276.641845703125	41833.0	780.0	-0.26304347826086955	1.1474747474747475	-189.0	-0.5848303393213574	-468.0	-131.0	-2.0274348142903778	-87.0	1.7887685232783486	2.681871306317809	91.0	
9.769653859523363	2036.0	0.5404232500264706	2008.0	0.4043055903726067	1263.0	-16064.0	9.849172286940528	0.6670754138565297	-1088.0	320.0	0.19619865113427343	0.0	3296.173095703125	42473.0	780.0	-0.26304347826086955	1.1393939393939394	-193.0	-0.6147704590818364	-453.0	-178.0	-2.030521892379751	-123.0	2.3001203629523665	3.3967310744371058	92.0	
9.745516589339767	2038.0	0.5413925567336813	2008.0	0.3799775251956742	1265.0	-16000.0	9.809932556713672	0.627835683629675	-1024.0	192.0	0.11771919068056406	0.0	3315.704345703125	43113.0	788.0	-0.24565217391304348	1.1393939393939394	-193.0	-0.5628742514970061	-479.0	-219.0	-2.0092033559803464	-123.0	2.2736936270395	4.020092033559803	91.0	
9.770138703789447	2037.0	0.5772324240465719	2005.0	0.3926303377843842	1263.0	-16128.0	9.888412017167381	0.5885959534028203	-960.0	384.0	0.23543838136112813	0.0	3335.235595703125	43753.0	781.0	-0.2608695652173913	1.1474747474747475	-189.0	-0.596806387225549	-462.0	-282.0	-2.569577953428393	-109.0	2.0644736503504024	4.9838706844772505	128.0	
9.538503022952227	2038.0	0.569958761436208	2006.0	0.37819305157882405	1282.0	-15744.0	9.652973635806253	0.627835683629675	-1024.0	320.0	0.19619865113427343	0.0	3354.766845703125	44393.0	781.0	-0.2608695652173913	1.1515151515151516	-187.0	-0.5728542914171657	-474.0	-301.0	-2.763190716607566	-129.0	2.3662402382689747	5.27478019613946	141.0	
9.611031187315536	2030.0	0.6031447103365741	2003.0	0.47563573488013544	1276.0	-15808.0	9.692213366033108	0.7063151440833844	-1152.0	384.0	0.23543838136112813	0.0	3374.298095703125	45033.0	782.0	-0.25869565217391305	1.1414141414141414	-192.0	-0.5868263473053893	-467.0	-343.0	-5.798730079246782	-96.0	2.0572098234220295	5.943918859727829	339.0	
9.902915277594817	2036.0	0.45238312374814643	2015.0	0.40475780329053795	1252.0	-16256.0	9.966891477621092	0.627835683629675	-1024.0	256.0	0.15695892090741875	0.0	3393.829345703125	45673.0	781.0	-0.2608695652173913	1.1373737373737374	-194.0	-0.6027944111776448	-459.0	-396.0	-10.894618805592208	-120.0	2.739460422723089	6.800961397181398	672.0	
9.96328004084939	2041.0	0.33044174357135264	2025.0	0.34390107326589414	1247.0	-16448.0	10.084610668301655	0.4316370324954016	-704.0	256.0	0.15695892090741875	0.0	3413.360595703125	46313.0	778.0	-0.2673913043478261	1.1515151515151516	-187.0	-0.5608782435129741	-480.0	-479.0	-10.166072637730899	-193.0	3.7327120864751886	8.056033349951454	626.0	
9.937929580610806	2040.0	0.24536402089874831	2032.0	0.35484498420786653	1249.0	-16384.0	10.0453709380748	0.3531575720416922	-576.0	256.0	0.15695892090741875	0.0	3432.891845703125	46953.0	781.0	-0.2608695652173913	1.1454545454545455	-190.0	-0.5688622754491018	-476.0	-576.0	-4.427030851895144	-221.0	3.6940534762844397	9.473928103195759	253.0	
9.75397371840086	2041.0	0.1273932678092338	2042.0	0.33977752528378763	1264.0	-16128.0	9.888412017167381	0.19619865113427343	-320.0	256.0	0.15695892090741875	0.0	3452.423095703125	47593.0	775.0	-0.2739130434782609	1.1494949494949496	-188.0	-0.596806387225549	-462.0	-571.0	-4.959554430424067	-152.0	2.6996761838244203	9.40320771160462	287.0	
9.801647060689458	2038.0	0.05255161135271327	2048.0	0.3756504204553614	1260.0	-16000.0	9.809932556713672	0.03923973022685469	-64.0	320.0	0.19619865113427343	0.0	3471.954345703125	48233.0	782.0	-0.25869565217391305	1.1515151515151516	-187.0	-0.56686626746507	-477.0	-524.0	-8.331203479334896	-112.0	2.3632359635971123	8.722095304755328	506.0	
10.044750178539877	2037.0	-0.013562422432627314	2053.0	0.3894685040670965	1240.0	-16320.0	10.006131207847945	0.15695892090741875	-256.0	320.0	0.19619865113427343	0.0	3491.485595703125	48873.0	778.0	-0.2673913043478261	1.1414141414141414	-192.0	-0.5768463073852296	-472.0	-427.0	-6.622369325913464	-147.0	2.828050144547495	7.229721792118451	394.0	
10.130336095543173	2039.0	-0.014809080913554373	2053.0	0.3662155111101515	1233.0	-16704.0	10.241569589209073	0.15695892090741875	-256.0	256.0	0.15695892090741875	0.0	3511.016845703125	49513.0	773.0	-0.2782608695652174	1.1373737373737374	-194.0	-0.6067864271457086	-457.0	-360.0	-2.0133143981827692	-163.0	2.787900437821218	6.164619835997038	93.0	
9.935391164247434	2038.0	0.013272470435367112	2051.0	0.3765950700817677	1249.0	-16384.0	10.0453709380748	0.03923973022685469	-64.0	256.0	0.15695892090741875	0.0	3530.548095703125	50153.0	771.0	-0.2826086956521739	1.1272727272727272	-199.0	-0.6367265469061877	-442.0	-253.0	-0.12998484116454162	-144.0	2.437058186472577	4.518410114571341	-31.0	
9.959280615349094	2033.0	0.023778105070297678	2050.0	0.4371799847945552	1247.0	-16448.0	10.084610668301655	0.11771919068056406	-192.0	256.0	0.15695892090741875	0.0	3550.079345703125	50793.0	779.0	-0.26521739130434785	1.1333333333333333	-196.0	-0.5988023952095809	-461.0	-136.0	-0.6585676878228724	-108.0	2.0052961248917978	2.74422826242956	2.0	
9.984146231321594	2033.0	0.07204665372280067	2046.0	0.43791132644080527	1245.0	-16384.0	10.0453709380748	0.15695892090741875	-256.0	384.0	0.23543838136112813	0.0	3569.610595703125	51433.0	776.0	-0.2717391304347826	1.1414141414141414	-192.0	-0.6107784431137725	-455.0	-88.0	0.8757682094260719	-159.0	2.6923255585102415	1.9988468806433823	-98.0	
9.936218593612386	2030.0	0.19421868554409244	2036.0	0.4747983486951791	1249.0	-16384.0	10.0453709380748	0.23543838136112813	-384.0	448.0	0.27467811158798283	0.0	3589.141845703125	52073.0	776.0	-0.2717391304347826	1.1474747474747475	-189.0	-0.5728542914171657	-474.0	-66.0	2.3041414908649887	-194.0	3.1310324397247515	1.6499623873727192	-191.0	
9.998889065605306	2041.0	0.23218111778668407	2033.0	0.34327455725560657	1244.0	-16448.0	10.084610668301655	0.3531575720416922	-576.0	192.0	0.11771919068056406	0.0	3608.673095703125	52713.0	777.0	-0.26956521739130435	1.1333333333333333	-196.0	-0.5688622754491018	-476.0	-13.0	1.713154360109165	-191.0	3.159430978788584	0.8497886084901631	-153.0	
10.023390508683356	2040.0	0.25583073875933027	2031.0	0.3558042606671979	1242.0	-16448.0	10.084610668301655	0.39239730226854685	-640.0	256.0	0.15695892090741875	0.0	3628.204345703125	53353.0	774.0	-0.27608695652173915	1.1474747474747475	-189.0	-0.5988023952095809	-461.0	-50.0	1.2472073324816968	-116.0	2.0449136050985883	1.4171857213519892	-123.0	
10.036068976971986	2042.0	0.28044188308431733	2029.0	0.33208077125116536	1241.0	-16512.0	10.123850398528509	0.3139178418148375	-512.0	256.0	0.15695892090741875	0.0	3647.735595703125	53993.0	774.0	-0.27608695652173915	1.1393939393939394	-193.0	-0.6267465069860281	-447.0	-95.0	1.384614644173569	-68.0	1.2883334504392756	2.1002222946229034	-132.0	
9.986934625546462	2039.0	0.280711451503164	2029.0	0.3677367017343516	1245.0	-16384.0	10.0453709380748	0.39239730226854685	-640.0	256.0	0.15695892090741875	0.0	3667.266845703125	54633.0	778.0	-0.2673913043478261	1.1353535353535353	-195.0	-0.5828343313373254	-469.0	-130.0	1.8116661621354784	-18.0	0.4876927017174308	2.6282711710782656	-160.0	
9.950002533261722	2041.0	0.2209757448633896	2034.0	0.34267363820293784	1248.0	-16448.0	10.084610668301655	0.27467811158798283	-448.0	320.0	0.19619865113427343	0.0	3686.798095703125	55273.0	777.0	-0.26956521739130435	1.1393939393939394	-193.0	-0.6187624750499002	-451.0	-156.0	1.5931014421174123	33.0	-0.2775303754180311	3.0258940806358603	-146.0	
9.949875385551417	2038.0	0.2446409325457752	2032.0	0.3790535969159116	1248.0	-16320.0	10.006131207847945	0.27467811158798283	-448.0	320.0	0.19619865113427343	0.0	3706.329345703125	55913.0	774.0	-0.27608695652173915	1.1393939393939394	-193.0	-0.6027944111776448	-459.0	-170.0	1.683420693523977	58.0	-0.667146299285236	3.237918644775787	-152.0	
9.889282232230926	2039.0	0.2704909519968196	2030.0	0.36665797280613277	1253.0	-16384.0	10.0453709380748	0.3139178418148375	-512.0	256.0	0.15695892090741875	0.0	3725.860595703125	56553.0	781.0	-0.2608695652173913	1.1393939393939394	-193.0	-0.5788423153692616	-471.0	-134.0	2.000844528050791	54.0	-0.607367842491388	2.687215889320253	-173.0	
9.889165878418412	2041.0	0.2343970829748217	2033.0	0.34219948503561903	1253.0	-16256.0	9.966891477621092	0.3531575720416922	-576.0	128.0	0.07847946045370938	0.0	3745.391845703125	57193.0	779.0	-0.26521739130434785	1.1373737373737374	-194.0	-0.6147704590818364	-453.0	-126.0	1.9793968191863571	87.0	-1.095760785490488	2.565757362606616	-172.0	
9.778942735508526	2033.0	0.2834665535289951	2029.0	0.4379734904807365	1262.0	-16128.0	9.888412017167381	0.39239730226854685	-640.0	320.0	0.19619865113427343	0.0	3764.923095703125	57833.0	779.0	-0.26521739130434785	1.1454545454545455	-190.0	-0.5708582834331338	-475.0	-131.0	2.4210039178360137	113.0	-1.5193435621028355	2.637386918996545	-201.0	
9.668743339173782	2036.0	0.2010660993335245	2036.0	0.3999029136621814	1271.0	-15872.0	9.731453096259962	0.27467811158798283	-448.0	320.0	0.19619865113427343	0.0	3784.454345703125	58473.0	779.0	-0.26521739130434785	1.1434343434343435	-191.0	-0.5908183632734532	-465.0	-144.0	2.270129870913542	109.0	-1.4567814586916759	2.836614290644477	-191.0	
9.632285297257333	2034.0	0.237898623418235	2033.0	0.42400304402603267	1274.0	-15936.0	9.770692826486817	0.3139178418148375	-512.0	448.0	0.27467811158798283	0.0	3803.985595703125	59113.0	777.0	-0.26956521739130435	1.1494949494949496	-188.0	-0.6047904191616768	-458.0	-124.0	1.7379078235903018	59.0	-0.6579463164114535	2.5377540016120057	-156.0	
9.669223865880749	2035.0	0.26177889603537924	2031.0	0.41256303966735397	1271.0	-15872.0	9.731453096259962	0.3139178418148375	-512.0	320.0	0.19619865113427343	0.0	3823.516845703125	59753.0	778.0	-0.2673913043478261	1.1494949494949496	-188.0	-0.5768463073852296	-472.0	-118.0	1.6418078424127813	-22.0	0.5667852359907711	2.4474602485720705	-149.0	
9.6931241108802	2035.0	0.2125254739659262	2035.0	0.41230950789665394	1269.0	-16064.0	9.849172286940528	0.27467811158798283	-448.0	320.0	0.19619865113427343	0.0	3843.048095703125	60393.0	782.0	-0.25869565217391305	1.1414141414141414	-192.0	-0.5788423153692616	-471.0	-116.0	1.8602786188199165	-49.0	0.9575940011902575	2.4148572898574283	-163.0	
9.76625994966078	2029.0	0.28275903188576146	2029.0	0.48603235849016413	1263.0	-16064.0	9.849172286940528	0.3531575720416922	-576.0	512.0	0.3139178418148375	0.0	3862.579345703125	61033.0	774.0	-0.27608695652173915	1.121212121212121	-202.0	-0.6147704590818364	-453.0	-102.0	1.8564384686657858	-37.0	0.7864683409296336	2.2019679347049768	-163.0	
9.754555487463435	2031.0	0.30786261291922346	2027.0	0.46206996413635654	1264.0	-15936.0	9.770692826486817	0.4316370324954016	-704.0	320.0	0.19619865113427343	0.0	3882.110595703125	61673.0	779.0	-0.26521739130434785	1.1414141414141414	-192.0	-0.6207584830339322	-450.0	-60.0	1.9154041152257457	-62.0	1.1827282564306878	1.5625950082774005	-167.0	
9.70567974901764	2036.0	0.2368981832915455	2033.0	0.40063059860020017	1268.0	-15936.0	9.770692826486817	0.27467811158798283	-448.0	256.0	0.15695892090741875	0.0	3901.641845703125	62313.0	778.0	-0.2673913043478261	1.1373737373737374	-194.0	-0.6147704590818364	-453.0	-22.0	0.9421320678869389	-52.0	1.123660824166643	0.9943809606899521	-104.0	
9.827221593434839	2031.0	0.2576243174328204	2031.0	0.46229424224120663	1258.0	-16256.0	9.966891477621092	0.39239730226854685	-640.0	576.0	0.3531575720416922	0.0	3921.173095703125	62953.0	779.0	-0.26521739130434785	1.1373737373737374	-194.0	-0.6167664670658684	-452.0	-74.0	-0.008814798254879463	-1.0	0.3935940539070976	1.794764954066199	-42.0	
9.729687712711375	2030.0	0.27154587560759724	2030.0	0.473506311786804	1266.0	-16064.0	9.849172286940528	0.3531575720416922	-576.0	448.0	0.27467811158798283	0.0	3940.704345703125	63593.0	779.0	-0.26521739130434785	1.1515151515151516	-187.0	-0.5768463073852296	-472.0	-96.0	0.4600472062958715	-38.0	0.9022998666527741	2.1246770944769655	-72.0	
9.803095117149033	2038.0	0.1988345674356474	2036.0	0.37712773058078647	1260.0	-16192.0	9.927651747394236	0.39239730226854685	-640.0	320.0	0.19619865113427343	0.0	3960.235595703125	64233.0	783.0	-0.2565217391304348	1.1414141414141414	-192.0	-0.5748502994011977	-473.0	-92.0	0.0788853022827035	-57.0	1.216119766462529	2.0676522116159566	-47.0	
9.912934658148442	2036.0	0.23271247126950775	2033.0	0.4026612905712878	1251.0	-16192.0	9.927651747394236	0.3139178418148375	-512.0	384.0	0.23543838136112813	0.0	3979.766845703125	64873.0	776.0	-0.2717391304347826	1.1515151515151516	-187.0	-0.6007984031936129	-460.0	-93.0	0.005941603134807107	-81.0	1.5804083728592335	2.0835907740827206	-42.0	
9.913171683332587	2034.0	0.2809965866317502	2029.0	0.42724288751892037	1251.0	-16256.0	9.966891477621092	0.39239730226854685	-640.0	384.0	0.23543838136112813	0.0	3999.298095703125	65513.0	780.0	-0.26304347826086955	1.1535353535353536	-186.0	-0.5748502994011977	-473.0	-58.0	0.8345754558496925	-118.0	2.0987508710563367	1.5429850439205905	-96.0	
9.951327759570107	2040.0	0.3670202659469559	2022.0	0.35619552844794167	1248.0	-16448.0	10.084610668301655	0.39239730226854685	-640.0	320.0	0.19619865113427343	0.0	4018.829345703125	617.0	777.0	-0.26956521739130435	1.1292929292929292	-198.0	-0.6067864271457086	-457.0	25.0	1.512331218537703	-116.0	2.072088359054946	0.27385007184504123	-141.0	
9.939375478290822	2039.0	0.40359878832255913	2019.0	0.36848998362998914	1249.0	-16320.0	10.006131207847945	0.39239730226854685	-640.0	320.0	0.19619865113427343	0.0	4038.360595703125	1257.0	776.0	-0.2717391304347826	1.1474747474747475	-189.0	-0.594810379241517	-463.0	69.0	0.6873591194363098	-78.0	1.586559335560119	-0.38710172807649246	-88.0	
9.890728129910944	2038.0	0.4287257194206304	2017.0	0.3803029722282554	1253.0	-16192.0	9.927651747394236	0.5493562231759657	-896.0	256.0	0.15695892090741875	0.0	4057.891845703125	1897.0	776.0	-0.2717391304347826	1.1292929292929292	-198.0	-0.656686626746507	-432.0	37.0	1.0363891985884048	-22.0	0.7032189515477159	0.09609998634111216	-111.0	
9.902686887528903	2042.0	0.35629176302239707	2023.0	0.33150544915611535	1252.0	-16384.0	10.0453709380748	0.4316370324954016	-704.0	192.0	0.11771919068056406	0.0	4077.423095703125	2537.0	777.0	-0.26956521739130435	1.1373737373737374	-194.0	-0.5908183632734532	-465.0	-13.0	0.11897044298319265	8.0	0.28687793354349017	0.8657304476614228	-51.0	
9.926942670304573	2039.0	0.37946451399630765	2021.0	0.36812431280686414	1250.0	-16320.0	10.006131207847945	0.39239730226854685	-640.0	192.0	0.11771919068056406	0.0	4096.954345703125	3177.0	778.0	-0.2673913043478261	1.1555555555555554	-185.0	-0.6047904191616768	-458.0	-93.0	0.22416173445884693	-2.0	0.38081245561713145	2.08140857276948	-57.0	
9.890124773052788	2038.0	0.3677744877194079	2022.0	0.3796874263426616	1253.0	-16256.0	9.966891477621092	0.39239730226854685	-640.0	192.0	0.11771919068056406	0.0	4116.485595703125	3817.0	781.0	-0.2608695652173913	1.1515151515151516	-187.0	-0.5748502994011977	-473.0	-132.0	0.7186875763332043	11.0	0.12776467255559415	2.669619207886858	-89.0	
9.804295354526671	2035.0	0.3565924648607226	2023.0	0.4148618902420666	1260.0	-16192.0	9.927651747394236	0.39239730226854685	-640.0	320.0	0.19619865113427343	0.0	4136.016845703125	4457.0	772.0	-0.28043478260869564	1.1333333333333333	-196.0	-0.6327345309381238	-444.0	-84.0	1.3899576995196787	-12.0	0.45507337910125956	1.9328684838413053	-133.0	
9.804534538490374	2034.0	0.3929247688820883	2020.0	0.42727579789300163	1260.0	-16000.0	9.809932556713672	0.47087676272225626	-768.0	256.0	0.15695892090741875	0.0	4155.548095703125	5097.0	777.0	-0.26956521739130435	1.1535353535353536	-186.0	-0.6027944111776448	-459.0	-67.0	1.6482063051961995	-12.0	0.4474414814693677	1.671730864704692	-150.0	
9.767723117577264	2036.0	0.3453793085825585	2024.0	0.4023358435387066	1263.0	-16128.0	9.888412017167381	0.3531575720416922	-576.0	320.0	0.19619865113427343	0.0	4175.079345703125	5737.0	781.0	-0.2608695652173913	1.1515151515151516	-187.0	-0.5788423153692616	-471.0	-59.0	1.8543596974209742	-65.0	1.232562824173289	1.547996326980163	-163.0	
9.828941215551492	2045.0	0.26096240742396937	2031.0	0.29367012056710395	1258.0	-16128.0	9.888412017167381	0.4316370324954016	-704.0	192.0	0.11771919068056406	0.0	4194.610595703125	6377.0	782.0	-0.25869565217391305	1.1373737373737374	-194.0	-0.6067864271457086	-457.0	-76.0	2.3564619438755563	-124.0	2.0718320236362864	1.801530437595465	-195.0	
9.93793605694948	2043.0	0.20950858687611817	2035.0	0.31834191631777403	1249.0	-16320.0	10.006131207847945	0.3139178418148375	-512.0	128.0	0.07847946045370938	0.0	4214.141845703125	7017.0	780.0	-0.26304347826086955	1.1474747474747475	-189.0	-0.6247504990019961	-448.0	-101.0	1.6392708922033634	-124.0	2.106539395357386	2.1889304849943163	-148.0	
9.937694714206218	2043.0	0.18512809419562914	2037.0	0.3180956979635365	1249.0	-16384.0	10.0453709380748	0.23543838136112813	-384.0	320.0	0.19619865113427343	0.0	4233.673095703125	7657.0	784.0	-0.25434782608695655	1.1414141414141414	-192.0	-0.5928143712574852	-464.0	-88.0	1.58851703520016	-105.0	1.8331230378375645	1.9917193923856413	-145.0	
9.98705961447721	2041.0	0.2689980751616551	2030.0	0.34352443231807533	1245.0	-16384.0	10.0453709380748	0.3139178418148375	-512.0	128.0	0.07847946045370938	0.0	4253.204345703125	8297.0	783.0	-0.2565217391304348	1.1414141414141414	-192.0	-0.594810379241517	-463.0	-42.0	2.0865783107986715	-96.0	1.6915102301972995	1.2871190077665382	-178.0	
10.023866717831208	2037.0	0.34044715814293847	2024.0	0.3927997652657655	1242.0	-16448.0	10.084610668301655	0.39239730226854685	-640.0	320.0	0.19619865113427343	0.0	4272.735595703125	8937.0	780.0	-0.26304347826086955	1.1454545454545455	-190.0	-0.5988023952095809	-461.0	136.0	3.123712237668463	-26.0	0.6781394199023767	-1.4304766661029205	-248.0	
9.928647180964319	2046.0	0.4664652833735937	2014.0	0.28467401620964417	1250.0	-16384.0	10.0453709380748	0.510116492949111	-832.0	128.0	0.07847946045370938	0.0	4292.266845703125	9577.0	775.0	-0.2739130434782609	1.1494949494949496	-188.0	-0.6167664670658684	-452.0	117.0	2.90667297579096	8.0	0.17194128973155245	-1.1393328894537271	-234.0	
9.915602381001678	2042.0	0.4291870227096266	2017.0	0.3323635566877154	1251.0	-16384.0	10.0453709380748	0.5493562231759657	-896.0	320.0	0.19619865113427343	0.0	4311.798095703125	10217.0	779.0	-0.26521739130434785	1.1494949494949496	-188.0	-0.6087824351297406	-456.0	103.0	2.2621651548537427	24.0	-0.03159813616739188	-0.9199600545903626	-192.0	
9.926821998932942	2039.0	0.3672742676560632	2022.0	0.36800120362974537	1250.0	-16448.0	10.084610668301655	0.4316370324954016	-704.0	320.0	0.19619865113427343	0.0	4331.329345703125	10857.0	779.0	-0.26521739130434785	1.1595959595959595	-183.0	-0.6087824351297406	-456.0	23.0	2.663310147830476	86.0	-1.037722261583293	0.2927585335026838	-218.0	
9.830501308264465	2041.0	0.4672428552106549	2014.0	0.3439412970564379	1258.0	-16064.0	9.849172286940528	0.5493562231759657	-896.0	256.0	0.15695892090741875	0.0	4350.860595703125	11497.0	782.0	-0.25869565217391305	1.1555555555555554	-185.0	-0.5808383233532934	-470.0	-9.0	0.7280281586851965	136.0	-1.6721195031534433	0.7988033686032621	-92.0	
9.878902996341964	2040.0	0.441639054113848	2016.0	0.3562174686973291	1254.0	-16192.0	9.927651747394236	0.4316370324954016	-704.0	256.0	0.15695892090741875	0.0	4370.391845703125	12137.0	784.0	-0.25434782608695655	1.1474747474747475	-189.0	-0.6047904191616768	-458.0	1.0	2.0808679850226706	105.0	-1.2954258886845136	0.6331837155870358	-180.0	
9.647271633063864	2043.0	0.4104617688217307	2019.0	0.317444803898374	1273.0	-16000.0	9.809932556713672	0.39239730226854685	-640.0	192.0	0.11771919068056406	0.0	4389.923095703125	12777.0	776.0	-0.2717391304347826	1.1494949494949496	-188.0	-0.6107784431137725	-455.0	-21.0	2.1144519577404175	107.0	-1.3411323711001715	0.9674486363161321	-182.0	
9.769793959911018	2045.0	0.44504719429882456	2016.0	0.29491949587944777	1263.0	-16064.0	9.849172286940528	0.5885959534028203	-960.0	-64.0	-0.03923973022685469	0.0	4409.454345703125	13417.0	783.0	-0.2565217391304348	1.1515151515151516	-187.0	-0.5888223552894213	-466.0	-32.0	0.4020594849976461	82.0	-0.8538292765032517	1.1518729412716966	-70.0	
9.806601063265013	2041.0	0.516496277280108	2010.0	0.34419482882713787	1260.0	-16064.0	9.849172286940528	0.5493562231759657	-896.0	320.0	0.19619865113427343	0.0	4428.985595703125	14057.0	784.0	-0.25434782608695655	1.1434343434343435	-191.0	-0.594810379241517	-463.0	-11.0	1.1435602128521052	26.0	-0.05308185186763018	0.8250662990121633	-118.0	
9.733822921040211	2045.0	0.5067370810627596	2011.0	0.29517668435837907	1266.0	-16064.0	9.849172286940528	0.5885959534028203	-960.0	192.0	0.11771919068056406	0.0	4448.516845703125	14697.0	779.0	-0.26521739130434785	1.1575757575757575	-184.0	-0.596806387225549	-462.0	2.0	0.2322872802516352	56.0	-0.4315236229552672	0.6364603971594609	-59.0	
9.756865513760893	2039.0	0.4438628026568554	2016.0	0.3670675241280328	1264.0	-16000.0	9.809932556713672	0.5885959534028203	-960.0	256.0	0.15695892090741875	0.0	4468.048095703125	15337.0	775.0	-0.2739130434782609	1.1494949494949496	-188.0	-0.6227544910179642	-449.0	-45.0	0.6476999852833398	93.0	-1.0437521417996696	1.347135167447547	-86.0	
9.696024541358469	2037.0	0.4811877634500409	2013.0	0.39092874955410906	1269.0	-15936.0	9.770692826486817	0.5885959534028203	-960.0	384.0	0.23543838136112813	0.0	4487.579345703125	15977.0	778.0	-0.2673913043478261	1.1393939393939394	-193.0	-0.6167664670658684	-452.0	-21.0	2.3122779217290335	15.0	0.02440928663380687	0.9654703766762459	-194.0	
9.647732730754807	2033.0	0.5787408675914759	2005.0	0.4396141335738242	1273.0	-15808.0	9.692213366033108	0.7063151440833844	-1152.0	448.0	0.27467811158798283	0.0	4507.110595703125	16617.0	780.0	-0.26304347826086955	1.1575757575757575	-184.0	-0.6047904191616768	-458.0	-9.0	2.326107026405009	-89.0	1.5899675509815931	0.782822579926064	-194.0	
9.720894474890084	2039.0	0.5055526894207905	2011.0	0.3673247126069641	1267.0	-16128.0	9.888412017167381	0.6670754138565297	-1088.0	256.0	0.15695892090741875	0.0	4526.641845703125	17257.0	780.0	-0.26304347826086955	1.1595959595959595	-183.0	-0.5768463073852296	-472.0	-36.0	1.1382553677230667	-119.0	2.1059912833563263	1.2053474843455831	-116.0	
9.793319238118226	2039.0	0.4309339012538984	2017.0	0.3673027723575766	1261.0	-16192.0	9.927651747394236	0.47087676272225626	-768.0	192.0	0.11771919068056406	0.0	4546.173095703125	17897.0	783.0	-0.2565217391304348	1.1454545454545455	-190.0	-0.6027944111776448	-459.0	-106.0	0.2830051042338722	-75.0	1.4632609854468346	2.278538770250437	-60.0	
9.866961508960474	2044.0	0.41845851978506765	2018.0	0.3076734773958891	1255.0	-16320.0	10.006131207847945	0.5885959534028203	-960.0	256.0	0.15695892090741875	0.0	4565.704345703125	18537.0	782.0	-0.25869565217391305	1.1515151515151516	-187.0	-0.6227544910179642	-449.0	-154.0	0.3763371904917717	-37.0	0.8578484089019518	3.007643472201546	-66.0	
9.829895792626749	2040.0	0.418243434850309	2018.0	0.3554934404675416	1258.0	-16192.0	9.927651747394236	0.510116492949111	-832.0	192.0	0.11771919068056406	0.0	4585.235595703125	19177.0	785.0	-0.25217391304347825	1.1353535353535353	-195.0	-0.5808383233532934	-470.0	-150.0	0.3840497382911595	10.0	0.15509739948924106	2.946729844822412	-67.0	
9.768567817178681	2036.0	0.43071103296427005	2017.0	0.40319760777853786	1263.0	-16192.0	9.927651747394236	0.510116492949111	-832.0	320.0	0.19619865113427343	0.0	4604.766845703125	19817.0	783.0	-0.2565217391304348	1.1353535353535353	-195.0	-0.6047904191616768	-458.0	-131.0	0.16371368724666796	29.0	-0.10286584721123836	2.6599598213024382	-53.0	
9.707248476848847	2036.0	0.395371385714724	2020.0	0.402231017902744	1268.0	-16000.0	9.809932556713672	0.47087676272225626	-768.0	320.0	0.19619865113427343	0.0	4624.298095703125	20457.0	779.0	-0.26521739130434785	1.1636363636363636	-181.0	-0.5988023952095809	-461.0	-120.0	-0.39077164129243513	34.0	-0.13254417187642098	2.498204294359693	-17.0	
9.75577083629798	2035.0	0.3819578309581617	2021.0	0.4146302987207541	1264.0	-16000.0	9.809932556713672	0.5493562231759657	-896.0	320.0	0.19619865113427343	0.0	4643.829345703125	21097.0	781.0	-0.2608695652173913	1.1393939393939394	-193.0	-0.5828343313373254	-469.0	-133.0	-1.2121287010112376	1.0	0.41146615792101526	2.7041364961355883	37.0	
9.853423229613517	2035.0	0.39217833046450606	2020.0	0.4157090276489729	1256.0	-16128.0	9.888412017167381	0.510116492949111	-832.0	384.0	0.23543838136112813	0.0	4663.360595703125	21737.0	782.0	-0.25869565217391305	1.1454545454545455	-190.0	-0.6167664670658684	-452.0	-171.0	-0.8473924995944442	-42.0	1.0076403087493881	3.2784359021822564	14.0	
9.939004829057696	2035.0	0.4148352946653325	2018.0	0.41679141328542296	1249.0	-16192.0	9.927651747394236	0.510116492949111	-832.0	256.0	0.15695892090741875	0.0	4682.891845703125	22377.0	779.0	-0.26521739130434785	1.1434343434343435	-191.0	-0.6207584830339322	-450.0	-162.0	-0.17058241467704177	-64.0	1.2958446944690103	3.134785672055516	-30.0	
9.878411675737206	2036.0	0.4406853141163769	2016.0	0.40439578917564417	1254.0	-16256.0	9.966891477621092	0.5885959534028203	-960.0	448.0	0.27467811158798283	0.0	4702.423095703125	23017.0	784.0	-0.25434782608695655	1.1575757575757575	-184.0	-0.5788423153692616	-471.0	-131.0	1.2229575615849746	-80.0	1.4575936876805424	2.649367382559056	-121.0	
9.830134976590454	2039.0	0.45457573887167485	2015.0	0.36790734811847664	1258.0	-16256.0	9.966891477621092	0.47087676272225626	-768.0	320.0	0.19619865113427343	0.0	4721.954345703125	23657.0	784.0	-0.25434782608695655	1.1515151515151516	-187.0	-0.6047904191616768	-458.0	-127.0	1.792838590807418	-100.0	1.7202135030852248	2.5828320703656904	-158.0	
9.854759249819693	2039.0	0.47846379484368873	2013.0	0.36839247141048914	1256.0	-16256.0	9.966891477621092	0.5885959534028203	-960.0	256.0	0.15695892090741875	0.0	4741.485595703125	24297.0	781.0	-0.2608695652173913	1.1575757575757575	-184.0	-0.6267465069860281	-447.0	-132.0	0.42572999067354095	-81.0	1.5274648653450928	2.672548783743455	-69.0	
9.939866798895581	2043.0	0.4045525283200303	2019.0	0.32031166315167414	1249.0	-16256.0	9.966891477621092	0.510116492949111	-832.0	320.0	0.19619865113427343	0.0	4761.016845703125	24937.0	783.0	-0.2565217391304348	1.1454545454545455	-190.0	-0.6027944111776448	-459.0	-155.0	-1.4192925235634364	-28.0	0.8472833382480496	3.0408088948173835	51.0	
9.817587973571246	2042.0	0.38239578418254866	2021.0	0.3309155002281403	1259.0	-16192.0	9.927651747394236	0.4316370324954016	-704.0	192.0	0.11771919068056406	0.0	4780.548095703125	25577.0	781.0	-0.2608695652173913	1.1454545454545455	-190.0	-0.5988023952095809	-461.0	-180.0	-1.9047809226252197	-39.0	1.0307817465768496	3.425891915690131	83.0	
9.841240399488761	2039.0	0.3446173034552368	2024.0	0.36691881799329534	1257.0	-16000.0	9.809932556713672	0.4316370324954016	-704.0	448.0	0.27467811158798283	0.0	4800.079345703125	26217.0	783.0	-0.2565217391304348	1.1595959595959595	-183.0	-0.5988023952095809	-461.0	-214.0	-2.2101556700168374	-15.0	0.6715313283938962	3.9460559293237427	103.0	
9.902316238295777	2038.0	0.36752826936517047	2022.0	0.3798068788115491	1252.0	-16256.0	9.966891477621092	0.39239730226854685	-640.0	320.0	0.19619865113427343	0.0	4819.610595703125	26857.0	780.0	-0.26304347826086955	1.1656565656565656	-180.0	-0.5828343313373254	-469.0	-208.0	-1.3010554522721092	-49.0	1.121653270789213	3.8457101742945845	44.0	
9.792586574770207	2035.0	0.4055996685759382	2019.0	0.41523487448165414	1261.0	-15936.0	9.770692826486817	0.47087676272225626	-768.0	384.0	0.23543838136112813	0.0	4839.141845703125	27497.0	775.0	-0.2739130434782609	1.1515151515151516	-187.0	-0.62874251497006	-446.0	-179.0	1.3213830447732804	-76.0	1.361571738145585	3.3784211505408606	-127.0	
9.853916708997833	2040.0	0.38118025912110054	2021.0	0.35536301787396035	1256.0	-16128.0	9.888412017167381	0.510116492949111	-832.0	320.0	0.19619865113427343	0.0	4858.673095703125	28137.0	777.0	-0.26956521739130435	1.1535353535353536	-186.0	-0.6167664670658684	-452.0	-167.0	0.7667518247592287	-71.0	1.3325119325460704	3.201457957037579	-91.0	
9.878051820401872	2037.0	0.3921627637547666	2020.0	0.39185877234759037	1254.0	-16256.0	9.966891477621092	0.47087676272225626	-768.0	192.0	0.11771919068056406	0.0	4878.204345703125	28777.0	781.0	-0.2608695652173913	1.1595959595959595	-183.0	-0.5908183632734532	-465.0	-166.0	0.5550340519466441	-92.0	1.6626984332634822	3.18836600929042	-77.0	
9.853783084948851	2034.0	0.44070088082611636	2016.0	0.4282460444770267	1256.0	-16256.0	9.966891477621092	0.47087676272225626	-768.0	256.0	0.15695892090741875	0.0	4897.735595703125	29417.0	782.0	-0.25869565217391305	1.1515151515151516	-187.0	-0.6127744510978045	-454.0	-170.0	1.712183405601565	-134.0	2.2094125355943435	3.237631017655011	-152.0	
9.915598063442562	2040.0	0.45309064539138005	2015.0	0.3566989352811104	1251.0	-16128.0	9.888412017167381	0.5493562231759657	-896.0	128.0	0.07847946045370938	0.0	4917.266845703125	30057.0	777.0	-0.26956521739130435	1.1555555555555554	-185.0	-0.62874251497006	-446.0	-143.0	1.493975950183041	-137.0	2.2860031412491586	2.829166704376497	-138.0	
9.902921753933489	2039.0	0.4165276897255162	2018.0	0.3682547354004454	1252.0	-16192.0	9.927651747394236	0.5493562231759657	-896.0	192.0	0.11771919068056406	0.0	4936.798095703125	30697.0	782.0	-0.25869565217391305	1.1353535353535353	-195.0	-0.62874251497006	-446.0	-153.0	1.696912963066132	-151.0	2.4756901274361445	2.9792285890005177	-151.0	
9.890967313874649	2037.0	0.4650580234419962	2014.0	0.39271687987919046	1253.0	-16256.0	9.966891477621092	0.47087676272225626	-768.0	256.0	0.15695892090741875	0.0	4956.329345703125	31337.0	782.0	-0.25869565217391305	1.1474747474747475	-189.0	-0.5848303393213574	-468.0	-192.0	2.1873940485545784	-111.0	1.818126258219666	3.5674796716817547	-183.0	
9.902803241341417	2040.0	0.3923856320443949	2020.0	0.3559639369266291	1252.0	-16256.0	9.966891477621092	0.5885959534028203	-960.0	320.0	0.19619865113427343	0.0	4975.860595703125	31977.0	779.0	-0.26521739130434785	1.1616161616161615	-182.0	-0.6087824351297406	-456.0	-208.0	1.357935733112588	-87.0	1.506302626715224	3.819120262440737	-129.0	
9.829296753327709	2042.0	0.3333885804673331	2025.0	0.3305425159885528	1258.0	-16128.0	9.888412017167381	0.510116492949111	-832.0	320.0	0.19619865113427343	0.0	4995.391845703125	32617.0	782.0	-0.25869565217391305	1.1616161616161615	-182.0	-0.5888223552894213	-466.0	-220.0	0.6510391565590851	-66.0	1.233359669504566	4.0086987339096956	-83.0	
9.828320588456869	2037.0	0.2956256664497606	2028.0	0.3903960890550903	1258.0	-16192.0	9.927651747394236	0.39239730226854685	-640.0	320.0	0.19619865113427343	0.0	5014.923095703125	33257.0	783.0	-0.2565217391304348	1.1393939393939394	-193.0	-0.6167664670658684	-452.0	-222.0	0.29558414735786653	-46.0	0.9570325331444294	4.0426715349522775	-60.0	
9.89000841924027	2040.0	0.33168061869740995	2025.0	0.3552289385721478	1253.0	-16256.0	9.966891477621092	0.39239730226854685	-640.0	192.0	0.11771919068056406	0.0	5034.454345703125	33897.0	780.0	-0.26304347826086955	1.1676767676767676	-179.0	-0.6187624750499002	-451.0	-218.0	0.5110666365578308	-55.0	1.0794009457052909	3.9796802081591367	-74.0	
9.792000488148517	2043.0	0.24903394614770186	2032.0	0.3172778142224802	1261.0	-16192.0	9.927651747394236	0.4316370324954016	-704.0	256.0	0.15695892090741875	0.0	5053.985595703125	34537.0	783.0	-0.2565217391304348	1.1393939393939394	-193.0	-0.6427145708582835	-439.0	-164.0	1.2121353827476309	-78.0	1.4082858582039934	3.1513767450318397	-120.0	
9.816385577414051	2044.0	0.23658969809835015	2033.0	0.30534902986355766	1259.0	-16256.0	9.966891477621092	0.3139178418148375	-512.0	192.0	0.11771919068056406	0.0	5073.516845703125	35177.0	784.0	-0.25434782608695655	1.1515151515151516	-187.0	-0.6067864271457086	-457.0	-133.0	0.9888501876671889	-51.0	1.0378882221715453	2.6821267072488038	-106.0	
9.877694123846092	2039.0	0.3316884020522797	2025.0	0.3671540662228391	1254.0	-16128.0	9.888412017167381	0.39239730226854685	-640.0	192.0	0.11771919068056406	0.0	5093.048095703125	35817.0	784.0	-0.25434782608695655	1.1494949494949496	-188.0	-0.6506986027944113	-435.0	-93.0	0.32157665853244705	-38.0	0.9137625118341426	2.0804344235287444	-63.0	
