Device	Device	Device	Device	Device	Device	Device	Device	Device	Device	Device	Device	Device	Device	Device	Device	Device	Device	Device	Device	Device	Device	Device	Device	Device	Device	Device	
Low Noise Accelerometer X	Low Noise Accelerometer X	Low Noise Accelerometer Z	Low Noise Accelerometer Z	Low Noise Accelerometer Y	Low Noise Accelerometer Y	Wide Range Accelerometer X	Wide Range Accelerometer X	Wide Range Accelerometer Z	Wide Range Accelerometer Z	Wide Range Accelerometer Y	Wide Range Accelerometer Y	Event_Marker	Timestamp	Timestamp	Magnetometer Z	Magnetometer Z	Magnetometer X	Magnetometer X	Magnetometer Y	Magnetometer Y	Gyroscope Y	Gyroscope Y	Gyroscope Z	Gyroscope Z	Gyroscope X	Gyroscope X	
UNCAL	CAL	CAL	UNCAL	CAL	UNCAL	CAL	UNCAL	UNCAL	CAL	CAL	UNCAL	CAL	UNCAL	CAL	UNCAL	CAL	CAL	UNCAL	CAL	UNCAL	CAL	UNCAL	CAL	UNCAL	UNCAL	CAL	
no units	m/(s^2)	m/(s^2)	no units	m/(s^2)	no units	m/(s^2)	no units	no units	m/(s^2)	m/(s^2)	no units	no units	no units	ms	no units	local_flux	local_flux	no units	local_flux	no units	deg/s	no units	deg/s	no units	no units	deg/s	
2024.0	9.932826842529362	-0.07539734393749345	2058.0	0.544357427516039	1249.0	10.0453709380748	-16384.0	0.0	0.0	0.27467811158798283	448.0	0.0	31921.0	974.151611328125	740.0	-0.35	1.121212121212121	-202.0	-0.6007984031936129	-460.0	1.1447353020732207	-79.0	0.5651377055473457	-18.0	-117.0	1.859275080439344	
2022.0	9.895644772383125	-0.11170629789424999	2061.0	0.5677189028171779	1252.0	10.006131207847945	-16320.0	-128.0	0.07847946045370938	0.3531575720416922	576.0	0.0	32561.0	993.682861328125	736.0	-0.358695652173913	1.121212121212121	-202.0	-0.5788423153692616	-471.0	1.096946246374456	-74.0	0.46655812268215524	-11.0	-114.0	1.7837073436199056	
2022.0	9.89612745786965	-0.06294531253327196	2057.0	0.5682113395256528	1252.0	9.966891477621092	-16256.0	-64.0	0.03923973022685469	0.3531575720416922	576.0	0.0	33201.0	1013.214111328125	747.0	-0.3347826086956522	1.1232323232323231	-201.0	-0.5808383233532934	-470.0	1.8739520837651584	-120.0	0.7293213117321341	-34.0	-164.0	2.4755570571091168	
2024.0	9.847245243085183	-0.09805430813831983	2060.0	0.543275041879589	1256.0	9.927651747394236	-16192.0	0.0	0.0	0.3531575720416922	576.0	0.0	33841.0	1032.745361328125	741.0	-0.34782608695652173	1.1474747474747475	-189.0	-0.530938123752495	-495.0	1.995367324181098	-141.0	0.273312536904293	-5.0	-172.0	2.793734539685946	
2023.0	9.810548017205027	-0.09755408807497509	2060.0	0.5549612645925053	1259.0	9.927651747394236	-16192.0	64.0	-0.03923973022685469	0.3139178418148375	512.0	0.0	34481.0	1052.276611328125	741.0	-0.34782608695652173	1.1353535353535353	-195.0	-0.5848303393213574	-468.0	1.6304423025882948	-175.0	0.0981168627832531	7.0	-148.0	3.31449405606157	
2026.0	9.810192479428808	-0.1699802611183388	2066.0	0.5180888691710565	1259.0	9.927651747394236	-16192.0	256.0	-0.15695892090741875	0.23543838136112813	384.0	0.0	35121.0	1071.807861328125	747.0	-0.3347826086956522	1.1414141414141414	-192.0	-0.56686626746507	-477.0	0.8027816566511538	-191.0	-0.033921841541215636	19.0	-94.0	3.566116670125504	
2022.0	9.821409938580514	-0.2199412048310255	2070.0	0.5658942054097839	1258.0	9.927651747394236	-16192.0	192.0	-0.11771919068056406	0.3139178418148375	512.0	0.0	35761.0	1091.339111328125	741.0	-0.34782608695652173	1.1373737373737374	-194.0	-0.5369261477045909	-492.0	0.1716242031723046	-215.0	-0.5893016894122729	58.0	-53.0	3.9374472560671365	
2019.0	9.759239422310586	-0.3047571424396528	2077.0	0.6005689191842513	1263.0	9.888412017167381	-16128.0	256.0	-0.15695892090741875	0.39239730226854685	640.0	0.0	36401.0	1110.870361328125	747.0	-0.3347826086956522	1.1414141414141414	-192.0	-0.5349301397205589	-493.0	0.2478155961988616	-188.0	-0.23335116864671684	35.0	-58.0	3.5260389543041715	
2014.0	9.747157834541438	-0.2325616210407872	2071.0	0.6614110223759702	1264.0	9.809932556713672	-16000.0	64.0	-0.03923973022685469	0.510116492949111	832.0	0.0	37041.0	1130.401611328125	744.0	-0.341304347826087	1.1333333333333333	-196.0	-0.5628742514970061	-479.0	0.5044544195923935	-123.0	0.3280606304133685	-1.0	-75.0	2.5348794101767	
2011.0	9.758860137959227	-0.24571339073337256	2072.0	0.6975411060264751	1263.0	9.849172286940528	-16064.0	256.0	-0.15695892090741875	0.4316370324954016	704.0	0.0	37681.0	1149.932861328125	741.0	-0.34782608695652173	1.1454545454545455	-190.0	-0.5508982035928145	-485.0	1.0230400216587499	-53.0	1.0691853074985194	-50.0	-109.0	1.4650547708860744	
2012.0	9.722770586496345	-0.2081655616505587	2069.0	0.6855074960315902	1266.0	9.731453096259962	-15872.0	192.0	-0.11771919068056406	0.5493562231759657	896.0	0.0	38321.0	1169.464111328125	748.0	-0.33260869565217394	1.1292929292929292	-198.0	-0.5608782435129741	-480.0	2.3524004684797255	-42.0	2.1827541354589797	-130.0	-195.0	1.2844607861897275	
2015.0	9.8332242782517	-0.17309548281985945	2066.0	0.6508181554241979	1257.0	9.927651747394236	-16192.0	64.0	-0.03923973022685469	0.39239730226854685	640.0	0.0	38961.0	1188.995361328125	747.0	-0.3347826086956522	1.1292929292929292	-198.0	-0.5808383233532934	-470.0	2.286347835767085	-43.0	3.2362182960455836	-200.0	-190.0	1.3003304379921392	
2025.0	9.968438026064836	-0.18560978106303877	2067.0	0.531563222209054	1246.0	9.966891477621092	-16256.0	256.0	-0.15695892090741875	0.4316370324954016	704.0	0.0	39601.0	1208.526611328125	748.0	-0.33260869565217394	1.1434343434343435	-191.0	-0.5349301397205589	-493.0	1.6253750402749907	-39.0	3.1947004401991235	-194.0	-147.0	1.2461036640459193	
2023.0	9.992816638991695	-0.16219859508976037	2065.0	0.556137505740224	1244.0	10.084610668301655	-16448.0	-64.0	0.03923973022685469	0.39239730226854685	640.0	0.0	40241.0	1228.057861328125	750.0	-0.3282608695652174	1.1353535353535353	-195.0	-0.5369261477045909	-492.0	2.217036699178567	-49.0	2.352834439898646	-141.0	-186.0	1.3922783022097354	
2023.0	9.895405588419422	-0.14803860191561571	2064.0	0.5553049951662428	1252.0	10.0453709380748	-16384.0	0.0	0.0	0.3531575720416922	576.0	0.0	40881.0	1247.589111328125	744.0	-0.341304347826087	1.1393939393939394	-193.0	-0.5688622754491018	-476.0	2.2685796612674944	-28.0	1.687360046470829	-96.0	-190.0	1.0723712376078576	
2022.0	9.846758240039541	-0.12291167081754445	2062.0	0.567117983764509	1256.0	9.966891477621092	-16256.0	64.0	-0.03923973022685469	0.3531575720416922	576.0	0.0	41521.0	1267.120361328125	745.0	-0.3391304347826087	1.1434343434343435	-191.0	-0.5349301397205589	-493.0	1.3676609802839768	-25.0	0.6574363081111227	-23.0	-132.0	1.035753047991837	
2019.0	9.83468096982951	-0.07461977210043225	2058.0	0.6036247083628328	1257.0	9.927651747394236	-16192.0	-64.0	0.03923973022685469	0.4316370324954016	704.0	0.0	42161.0	1286.651611328125	748.0	-0.33260869565217394	1.1353535353535353	-195.0	-0.5389221556886228	-491.0	1.4405890221633848	-28.0	0.23074531639175552	5.0	-137.0	1.0806511439988986	
2020.0	9.76189635126603	-0.048523534295150356	2056.0	0.5911096317841665	1263.0	9.888412017167381	-16128.0	-128.0	0.07847946045370938	0.39239730226854685	640.0	0.0	42801.0	1306.182861328125	746.0	-0.33695652173913043	1.1232323232323231	-201.0	-0.5828343313373254	-469.0	1.2158411268036158	-50.0	0.4428987919643076	-9.0	-122.0	1.41749938340877	
2024.0	9.79847938211323	-0.09706943472136978	2060.0	0.542797232004039	1260.0	9.888412017167381	-16128.0	-192.0	0.11771919068056406	0.3531575720416922	576.0	0.0	43441.0	1325.714111328125	747.0	-0.3347826086956522	1.1454545454545455	-190.0	-0.5548902195608784	-483.0	0.8197770587130943	-88.0	0.1624894091665816	10.0	-96.0	1.9994067921505119	
2024.0	9.798117367998337	-0.1336401737421033	2063.0	0.5424279044726826	1260.0	9.849172286940528	-16064.0	64.0	-0.03923973022685469	0.3139178418148375	512.0	0.0	44081.0	1345.245361328125	748.0	-0.33260869565217394	1.1333333333333333	-196.0	-0.5508982035928145	-485.0	0.259299627278442	-139.0	0.1254945111804739	13.0	-59.0	2.780676965704402	
2023.0	9.797632523732252	-0.17044934776220463	2066.0	0.5541031570609052	1260.0	9.809932556713672	-16000.0	128.0	-0.07847946045370938	0.3531575720416922	576.0	0.0	44721.0	1364.776611328125	748.0	-0.33260869565217394	1.1272727272727272	-199.0	-0.5788423153692616	-471.0	-0.7768760747025072	-154.0	-0.8909734051118905	85.0	8.0	3.0191756048534892	
2021.0	9.84639406714509	-0.14753059849740122	2064.0	0.5789163455298502	1256.0	9.966891477621092	-16256.0	64.0	-0.03923973022685469	0.3139178418148375	512.0	0.0	45361.0	1384.307861328125	746.0	-0.33695652173913043	1.1434343434343435	-191.0	-0.5369261477045909	-492.0	-1.8484216759546865	-144.0	-1.9947179771765737	164.0	77.0	2.8777998061131593	
2019.0	9.83383627022809	-0.1599514964821438	2065.0	0.6027629441230015	1257.0	9.849172286940528	-16064.0	64.0	-0.03923973022685469	0.3531575720416922	576.0	0.0	46001.0	1403.839111328125	748.0	-0.33260869565217394	1.1333333333333333	-196.0	-0.5409181636726548	-490.0	-1.7477883778438217	-140.0	-2.6139812483222076	205.0	70.0	2.8159569712309094	
2015.0	9.74752200743589	-0.20794269336093038	2069.0	0.649612660610629	1264.0	9.927651747394236	-16192.0	64.0	-0.03923973022685469	0.39239730226854685	640.0	0.0	46641.0	1423.370361328125	746.0	-0.33695652173913043	1.1454545454545455	-190.0	-0.5628742514970061	-479.0	-1.8679247620978907	-175.0	-2.8817850953616646	222.0	78.0	3.349477726708432	
2016.0	9.759594960086805	-0.2323309693962891	2071.0	0.6374413146057001	1263.0	9.731453096259962	-15872.0	192.0	-0.11771919068056406	0.4316370324954016	704.0	0.0	47281.0	1442.901611328125	747.0	-0.3347826086956522	1.1333333333333333	-196.0	-0.5788423153692616	-471.0	-1.9888034084195008	-170.0	-2.6154575527644823	205.0	86.0	3.2746408857952214	
2017.0	9.735214188380388	-0.2437903440286908	2072.0	0.6250347203712275	1265.0	9.849172286940528	-16064.0	192.0	-0.11771919068056406	0.3531575720416922	576.0	0.0	47921.0	1462.432861328125	750.0	-0.3282608695652174	1.1313131313131313	-197.0	-0.532934131736527	-494.0	-2.3165747276704542	-156.0	-1.4147122663246334	127.0	108.0	3.0649908423337395	
2016.0	9.747403494843818	-0.23208475104205162	2071.0	0.6373218621368126	1264.0	9.809932556713672	-16000.0	0.0	0.0	0.3139178418148375	512.0	0.0	48561.0	1481.964111328125	746.0	-0.33695652173913043	1.1333333333333333	-196.0	-0.5728542914171657	-474.0	-1.8202015206973732	-82.0	-1.2992933038862344	120.0	75.0	1.9345518250929052	
2017.0	9.808966336696471	-0.18431642245289337	2067.0	0.6263669810701464	1259.0	9.927651747394236	-16192.0	0.0	0.0	0.4316370324954016	704.0	0.0	49201.0	1501.495361328125	746.0	-0.33695652173913043	1.1515151515151516	-187.0	-0.5409181636726548	-490.0	-1.3488253227471088	-12.0	-0.6748228822596108	79.0	44.0	0.8651992798434408	
2019.0	9.834198284342985	-0.12338075746141028	2062.0	0.6031322716543578	1257.0	9.927651747394236	-16192.0	0.0	0.0	0.3139178418148375	512.0	0.0	49841.0	1521.026611328125	745.0	-0.3391304347826087	1.1191919191919193	-203.0	-0.5568862275449102	-482.0	-1.0263707203638424	8.0	-0.3552633397464875	57.0	23.0	0.5577922243139046	
2018.0	9.785912950077998	-0.06168308734260547	2057.0	0.6153145877839802	1261.0	9.888412017167381	-16128.0	-64.0	0.03923973022685469	0.4316370324954016	704.0	0.0	50481.0	1540.557861328125	747.0	-0.3347826086956522	1.1353535353535353	-195.0	-0.5688622754491018	-476.0	-0.41150388800363585	18.0	-0.107116849874251	38.0	-17.0	0.39955230123745084	
2019.0	9.822610175958152	-0.06218330740595024	2057.0	0.603628365071064	1258.0	9.927651747394236	-16192.0	0.0	0.0	0.47087676272225626	768.0	0.0	51121.0	1560.089111328125	749.0	-0.33043478260869563	1.1434343434343435	-191.0	-0.5349301397205589	-493.0	-0.4230957291283753	18.0	0.26850253597117923	13.0	-16.0	0.39966821964869825	
2015.0	9.834430991968013	-0.05119301941741436	2056.0	0.6520492471953854	1257.0	9.927651747394236	-16192.0	-192.0	0.11771919068056406	0.510116492949111	832.0	0.0	51761.0	1579.620361328125	749.0	-0.33043478260869563	1.1313131313131313	-197.0	-0.5588822355289422	-481.0	-0.25063093444221257	-17.0	0.10027367686248967	22.0	-27.0	0.9302629633368176	
2018.0	9.834678811049951	-0.06266796075955552	2057.0	0.6157923976595303	1257.0	9.888412017167381	-16128.0	0.0	0.0	0.39239730226854685	640.0	0.0	52401.0	1599.151611328125	740.0	-0.35	1.1393939393939394	-193.0	-0.5528942115768464	-484.0	-0.7836714066925728	-53.0	-0.03445288443455524	32.0	8.0	1.4831218851695875	
2018.0	9.920622424609027	-0.0034402575379955946	2052.0	0.6172441108273365	1250.0	9.966891477621092	-16256.0	-64.0	0.03923973022685469	0.47087676272225626	768.0	0.0	53041.0	1618.682861328125	742.0	-0.3456521739130435	1.1333333333333333	-196.0	-0.5249500998003993	-498.0	-0.5281867816185513	-77.0	0.5928347901215603	-12.0	-8.0	1.8455860503256913	
2022.0	9.907715566254483	-0.12414276258873203	2062.0	0.5677152461089465	1251.0	9.966891477621092	-16256.0	0.0	0.0	0.27467811158798283	448.0	0.0	53681.0	1638.214111328125	747.0	-0.3347826086956522	1.1353535353535353	-195.0	-0.530938123752495	-495.0	-0.6093238892663062	-28.0	0.8981568862116698	-30.0	-3.0	1.1011502731131955	
2019.0	9.822127490471628	-0.11094429276692827	2061.0	0.603135928362589	1258.0	9.888412017167381	-16128.0	-128.0	0.07847946045370938	0.3531575720416922	576.0	0.0	54321.0	1657.745361328125	744.0	-0.341304347826087	1.1333333333333333	-196.0	-0.5568862275449102	-482.0	-0.14335125225324297	-61.0	0.9505966712850658	-37.0	-33.0	1.5983916874274755	
2021.0	9.809819671416124	-0.14679194343468868	2064.0	0.5785579881231877	1259.0	9.849172286940528	-16064.0	0.0	0.0	0.39239730226854685	640.0	0.0	54961.0	1677.276611328125	743.0	-0.34347826086956523	1.1474747474747475	-189.0	-0.5469061876247505	-487.0	1.0535485304512082	-57.0	0.989665936469889	-45.0	-111.0	1.5255861876992902	
2020.0	9.821888306507923	-0.147276596788294	2064.0	0.5907220207116539	1258.0	9.888412017167381	-16128.0	0.0	0.0	0.39239730226854685	640.0	0.0	55601.0	1696.807861328125	741.0	-0.34782608695652173	1.1232323232323231	-201.0	-0.5708582834331338	-475.0	0.07374387180540093	-66.0	1.0973625667849123	-48.0	-47.0	1.672266363563315	
2018.0	9.773480142091747	-0.08581736166885696	2059.0	0.6149489169608553	1262.0	9.809932556713672	-16000.0	-128.0	0.07847946045370938	0.39239730226854685	640.0	0.0	56241.0	1716.339111328125	747.0	-0.3347826086956522	1.1373737373737374	-194.0	-0.5708582834331338	-475.0	0.9201165791784809	-68.0	1.292110860031864	-65.0	-102.0	1.6942208874401548	
2016.0	9.76104301654638	-0.08604801331335503	2059.0	0.6389186247311253	1263.0	9.849172286940528	-16064.0	-64.0	0.03923973022685469	0.47087676272225626	768.0	0.0	56881.0	1735.870361328125	747.0	-0.3347826086956522	1.1232323232323231	-201.0	-0.5928143712574852	-464.0	1.0835439310520694	-39.0	1.1934313756559114	-58.0	-113.0	1.2515219751381486	
2015.0	9.79797726761068	-0.03826411801445734	2055.0	0.6518139989658416	1260.0	9.888412017167381	-16128.0	-64.0	0.03923973022685469	0.4316370324954016	704.0	0.0	57521.0	1755.401611328125	745.0	-0.3391304347826087	1.1313131313131313	-197.0	-0.5449101796407186	-488.0	0.671298842722324	-63.0	1.0426053321180027	-47.0	-86.0	1.62066343742829	
2019.0	9.810418710715163	-0.06193708905171272	2057.0	0.6035089126021764	1259.0	9.927651747394236	-16192.0	-64.0	0.03923973022685469	0.4316370324954016	704.0	0.0	58161.0	1774.932861328125	744.0	-0.341304347826087	1.1434343434343435	-191.0	-0.5628742514970061	-479.0	0.24397332256186832	-98.0	0.7512043376932525	-27.0	-58.0	2.157256084264876	
2019.0	9.822006819099997	-0.12313453910717279	2062.0	0.6030128191854702	1258.0	9.849172286940528	-16064.0	0.0	0.0	0.3531575720416922	576.0	0.0	58801.0	1794.464111328125	749.0	-0.33043478260869563	1.1474747474747475	-189.0	-0.5209580838323354	-500.0	0.23163742853532837	-135.0	0.4896733502440627	-11.0	-57.0	2.7201170857906924	
2017.0	9.858335554526583	-0.12435006416862088	2062.0	0.6274603368312902	1255.0	9.966891477621092	-16256.0	0.0	0.0	0.4316370324954016	704.0	0.0	59441.0	1813.995361328125	749.0	-0.33043478260869563	1.1333333333333333	-196.0	-0.5349301397205589	-493.0	0.32598577905931536	-153.0	0.442171127209136	-9.0	-63.0	2.992937860840586	
2022.0	9.858467019796004	-0.17191887453276	2066.0	0.5667449995249215	1255.0	9.927651747394236	-16192.0	192.0	-0.11771919068056406	0.39239730226854685	640.0	0.0	60081.0	1833.526611328125	747.0	-0.3347826086956522	1.1373737373737374	-194.0	-0.5628742514970061	-479.0	-0.5551291424554253	-157.0	-0.24856192173578046	41.0	-6.0	3.0625855119568737	
2023.0	9.87066064381855	-0.18411690422787425	2067.0	0.5546967626971115	1254.0	9.966891477621092	-16256.0	128.0	-0.07847946045370938	0.3531575720416922	576.0	0.0	60721.0	1853.057861328125	752.0	-0.3239130434782609	1.1393939393939394	-193.0	-0.5229540918163673	-499.0	-1.0206199858138683	-154.0	-0.7090912876691544	74.0	24.0	3.021613043964603	
2023.0	9.882731437689907	-0.19655336892235625	2068.0	0.5546931059888802	1253.0	9.966891477621092	-16256.0	192.0	-0.11771919068056406	0.3531575720416922	576.0	0.0	61361.0	1872.589111328125	748.0	-0.33260869565217394	1.1333333333333333	-196.0	-0.5568862275449102	-482.0	-1.2081837221749205	-173.0	-1.3372809444009313	116.0	36.0	3.3124620653586314	
2023.0	9.858469178575563	-0.1838706858736367	2067.0	0.554577310228224	1255.0	9.927651747394236	-16192.0	128.0	-0.07847946045370938	0.3531575720416922	576.0	0.0	62001.0	1892.120361328125	747.0	-0.3347826086956522	1.1333333333333333	-196.0	-0.56686626746507	-477.0	-0.7932656154906336	-155.0	-1.0103810880770558	93.0	9.0	3.034548625736656	
2015.0	9.797373910752524	-0.09921534971567986	2060.0	0.6511984530802478	1260.0	9.888412017167381	-16128.0	-64.0	0.03923973022685469	0.47087676272225626	768.0	0.0	62641.0	1911.651611328125	745.0	-0.3391304347826087	1.1474747474747475	-189.0	-0.5768463073852296	-472.0	-0.1524324816469882	-123.0	-0.9005828598510751	84.0	-33.0	2.541448279189094	
2016.0	9.834553822119203	-0.05095458441804657	2056.0	0.6400046670758066	1257.0	9.849172286940528	-16064.0	-128.0	0.07847946045370938	0.4316370324954016	704.0	0.0	63281.0	1931.182861328125	747.0	-0.3347826086956522	1.1353535353535353	-195.0	-0.5269461077844312	-497.0	-0.7546990372506122	-105.0	-0.9976395747201169	94.0	6.0	2.2737066861899966	
2020.0	9.834803799980698	-0.07438133710106445	2058.0	0.591580128243254	1257.0	9.888412017167381	-16128.0	-64.0	0.03923973022685469	0.3531575720416922	576.0	0.0	63921.0	1950.714111328125	745.0	-0.3391304347826087	1.1414141414141414	-192.0	-0.5568862275449102	-482.0	-0.45081830467529815	-132.0	-0.1806428155774884	37.0	-13.0	2.681314266696943	
2016.0	9.773717167275892	-0.037533246306614504	2055.0	0.6395305139084878	1262.0	9.849172286940528	-16064.0	-64.0	0.03923973022685469	0.4316370324954016	704.0	0.0	64561.0	1970.245361328125	746.0	-0.33695652173913043	1.1393939393939394	-193.0	-0.5289421157684632	-496.0	1.6756858503505698	-280.0	-0.043872933877828646	12.0	-150.0	4.91099979548889	
2017.0	9.773236640568927	-0.09824604300846923	2060.0	0.6268703879033153	1262.0	9.888412017167381	-16128.0	-192.0	0.11771919068056406	0.47087676272225626	768.0	0.0	65201.0	1989.776611328125	748.0	-0.33260869565217394	1.1333333333333333	-196.0	-0.5229540918163673	-499.0	0.035998903716793505	-174.0	0.28466100710435066	2.0	-44.0	3.3152293645749995	
2015.0	9.883076181568335	-0.06436813917460896	2057.0	0.6524039478938166	1253.0	9.966891477621092	-16256.0	0.0	0.0	0.4316370324954016	704.0	0.0	305.0	2009.307861328125	749.0	-0.33043478260869563	1.1373737373737374	-194.0	-0.5489021956087825	-486.0	-0.39052670136072115	-196.0	0.2709781513032429	4.0	-16.0	3.654095381082049	
2018.0	9.785309593219843	-0.12263431904382802	2062.0	0.6146990418983864	1261.0	9.888412017167381	-16128.0	0.0	0.0	0.39239730226854685	640.0	0.0	945.0	2028.839111328125	745.0	-0.3391304347826087	1.1494949494949496	-188.0	-0.5369261477045909	-492.0	0.8742057315971511	-181.0	1.121613481638354	-58.0	-98.0	3.413311174623192	
2017.0	9.845902746540332	-0.1484843384948724	2064.0	0.6270946660081652	1256.0	9.849172286940528	-16064.0	128.0	-0.07847946045370938	0.4316370324954016	704.0	0.0	1585.0	2048.370361328125	745.0	-0.3391304347826087	1.1333333333333333	-196.0	-0.564870259481038	-478.0	0.9110462885692341	-213.0	1.2495067357459912	-68.0	-100.0	3.8996347842625974	
2015.0	9.858210565595835	-0.11263668782711195	2061.0	0.6516726062475665	1255.0	9.966891477621092	-16256.0	-128.0	0.07847946045370938	0.47087676272225626	768.0	0.0	2225.0	2067.901611328125	747.0	-0.3347826086956522	1.1535353535353536	-186.0	-0.5489021956087825	-486.0	1.1154735307387884	-225.0	1.557813301921624	-90.0	-113.0	4.080100017544324	
2021.0	9.85870620375971	-0.13558657051139428	2063.0	0.5791589071758565	1255.0	9.927651747394236	-16192.0	128.0	-0.07847946045370938	0.4316370324954016	704.0	0.0	2865.0	2087.432861328125	748.0	-0.33260869565217394	1.1515151515151516	-187.0	-0.532934131736527	-494.0	1.1888068707646344	-201.0	1.582302565660225	-91.0	-118.0	3.714347672737221	
2018.0	9.858337713306142	-0.13630187550949763	2063.0	0.6152926475345927	1255.0	9.927651747394236	-16192.0	0.0	0.0	0.4316370324954016	704.0	0.0	3505.0	2106.964111328125	748.0	-0.33260869565217394	1.1474747474747475	-189.0	-0.5269461077844312	-497.0	1.2934066389189682	-217.0	1.055543454056219	-57.0	-125.0	3.95664768266024	
2020.0	9.809576169893301	-0.159220624774301	2065.0	0.5904794590656477	1259.0	9.888412017167381	-16128.0	64.0	-0.03923973022685469	0.39239730226854685	640.0	0.0	4145.0	2126.495361328125	748.0	-0.33260869565217394	1.1434343434343435	-191.0	-0.5628742514970061	-479.0	1.1420166312292093	-247.0	0.807949188051069	-41.0	-115.0	4.414435346995694	
2015.0	9.833586292366595	-0.13652474379912594	2063.0	0.6511874829555541	1257.0	9.966891477621092	-16256.0	-64.0	0.03923973022685469	0.47087676272225626	768.0	0.0	4785.0	2146.026611328125	748.0	-0.33260869565217394	1.1414141414141414	-192.0	-0.5249500998003993	-498.0	0.5745844425439166	-276.0	0.41000977788470844	-13.0	-78.0	4.861174307665816	
2014.0	9.821151325600786	-0.14870720678450072	2064.0	0.6629895014291265	1258.0	9.927651747394236	-16192.0	64.0	-0.03923973022685469	0.510116492949111	832.0	0.0	5425.0	2165.557861328125	751.0	-0.32608695652173914	1.1353535353535353	-195.0	-0.5389221556886228	-491.0	0.5688516175325751	-248.0	0.2625254618084319	-2.0	-78.0	4.435376122607944	
2013.0	9.833340632064218	-0.13700161379786152	2063.0	0.6752766431947116	1257.0	9.966891477621092	-16256.0	64.0	-0.03923973022685469	0.47087676272225626	768.0	0.0	6065.0	2185.089111328125	749.0	-0.33043478260869563	1.1434343434343435	-191.0	-0.564870259481038	-478.0	0.3748960564936359	-216.0	-0.22924518171930067	33.0	-66.0	3.9506236630092086	
2013.0	9.760191840606288	-0.13552430367243645	2063.0	0.6745599283813865	1263.0	9.888412017167381	-16128.0	0.0	0.0	0.39239730226854685	640.0	0.0	6705.0	2204.620361328125	750.0	-0.3282608695652174	1.1494949494949496	-188.0	-0.5289421157684632	-496.0	1.2173022938232467	-198.0	-0.12700104801397694	23.0	-121.0	3.6684353420807794	
2014.0	9.710945452927366	-0.1952522269573411	2068.0	0.6614219925006639	1267.0	9.809932556713672	-16000.0	256.0	-0.15695892090741875	0.4316370324954016	704.0	0.0	7345.0	2224.151611328125	752.0	-0.3239130434782609	1.1353535353535353	-195.0	-0.5489021956087825	-486.0	1.2111123515887305	-234.0	0.2413337287324091	-3.0	-120.0	4.216025758613391	
2015.0	9.808358662279199	-0.22136403147236247	2070.0	0.6500868137779476	1259.0	9.888412017167381	-16128.0	320.0	-0.19619865113427343	0.5493562231759657	896.0	0.0	7985.0	2243.682861328125	749.0	-0.33043478260869563	1.1535353535353536	-186.0	-0.5548902195608784	-483.0	-0.31545713037526635	-288.0	0.23976873490985764	2.0	-20.0	5.05258422909843	
2016.0	9.893459735016414	-0.2594198639733908	2073.0	0.6385090734092252	1252.0	9.966891477621092	-16256.0	256.0	-0.15695892090741875	0.47087676272225626	768.0	0.0	8625.0	2263.214111328125	747.0	-0.3347826086956522	1.1535353535353536	-186.0	-0.5349301397205589	-493.0	-1.0184000415780978	-285.0	0.5903687315491277	-18.0	26.0	5.013986281784603	
2018.0	9.869925821690972	-0.19749932556495767	2068.0	0.6147965541178865	1254.0	10.006131207847945	-16320.0	64.0	-0.03923973022685469	0.39239730226854685	640.0	0.0	9265.0	2282.745361328125	746.0	-0.33695652173913043	1.1373737373737374	-194.0	-0.564870259481038	-478.0	-0.2177701237246611	-233.0	0.10151225406321762	13.0	-27.0	4.215105457891239	
2015.0	9.82091214163708	-0.18503951080586645	2067.0	0.6505755937781915	1258.0	9.927651747394236	-16192.0	128.0	-0.07847946045370938	0.47087676272225626	768.0	0.0	9905.0	2302.276611328125	746.0	-0.33695652173913043	1.1171717171717173	-204.0	-0.5728542914171657	-474.0	-0.20192122013526834	-155.0	-0.19696594435061088	36.0	-29.0	3.028635181783102	
2012.0	9.845529938527648	-0.1252960208112223	2062.0	0.6875637849602966	1256.0	9.966891477621092	-16256.0	-64.0	0.03923973022685469	0.510116492949111	832.0	0.0	10545.0	2321.807861328125	746.0	-0.33695652173913043	1.1575757575757575	-184.0	-0.5489021956087825	-486.0	0.023974235438479645	-146.0	-0.49207055410183387	55.0	-44.0	2.8894940979497976	
2011.0	9.809315398134016	-0.07603481538689952	2058.0	0.6997424443816878	1259.0	9.927651747394236	-16192.0	-64.0	0.03923973022685469	0.510116492949111	832.0	0.0	11185.0	2341.339111328125	749.0	-0.33043478260869563	1.1373737373737374	-194.0	-0.5528942115768464	-484.0	0.06814353327066401	-181.0	0.3231426969986993	-1.0	-46.0	3.421371796606457	
2011.0	9.870272724348958	-0.0772659071580871	2058.0	0.7003397067261253	1254.0	9.927651747394236	-16192.0	64.0	-0.03923973022685469	0.510116492949111	832.0	0.0	11825.0	2360.870361328125	747.0	-0.3347826086956522	1.1272727272727272	-199.0	-0.5708582834331338	-475.0	-0.2163514138878265	-215.0	0.5171616834001795	-14.0	-27.0	3.9413270122377377	
2010.0	9.881979345325863	-0.11432129953242592	2061.0	0.7121344117832354	1253.0	9.927651747394236	-16192.0	64.0	-0.03923973022685469	0.5493562231759657	896.0	0.0	12465.0	2380.401611328125	748.0	-0.33260869565217394	1.1535353535353536	-186.0	-0.530938123752495	-495.0	0.2620051506986731	-237.0	0.4404990285904563	-12.0	-58.0	4.271144207048146	
2011.0	9.869910710234064	-0.11383664617882061	2061.0	0.6999703791947691	1254.0	10.006131207847945	-16320.0	-64.0	0.03923973022685469	0.510116492949111	832.0	0.0	13105.0	2399.932861328125	746.0	-0.33695652173913043	1.1535353535353536	-186.0	-0.5409181636726548	-490.0	0.971444511400257	-226.0	0.9525367029754112	-49.0	-104.0	4.0967494332129935	
2012.0	9.869430183527097	-0.17454944288067537	2066.0	0.6873102531895966	1254.0	9.966891477621092	-16256.0	64.0	-0.03923973022685469	0.47087676272225626	768.0	0.0	13745.0	2419.464111328125	748.0	-0.33260869565217394	1.1494949494949496	-188.0	-0.5628742514970061	-479.0	1.0102950439559317	-180.0	0.9328399855396832	-46.0	-107.0	3.3967411560243193	
2007.0	9.808220720671104	-0.13793978708559318	2063.0	0.747305218974409	1259.0	9.888412017167381	-16128.0	192.0	-0.11771919068056406	0.47087676272225626	768.0	0.0	14385.0	2438.995361328125	748.0	-0.33260869565217394	1.1373737373737374	-194.0	-0.5828343313373254	-469.0	0.9008947235625205	-204.0	0.37113084870213114	-9.0	-100.0	3.7628541706350975	
2010.0	9.832610127495753	-0.1742876578166984	2066.0	0.7110410560220917	1257.0	9.927651747394236	-16192.0	0.0	0.0	0.510116492949111	832.0	0.0	15025.0	2458.526611328125	756.0	-0.31521739130434784	1.1393939393939394	-193.0	-0.5389221556886228	-491.0	1.2440842964453966	-221.0	0.6667377315650596	-31.0	-122.0	4.017977407986116	
2015.0	9.844812386636534	-0.2342929328753195	2071.0	0.6503220620074914	1256.0	9.966891477621092	-16256.0	192.0	-0.11771919068056406	0.47087676272225626	768.0	0.0	15665.0	2478.057861328125	754.0	-0.31956521739130433	1.1434343434343435	-191.0	-0.5548902195608784	-483.0	0.5330116675580914	-190.0	0.6301401758880882	-24.0	-76.0	3.5536052445411492	
2009.0	9.844316748472659	-0.21134305019103722	2069.0	0.7228357610792016	1256.0	9.927651747394236	-16192.0	64.0	-0.03923973022685469	0.4316370324954016	704.0	0.0	16305.0	2497.589111328125	746.0	-0.33695652173913043	1.1535353535353536	-186.0	-0.5489021956087825	-486.0	0.6028642455122109	-175.0	0.16963629555574855	7.0	-81.0	3.324769836632331	
2009.0	9.856628885087279	-0.19939902220503022	2068.0	0.7230783227252078	1255.0	9.966891477621092	-16256.0	320.0	-0.19619865113427343	0.5493562231759657	896.0	0.0	16945.0	2517.120361328125	752.0	-0.3239130434782609	1.1434343434343435	-191.0	-0.5369261477045909	-492.0	1.1696854680778537	-149.0	0.46084560767012095	-14.0	-118.0	2.9236643620492595	
2013.0	9.89345325867774	-0.22356442995076065	2070.0	0.6750121412993177	1252.0	10.006131207847945	-16320.0	64.0	-0.03923973022685469	0.4316370324954016	704.0	0.0	17585.0	2536.651611328125	752.0	-0.3239130434782609	1.1414141414141414	-192.0	-0.5768463073852296	-472.0	0.7870607349980769	-136.0	0.7652501018058887	-32.0	-93.0	2.72977197820135	
2011.0	9.856753874018027	-0.21111239854653915	2069.0	0.6988660533089315	1255.0	9.966891477621092	-16256.0	192.0	-0.11771919068056406	0.510116492949111	832.0	0.0	18225.0	2556.182861328125	749.0	-0.33043478260869563	1.1494949494949496	-188.0	-0.532934131736527	-494.0	1.069194018337534	-93.0	0.4719232461404342	-12.0	-112.0	2.0729582499306933	
2009.0	9.845161448074078	-0.12601132580932567	2062.0	0.7236975253190329	1256.0	9.927651747394236	-16192.0	128.0	-0.07847946045370938	0.510116492949111	832.0	0.0	18865.0	2575.714111328125	749.0	-0.33043478260869563	1.1474747474747475	-189.0	-0.5508982035928145	-485.0	1.6074227640833803	-9.0	0.32064764580409616	-1.0	-148.0	0.7900094225492803	
2014.0	9.858087735444645	-0.11287512282647974	2061.0	0.6637171863671453	1255.0	9.927651747394236	-16192.0	-128.0	0.07847946045370938	0.47087676272225626	768.0	0.0	19505.0	2595.245361328125	751.0	-0.32608695652173914	1.1515151515151516	-187.0	-0.5548902195608784	-483.0	1.3655323846580092	-33.0	0.32288245575582825	-1.0	-132.0	1.157447337750378	
2012.0	9.833579816027921	-0.10066930977649574	2060.0	0.6876905508456467	1257.0	9.966891477621092	-16256.0	-128.0	0.07847946045370938	0.5493562231759657	896.0	0.0	20145.0	2614.776611328125	750.0	-0.3282608695652174	1.1616161616161615	-182.0	-0.5489021956087825	-486.0	1.355483782425183	-98.0	-0.13575199271203472	27.0	-131.0	2.1461409796662427	
2013.0	9.833219960692587	-0.149191860138106	2064.0	0.6751535340175928	1257.0	9.966891477621092	-16256.0	64.0	-0.03923973022685469	0.5493562231759657	896.0	0.0	20785.0	2634.307861328125	752.0	-0.3239130434782609	1.1292929292929292	-198.0	-0.5469061876247505	-487.0	1.127440159639857	-120.0	-0.25320421696943446	35.0	-116.0	2.48302217635037	
2012.0	9.869792197641992	-0.13797870385994182	2063.0	0.6876795807209528	1254.0	10.006131207847945	-16320.0	0.0	0.0	0.510116492949111	832.0	0.0	21425.0	2653.839111328125	755.0	-0.3173913043478261	1.1414141414141414	-192.0	-0.5748502994011977	-473.0	0.8156216397063335	-78.0	-0.10100279094670059	28.0	-96.0	1.8473570915877275	
2014.0	9.918683047544693	-0.15067695361840083	2064.0	0.6639451211802265	1250.0	10.006131207847945	-16320.0	64.0	-0.03923973022685469	0.5493562231759657	896.0	0.0	22065.0	2673.370361328125	751.0	-0.32608695652173914	1.1636363636363636	-181.0	-0.5568862275449102	-482.0	1.4672104089962474	-30.0	-0.20710687086548668	34.0	-139.0	1.1108031810811403	
2009.0	9.845040776702447	-0.13820157214957018	2063.0	0.7235744161419141	1256.0	9.927651747394236	-16192.0	-64.0	0.03923973022685469	0.5885959534028203	960.0	0.0	22705.0	2692.901611328125	755.0	-0.3173913043478261	1.1494949494949496	-188.0	-0.530938123752495	-495.0	1.9067750269966217	-21.0	-0.6220303805584844	60.0	-168.0	0.96952540562357	
2010.0	9.83309281298228	-0.12552667245572036	2062.0	0.7115334927305667	1257.0	9.966891477621092	-16256.0	64.0	-0.03923973022685469	0.47087676272225626	768.0	0.0	23345.0	2712.432861328125	755.0	-0.3173913043478261	1.1414141414141414	-192.0	-0.5628742514970061	-479.0	0.9969414375600277	-23.0	-1.084660323956128	95.0	-109.0	1.0090419924685063	
2012.0	9.87075756861504	-0.040456733137985784	2055.0	0.6886644541379029	1254.0	9.927651747394236	-16192.0	-64.0	0.03923973022685469	0.510116492949111	832.0	0.0	23985.0	2731.964111328125	751.0	-0.32608695652173914	1.1535353535353536	-186.0	-0.5369261477045909	-492.0	1.4434764700795308	-32.0	-1.0762369361462103	92.0	-138.0	1.1414587714208777	
2012.0	9.737013465057066	-0.0011775922206395673	2052.0	0.6877198045114965	1265.0	9.809932556713672	-16000.0	-128.0	0.07847946045370938	0.47087676272225626	768.0	0.0	24625.0	2751.495361328125	756.0	-0.31521739130434784	1.1515151515151516	-187.0	-0.5449101796407186	-488.0	1.9791938750015547	-1.0	-0.7498359657325331	69.0	-173.0	0.6646187076378172	
2012.0	9.712992548685982	0.03588558350856899	2049.0	0.6878502271050778	1267.0	9.849172286940528	-16064.0	-256.0	0.15695892090741875	0.47087676272225626	768.0	0.0	25265.0	2771.026611328125	755.0	-0.3173913043478261	1.1454545454545455	-190.0	-0.56686626746507	-477.0	1.1001566629901947	-10.0	-1.3088229146208084	110.0	-116.0	0.8102912090354975	
2011.0	9.675812637319304	-0.012375181789064299	2053.0	0.6990440131095191	1270.0	9.809932556713672	-16000.0	-256.0	0.15695892090741875	0.5885959534028203	960.0	0.0	25905.0	2790.557861328125	751.0	-0.32608695652173914	1.1515151515151516	-187.0	-0.5628742514970061	-479.0	0.8814814091385607	-88.0	-1.3410555884356243	110.0	-101.0	1.9987897486462574	
2007.0	9.663009180099927	-0.025272949772542436	2054.0	0.7469797719418279	1271.0	9.692213366033108	-15808.0	-64.0	0.03923973022685469	0.510116492949111	832.0	0.0	26545.0	2810.089111328125	753.0	-0.32173913043478264	1.1474747474747475	-189.0	-0.532934131736527	-494.0	0.5650543960795057	-161.0	-0.3289601560938573	41.0	-79.0	3.1122201784726653	
2007.0	9.760299559300568	-0.051623189286931576	2056.0	0.7476891733386903	1263.0	9.809932556713672	-16000.0	64.0	-0.03923973022685469	0.5493562231759657	896.0	0.0	27185.0	2829.620361328125	755.0	-0.3173913043478261	1.1434343434343435	-191.0	-0.5588822355289422	-481.0	0.23910529397756564	-179.0	0.5673330522096626	-18.0	-57.0	3.389243928048818	
2011.0	9.796520576032874	-0.13673982873388452	2063.0	0.6990074460272065	1260.0	9.927651747394236	-16192.0	64.0	-0.03923973022685469	0.47087676272225626	768.0	0.0	27825.0	2849.151611328125	752.0	-0.3239130434782609	1.1494949494949496	-188.0	-0.532934131736527	-494.0	0.8658233741340009	-141.0	0.8916589307601046	-41.0	-98.0	2.805029979186417	
2009.0	9.820899188959732	-0.11332864276060614	2061.0	0.7235817295583766	1258.0	9.927651747394236	-16192.0	0.0	0.0	0.5493562231759657	896.0	0.0	28465.0	2868.682861328125	757.0	-0.3130434782608696	1.1494949494949496	-188.0	-0.5249500998003993	-498.0	1.55587210214749	-94.0	1.5468873638495693	-86.0	-143.0	2.0833005945678784	
2011.0	9.833094971761838	-0.13747848379659705	2063.0	0.6993658034338691	1257.0	9.888412017167381	-16128.0	128.0	-0.07847946045370938	0.5493562231759657	896.0	0.0	29105.0	2888.214111328125	755.0	-0.3173913043478261	1.1414141414141414	-192.0	-0.5289421157684632	-496.0	1.288929784472311	-74.0	1.247798767081219	-64.0	-126.0	1.7817875082389272	
2013.0	9.893935944164264	-0.17480344458978261	2066.0	0.6755045780077928	1252.0	9.927651747394236	-16192.0	64.0	-0.03923973022685469	0.47087676272225626	768.0	0.0	29745.0	2907.745361328125	754.0	-0.31956521739130433	1.1616161616161615	-182.0	-0.5409181636726548	-490.0	0.7988600349302875	-83.0	1.2164623214857375	-60.0	-94.0	1.923570335011914	
2010.0	9.906482947183472	-0.10262348990065642	2060.0	0.7124964258981292	1251.0	9.966891477621092	-16256.0	0.0	0.0	0.510116492949111	832.0	0.0	30385.0	2927.276611328125	756.0	-0.31521739130434784	1.1616161616161615	-182.0	-0.5389221556886228	-491.0	1.161605574774536	-70.0	0.8542963909528296	-37.0	-118.0	1.7222242484347643	
2009.0	9.881977186546305	-0.1023694881915492	2060.0	0.724302101079933	1253.0	9.966891477621092	-16256.0	-64.0	0.03923973022685469	0.5493562231759657	896.0	0.0	31025.0	2946.807861328125	757.0	-0.3130434782608696	1.1474747474747475	-189.0	-0.5588822355289422	-481.0	0.9174082031825588	-9.0	0.38366516299091924	-2.0	-103.0	0.7969095681582885	
2009.0	9.870630420904735	-0.016791545455600132	2053.0	0.7250444128508767	1254.0	9.888412017167381	-16128.0	-192.0	0.11771919068056406	0.510116492949111	832.0	0.0	31665.0	2966.339111328125	751.0	-0.32608695652173914	1.1636363636363636	-181.0	-0.5608782435129741	-480.0	1.1257235002658585	1.0	-0.1195025551841202	31.0	-117.0	0.6427351604346039	
2009.0	9.797602300818438	-0.0031239889899305207	2052.0	0.7244508072146704	1260.0	9.888412017167381	-16128.0	-128.0	0.07847946045370938	0.5493562231759657	896.0	0.0	32305.0	2985.870361328125	754.0	-0.31956521739130433	1.1555555555555554	-185.0	-0.5808383233532934	-470.0	1.477666432858374	-14.0	-0.4529733335402491	51.0	-140.0	0.8673526132379563	
2009.0	9.78553150694708	0.009312475704551515	2051.0	0.7244544639229016	1261.0	9.927651747394236	-16192.0	-320.0	0.19619865113427343	0.5493562231759657	896.0	0.0	32945.0	3005.401611328125	755.0	-0.3173913043478261	1.1535353535353536	-186.0	-0.5728542914171657	-474.0	0.7607475925504681	-46.0	-0.49750598160381354	56.0	-93.0	1.3612138168501609	
2008.0	9.821621058409962	-0.028235353378262357	2054.0	0.7364880739177867	1258.0	9.888412017167381	-16128.0	-192.0	0.11771919068056406	0.47087676272225626	768.0	0.0	33585.0	3024.932861328125	753.0	-0.32173913043478264	1.1535353535353536	-186.0	-0.5229540918163673	-499.0	0.46208279126505836	-88.0	-0.30736769350719095	43.0	-73.0	2.0029837348249924	
2006.0	9.80870124737807	-0.07722699038373845	2058.0	0.7599653449795816	1259.0	9.809932556713672	-16000.0	0.0	0.0	0.5493562231759657	896.0	0.0	34225.0	3044.464111328125	756.0	-0.31521739130434784	1.1414141414141414	-192.0	-0.5788423153692616	-471.0	1.0306155683588645	-84.0	-0.17958657348748894	32.0	-110.0	1.9364619051529135	
2006.0	9.845516985850297	-0.05358515276596196	2056.0	0.7605699207404817	1256.0	9.927651747394236	-16192.0	-64.0	0.03923973022685469	0.5885959534028203	960.0	0.0	34865.0	3063.995361328125	758.0	-0.3108695652173913	1.1494949494949496	-188.0	-0.5209580838323354	-500.0	0.9496723857329546	-62.0	-0.2655164237953562	39.0	-105.0	1.6026705765228986	
2009.0	9.83309065420272	-0.11357486111484363	2061.0	0.7237011820272642	1257.0	9.927651747394236	-16192.0	0.0	0.0	0.5493562231759657	896.0	0.0	35505.0	3083.526611328125	752.0	-0.3239130434782609	1.1656565656565656	-180.0	-0.5469061876247505	-487.0	1.49576255211611	2.0	0.0652461442998768	17.0	-141.0	0.6238256444408161	
2005.0	9.772245364241178	-0.052346277639904654	2056.0	0.7718977860467354	1262.0	9.849172286940528	-16064.0	-256.0	0.15695892090741875	0.5493562231759657	896.0	0.0	36145.0	3103.057861328125	758.0	-0.3108695652173913	1.1595959595959595	-183.0	-0.532934131736527	-494.0	1.896164221283871	0.0	0.17109399182091126	8.0	-167.0	0.6502398786997088	
2007.0	9.759937545185675	-0.0881939283076651	2059.0	0.7473198458073341	1263.0	9.770692826486817	-15936.0	128.0	-0.07847946045370938	0.627835683629675	1024.0	0.0	36785.0	3122.589111328125	755.0	-0.3173913043478261	1.1494949494949496	-188.0	-0.5708582834331338	-475.0	1.8043782264935755	22.0	0.5356939136834633	-15.0	-161.0	0.31655697819133805	
2008.0	9.772855197438009	-0.027250479961312274	2054.0	0.7360102640422367	1262.0	9.809932556713672	-16000.0	-192.0	0.11771919068056406	0.5493562231759657	896.0	0.0	37425.0	3142.120361328125	752.0	-0.3239130434782609	1.1595959595959595	-183.0	-0.5588822355289422	-481.0	1.354310484038327	47.0	0.41731021280424846	-4.0	-132.0	-0.05917048126623879	
2011.0	9.711542333446848	-0.09844556123348838	2060.0	0.6985406062763503	1267.0	9.770692826486817	-15936.0	64.0	-0.03923973022685469	0.4316370324954016	704.0	0.0	38065.0	3161.651611328125	758.0	-0.3108695652173913	1.1555555555555554	-185.0	-0.5389221556886228	-491.0	1.2987071082950001	22.0	0.615866134754462	-18.0	-128.0	0.32161368937332374	
2011.0	9.77334435926321	-0.014344928622964409	2053.0	0.6999996328606192	1262.0	9.849172286940528	-16064.0	-256.0	0.15695892090741875	0.510116492949111	832.0	0.0	38705.0	3181.182861328125	755.0	-0.3173913043478261	1.1454545454545455	-190.0	-0.56686626746507	-477.0	0.844606481192489	-12.0	0.7317346539912905	-25.0	-98.0	0.8432649618040448	
2014.0	9.785783643588134	-0.026066088319343095	2054.0	0.6638622357936516	1261.0	9.888412017167381	-16128.0	-192.0	0.11771919068056406	0.4316370324954016	704.0	0.0	39345.0	3200.714111328125	753.0	-0.32173913043478264	1.1595959595959595	-183.0	-0.5249500998003993	-498.0	0.7815743831781458	17.0	1.0086368372825603	-42.0	-94.0	0.4028306440009182	
2015.0	9.786389159225848	0.02293333204100273	2050.0	0.6523100923825478	1261.0	9.888412017167381	-16128.0	-256.0	0.15695892090741875	0.47087676272225626	768.0	0.0	39985.0	3220.245361328125	757.0	-0.3130434782608696	1.1434343434343435	-191.0	-0.532934131736527	-494.0	0.6744005163387542	26.0	1.1714964610669443	-52.0	-87.0	0.26702025339174557	
2016.0	9.7867533321203	0.047552259720859524	2048.0	0.6405117306172066	1261.0	9.809932556713672	-16000.0	-320.0	0.19619865113427343	0.4316370324954016	704.0	0.0	40625.0	3239.776611328125	757.0	-0.3130434782608696	1.1474747474747475	-189.0	-0.5508982035928145	-485.0	0.194263001257325	14.0	0.5529359907190594	-9.0	-56.0	0.4543311342459819	
2019.0	9.787363165317132	0.0726480573994519	2046.0	0.6046242086127078	1261.0	9.888412017167381	-16128.0	-256.0	0.15695892090741875	0.39239730226854685	640.0	0.0	41265.0	3259.307861328125	754.0	-0.31956521739130433	1.1555555555555554	-185.0	-0.5389221556886228	-491.0	0.31872915795438933	7.0	0.6149771098204936	-14.0	-64.0	0.5595503510060076	
2016.0	9.83612254995041	0.10751861800513204	2043.0	0.6416050863783505	1257.0	9.888412017167381	-16128.0	-384.0	0.23543838136112813	0.47087676272225626	768.0	0.0	41905.0	3278.839111328125	754.0	-0.31956521739130433	1.1616161616161615	-182.0	-0.530938123752495	-495.0	-0.641089559152162	-39.0	0.6238106941603331	-12.0	-1.0	1.268768310040191	
2013.0	9.848066196111462	0.11874734099303566	2042.0	0.677981388383093	1256.0	10.006131207847945	-16320.0	-384.0	0.23543838136112813	0.4316370324954016	704.0	0.0	42545.0	3298.370361328125	755.0	-0.3173913043478261	1.1494949494949496	-188.0	-0.564870259481038	-478.0	-0.7144581280321071	-72.0	0.45891606344574143	-2.0	4.0	1.771403136413401	
2015.0	9.95863840045889	0.17795947750485613	2037.0	0.6555828462495168	1247.0	10.0453709380748	-16384.0	-448.0	0.27467811158798283	0.47087676272225626	768.0	0.0	43185.0	3317.901611328125	754.0	-0.31956521739130433	1.1616161616161615	-182.0	-0.5548902195608784	-483.0	0.22948713784088787	-72.0	1.2327976828360332	-58.0	-57.0	1.7619636837546713	
2013.0	10.044939710573741	0.29766154242890297	2027.0	0.6817392655420744	1240.0	10.163090128755364	-16576.0	-768.0	0.47087676272225626	0.47087676272225626	768.0	0.0	43825.0	3337.432861328125	758.0	-0.3108695652173913	1.1575757575757575	-184.0	-0.5269461077844312	-497.0	0.599554651652425	-102.0	0.9489099733343931	-42.0	-81.0	2.214536772875111	
2014.0	10.105537181453347	0.24790790029610518	2031.0	0.6697995110584581	1235.0	10.20232985898222	-16640.0	-576.0	0.3531575720416922	0.510116492949111	832.0	0.0	44465.0	3356.964111328125	758.0	-0.3108695652173913	1.1414141414141414	-192.0	-0.5528942115768464	-484.0	0.36351652144763896	-138.0	-0.18100069459720952	33.0	-66.0	2.764425671287425	
2010.0	10.019705604147672	0.24867768877829666	2031.0	0.7171416642545606	1242.0	10.123850398528509	-16512.0	-576.0	0.3531575720416922	0.4316370324954016	704.0	0.0	45105.0	3376.495361328125	753.0	-0.32173913043478264	1.1535353535353536	-186.0	-0.5289421157684632	-496.0	1.1502581483500034	-352.0	-3.034613693064472	211.0	-117.0	6.011311106729428	
2006.0	9.798561195452814	0.13025341575465568	2041.0	0.7619387485217131	1260.0	9.888412017167381	-16128.0	-64.0	0.03923973022685469	0.627835683629675	1024.0	0.0	45745.0	3396.026611328125	756.0	-0.31521739130434784	1.1434343434343435	-191.0	-0.5728542914171657	-474.0	1.433717388444078	-415.0	-3.272579497350249	223.0	-135.0	6.966651419271453	
2007.0	9.846243172859644	0.007604513934628382	2051.0	0.7491408865064967	1256.0	9.888412017167381	-16128.0	-128.0	0.07847946045370938	0.5493562231759657	896.0	0.0	46385.0	3415.557861328125	758.0	-0.3108695652173913	1.1515151515151516	-187.0	-0.56686626746507	-477.0	0.6407990854358793	-487.0	-2.316666928697766	160.0	-82.0	8.069637636522067	
2006.0	9.772006180277474	-0.08867858166127039	2059.0	0.7594838783958004	1262.0	9.849172286940528	-16064.0	-64.0	0.03923973022685469	0.5493562231759657	896.0	0.0	47025.0	3435.089111328125	755.0	-0.3173913043478261	1.1434343434343435	-191.0	-0.6007984031936129	-460.0	1.0006258628270048	-478.0	-1.4966553773380333	104.0	-105.0	7.929157239470589	
2004.0	9.820405709575416	-0.10233057141720053	2060.0	0.7839277393333892	1258.0	9.888412017167381	-16128.0	-64.0	0.03923973022685469	0.627835683629675	1024.0	0.0	47665.0	3454.620361328125	757.0	-0.3130434782608696	1.1616161616161615	-182.0	-0.5289421157684632	-496.0	1.0739855413312744	-409.0	-0.7851213559844762	59.0	-110.0	6.8789939848908705	
2005.0	9.843946099239533	-0.20010654384826385	2068.0	0.7711371907346354	1256.0	9.927651747394236	-16192.0	192.0	-0.11771919068056406	0.510116492949111	832.0	0.0	48305.0	3474.151611328125	759.0	-0.30869565217391304	1.1474747474747475	-189.0	-0.5548902195608784	-483.0	1.109595146901101	-349.0	-0.916015424620837	70.0	-113.0	5.966090360318062	
2003.0	9.746168716993248	-0.1986136670130993	2068.0	0.7942707312226929	1264.0	9.809932556713672	-16000.0	256.0	-0.15695892090741875	0.5493562231759657	896.0	0.0	48945.0	3493.682861328125	752.0	-0.3239130434782609	1.1616161616161615	-182.0	-0.5489021956087825	-486.0	1.6113428525445506	-318.0	-0.9170852455961416	69.0	-146.0	5.489589993527787	
2001.0	9.745923056690868	-0.19909053701183488	2068.0	0.8183598914618504	1264.0	9.809932556713672	-16000.0	64.0	-0.03923973022685469	0.6670754138565297	1088.0	0.0	49585.0	3513.214111328125	757.0	-0.3130434782608696	1.1474747474747475	-189.0	-0.5548902195608784	-483.0	1.8537168164588018	-247.0	-0.15612787347659265	20.0	-162.0	4.4073183451433975	
2006.0	9.74677855019008	-0.17351786933450694	2066.0	0.7583832092181941	1264.0	9.770692826486817	-15936.0	64.0	-0.03923973022685469	0.5493562231759657	896.0	0.0	50225.0	3532.745361328125	760.0	-0.3065217391304348	1.1535353535353536	-186.0	-0.530938123752495	-495.0	1.3998872101918645	-188.0	-0.13362530800311861	23.0	-133.0	3.5145182381642415	
2006.0	9.686062566718402	-0.14790628488283034	2064.0	0.758032165227994	1269.0	9.770692826486817	-15936.0	0.0	0.0	0.5493562231759657	896.0	0.0	50865.0	3552.276611328125	757.0	-0.3130434782608696	1.1696969696969697	-178.0	-0.5369261477045909	-492.0	1.2874064498146116	-157.0	-0.16690734648401193	27.0	-126.0	3.0441601560341733	
2002.0	9.685691917485274	-0.13666977854005696	2063.0	0.8063335948834278	1269.0	9.770692826486817	-15936.0	-64.0	0.03923973022685469	0.627835683629675	1024.0	0.0	51505.0	3571.807861328125	761.0	-0.30434782608695654	1.1575757575757575	-184.0	-0.5189620758483035	-501.0	1.024402140221616	-126.0	0.0951446252749032	12.0	-109.0	2.5753073093962633	
2003.0	9.67410596788	-0.08742413982547363	2059.0	0.7946619990034367	1270.0	9.809932556713672	-16000.0	0.0	0.0	0.5885959534028203	960.0	0.0	52145.0	3591.339111328125	760.0	-0.3065217391304348	1.1636363636363636	-181.0	-0.5588822355289422	-481.0	0.5077423183837061	-125.0	0.626465137581989	-21.0	-75.0	2.565264782139357	
2006.0	9.723481662048783	-0.06331321556383132	2057.0	0.7592522868744879	1266.0	9.809932556713672	-16000.0	-128.0	0.07847946045370938	0.627835683629675	1024.0	0.0	52785.0	3610.870361328125	761.0	-0.30434782608695654	1.1595959595959595	-183.0	-0.5469061876247505	-487.0	0.16912129128827283	-89.0	1.076731902951642	-48.0	-53.0	2.0211224753000447	
2005.0	9.797231651585312	0.008112517352842852	2051.0	0.7727522368701042	1260.0	9.888412017167381	-16128.0	-256.0	0.15695892090741875	0.5493562231759657	896.0	0.0	53425.0	3630.401611328125	760.0	-0.3065217391304348	1.1575757575757575	-184.0	-0.5269461077844312	-497.0	0.39615933101744644	-56.0	1.2609161459913794	-60.0	-68.0	1.5169509542183428	
2005.0	9.73627432537037	0.009343609124030428	2051.0	0.7721549745256666	1265.0	9.849172286940528	-16064.0	-128.0	0.07847946045370938	0.5885959534028203	960.0	0.0	54065.0	3649.932861328125	762.0	-0.30217391304347824	1.1454545454545455	-190.0	-0.5508982035928145	-485.0	1.1084097729142763	-54.0	1.9172079214353017	-107.0	-114.0	1.479410198848804	
2006.0	9.736759169636453	0.04615278314413171	2048.0	0.7604797219374442	1265.0	9.849172286940528	-16064.0	-192.0	0.11771919068056406	0.627835683629675	1024.0	0.0	54705.0	3669.464111328125	758.0	-0.3108695652173913	1.1575757575757575	-184.0	-0.5528942115768464	-484.0	0.41688149682425873	-58.0	1.7680022806494842	-94.0	-69.0	1.547161983510845	
2002.0	9.772118216530872	-0.028681089957519	2054.0	0.8082777447597093	1262.0	9.849172286940528	-16064.0	-128.0	0.07847946045370938	0.627835683629675	1024.0	0.0	55345.0	3688.995361328125	762.0	-0.30217391304347824	1.1575757575757575	-184.0	-0.5269461077844312	-497.0	-0.17206302449500152	-81.0	2.379708070072954	-133.0	-30.0	1.9028613146555966	
2003.0	9.79662397716804	-0.02893509166662625	2054.0	0.7964720695779055	1260.0	9.809932556713672	-16000.0	-192.0	0.11771919068056406	0.627835683629675	1024.0	0.0	55985.0	3708.526611328125	762.0	-0.30217391304347824	1.1515151515151516	-187.0	-0.530938123752495	-495.0	0.09729967175604205	-95.0	3.0121134810652626	-177.0	-47.0	2.1130954443470786	
2000.0	9.735056817756266	-0.05279979757403103	2056.0	0.8317623292379667	1265.0	9.849172286940528	-16064.0	-64.0	0.03923973022685469	0.627835683629675	1024.0	0.0	56625.0	3728.057861328125	757.0	-0.3130434782608696	1.1414141414141414	-192.0	-0.5848303393213574	-468.0	1.236654308571628	-38.0	4.241854023017253	-262.0	-121.0	1.2347817458876678	
2000.0	9.735056817756266	-0.05279979757403103	2056.0	0.8317623292379667	1265.0	9.770692826486817	-15936.0	-64.0	0.03923973022685469	0.6670754138565297	1088.0	0.0	57265.0	3747.589111328125	761.0	-0.30434782608695654	1.1414141414141414	-192.0	-0.5788423153692616	-471.0	2.0325354181886843	40.0	5.2084259128989805	-327.0	-173.0	0.04051114771925385	
2002.0	9.772238887902503	-0.016490843617274487	2053.0	0.808400853936828	1262.0	9.849172286940528	-16064.0	-320.0	0.19619865113427343	0.627835683629675	1024.0	0.0	57905.0	3767.120361328125	756.0	-0.31521739130434784	1.1535353535353536	-186.0	-0.5688622754491018	-476.0	2.294603540692294	76.0	5.871757277174682	-371.0	-190.0	-0.5096380506160485	
2004.0	9.784917356191134	0.008120300707712608	2051.0	0.7846773645207954	1261.0	9.888412017167381	-16128.0	-256.0	0.15695892090741875	0.5885959534028203	960.0	0.0	58545.0	3786.651611328125	759.0	-0.30869565217391304	1.1616161616161615	-182.0	-0.5588822355289422	-481.0	1.600390503296369	75.0	5.499676034610901	-343.0	-145.0	-0.487486794766804	
2009.0	9.980836293578154	0.02975347471724027	2049.0	0.7266119217793393	1245.0	10.084610668301655	-16448.0	-320.0	0.19619865113427343	0.5493562231759657	896.0	0.0	59185.0	3806.182861328125	764.0	-0.29782608695652174	1.1616161616161615	-182.0	-0.532934131736527	-494.0	0.9111504519542146	67.0	3.983559832227126	-239.0	-101.0	-0.3589213904511011	
2009.0	9.920361652849738	0.07974555184940588	2045.0	0.7265070961433767	1250.0	10.0453709380748	-16384.0	-384.0	0.23543838136112813	0.510116492949111	832.0	0.0	59825.0	3825.714111328125	758.0	-0.3108695652173913	1.1434343434343435	-191.0	-0.5548902195608784	-483.0	0.6883833411239232	39.0	2.7676373990103937	-158.0	-87.0	0.06916179396518662	
2012.0	9.896588555560594	0.10533378623647333	2043.0	0.690380669201103	1252.0	9.888412017167381	-16128.0	-256.0	0.15695892090741875	0.510116492949111	832.0	0.0	60465.0	3845.245361328125	759.0	-0.30869565217391304	1.1555555555555554	-185.0	-0.5369261477045909	-492.0	-0.5408206251822549	25.0	0.8806548937946466	-27.0	-8.0	0.2943815902822408	
2009.0	9.89585805099213	0.0680477422176364	2046.0	0.726145082028483	1252.0	10.006131207847945	-16320.0	-320.0	0.19619865113427343	0.510116492949111	832.0	0.0	61105.0	3864.776611328125	758.0	-0.3108695652173913	1.1414141414141414	-192.0	-0.5808383233532934	-470.0	-1.9329633828145887	-8.0	-0.7066959319434983	84.0	82.0	0.8102041585429749	
2008.0	9.82246575801138	0.05709637100344919	2047.0	0.737349838157618	1258.0	9.927651747394236	-16192.0	-128.0	0.07847946045370938	0.5885959534028203	960.0	0.0	61745.0	3884.307861328125	759.0	-0.30869565217391304	1.1474747474747475	-189.0	-0.532934131736527	-494.0	-2.2274679178219663	-35.0	-1.4072719479822118	131.0	101.0	1.2237955917257481	
2006.0	9.84672369956661	0.06831731063648311	2046.0	0.7618010125116693	1256.0	10.006131207847945	-16320.0	-192.0	0.11771919068056406	0.5493562231759657	896.0	0.0	62385.0	3903.839111328125	753.0	-0.32173913043478264	1.1393939393939394	-193.0	-0.5568862275449102	-482.0	-2.75268624139352	-39.0	-1.8079328214333295	160.0	135.0	1.2898842768626044	
2009.0	9.798447000419856	0.08220773539178103	2045.0	0.7253125714545017	1260.0	9.849172286940528	-16064.0	-384.0	0.23543838136112813	0.5885959534028203	960.0	0.0	63025.0	3923.370361328125	758.0	-0.3108695652173913	1.1616161616161615	-182.0	-0.5249500998003993	-498.0	-1.8888166379309872	-25.0	-1.1548933594062432	113.0	79.0	1.0683178241739868	
2007.0	9.823428970204873	0.16657015306628198	2038.0	0.7505024008712655	1258.0	9.849172286940528	-16064.0	-448.0	0.27467811158798283	0.5885959534028203	960.0	0.0	63665.0	3942.901611328125	757.0	-0.3130434782608696	1.1434343434343435	-191.0	-0.5588822355289422	-481.0	-1.5624240274655379	6.0	-0.27419324836585446	54.0	58.0	0.5935710083354919	
2010.0	9.981441809215868	0.0787528950775861	2045.0	0.7150597783682355	1245.0	10.0453709380748	-16384.0	-320.0	0.19619865113427343	0.5493562231759657	896.0	0.0	64305.0	3962.432861328125	753.0	-0.32173913043478264	1.1656565656565656	-180.0	-0.5548902195608784	-483.0	-2.188766333178252	64.0	0.8991381208276052	-19.0	99.0	-0.2822948461739209	
2014.0	9.934253311193354	0.19040372555420787	2036.0	0.6675116306084393	1249.0	10.006131207847945	-16320.0	-320.0	0.19619865113427343	0.510116492949111	832.0	0.0	64945.0	3981.964111328125	761.0	-0.30434782608695654	1.1595959595959595	-183.0	-0.5289421157684632	-496.0	-0.5083461312486974	64.0	1.6517460921646128	-77.0	-10.0	-0.2990990481932165	
2020.0	9.873670951770656	0.15649468830086863	2039.0	0.5942775600151731	1254.0	9.927651747394236	-16192.0	-384.0	0.23543838136112813	0.4316370324954016	704.0	0.0	49.0	4001.495361328125	753.0	-0.32173913043478264	1.1575757575757575	-184.0	-0.5628742514970061	-479.0	2.064052437687025	35.0	2.1447197386291483	-123.0	-177.0	0.1162416049006963	
2016.0	9.897562561651876	0.15504851159492247	2039.0	0.642694785431263	1252.0	9.927651747394236	-16192.0	-448.0	0.27467811158798283	0.4316370324954016	704.0	0.0	689.0	4021.026611328125	758.0	-0.3108695652173913	1.1656565656565656	-180.0	-0.5409181636726548	-490.0	0.4969207398519089	19.0	1.7343131370580083	-89.0	-75.0	0.3752589294836102	
2015.0	9.922305347473188	0.2030786252480577	2035.0	0.6554707071970918	1250.0	10.0453709380748	-16384.0	-640.0	0.39239730226854685	0.4316370324954016	704.0	0.0	1329.0	4040.557861328125	760.0	-0.3065217391304348	1.1636363636363636	-181.0	-0.5349301397205589	-493.0	0.20255426768523588	-11.0	1.0019174092922956	-40.0	-56.0	0.8344763584638321	
2018.0	9.788205706138992	0.16993159312204018	2038.0	0.6176536621492366	1261.0	9.927651747394236	-16192.0	-448.0	0.27467811158798283	0.4316370324954016	704.0	0.0	1969.0	4060.089111328125	757.0	-0.3130434782608696	1.1454545454545455	-190.0	-0.5449101796407186	-488.0	1.4349111263790344	-48.0	0.8936358662237852	-40.0	-136.0	1.3848904324624454	
2016.0	9.884888410922363	0.10653374458818196	2043.0	0.6420828962539005	1253.0	9.966891477621092	-16256.0	-384.0	0.23543838136112813	0.3531575720416922	576.0	0.0	2609.0	4079.620361328125	755.0	-0.3173913043478261	1.1353535353535353	-195.0	-0.6067864271457086	-457.0	0.5546481965985348	-126.0	0.6975546421798552	-26.0	-78.0	2.5800048488324943	
2016.0	9.847831329706873	0.058511414289916464	2047.0	0.6412321021387629	1256.0	9.966891477621092	-16256.0	-192.0	0.11771919068056406	0.47087676272225626	768.0	0.0	3249.0	4099.151611328125	757.0	-0.3130434782608696	1.1656565656565656	-180.0	-0.5369261477045909	-492.0	-0.3857720591856774	-206.0	0.5943986604765163	-18.0	-16.0	3.80613908941315	
2014.0	9.798337122946016	0.01025843234715293	2051.0	0.6643510157938953	1260.0	9.888412017167381	-16128.0	-128.0	0.07847946045370938	0.4316370324954016	704.0	0.0	3889.0	4118.682861328125	756.0	-0.31521739130434784	1.1474747474747475	-189.0	-0.56686626746507	-477.0	0.15006489873287163	-221.0	0.2331363542095696	3.0	-51.0	4.028917601963242	
2008.0	9.78540867679589	0.00907404070518375	2051.0	0.7364990440424803	1261.0	9.927651747394236	-16192.0	-192.0	0.11771919068056406	0.5885959534028203	960.0	0.0	4529.0	4138.214111328125	754.0	-0.31956521739130433	1.1636363636363636	-181.0	-0.5588822355289422	-481.0	0.4806334327448418	-171.0	0.2855245464372846	0.0	-73.0	3.2651556428588635	
2007.0	9.687030096471009	-0.062336125501750994	2057.0	0.7468493493482465	1269.0	9.770692826486817	-15936.0	0.0	0.0	0.510116492949111	832.0	0.0	5169.0	4157.745361328125	760.0	-0.3065217391304348	1.1636363636363636	-181.0	-0.5369261477045909	-492.0	0.8765516093604145	-132.0	0.5665524483006783	-19.0	-99.0	2.668040567556586	
2011.0	9.663379829333051	-0.03650945611531581	2055.0	0.698678342286394	1271.0	9.770692826486817	-15936.0	-128.0	0.07847946045370938	0.5493562231759657	896.0	0.0	5809.0	4177.276611328125	759.0	-0.30869565217391304	1.1494949494949496	-188.0	-0.5528942115768464	-484.0	1.0803472520832778	-114.0	1.2679665180712913	-66.0	-112.0	2.3922383525742243	
2013.0	9.724100130363848	-0.08602466324874584	2059.0	0.6746940076831991	1266.0	9.731453096259962	-15872.0	0.0	0.0	0.4316370324954016	704.0	0.0	6449.0	4196.807861328125	760.0	-0.3065217391304348	1.1595959595959595	-183.0	-0.5369261477045909	-492.0	0.23148171373055473	-122.0	2.20673836052798	-125.0	-56.0	2.5224000117600327	
2010.0	9.723128283052123	-0.14769119994807173	2064.0	0.7102122021563415	1266.0	9.849172286940528	-16064.0	64.0	-0.03923973022685469	0.5493562231759657	896.0	0.0	7089.0	4216.339111328125	754.0	-0.31956521739130433	1.1494949494949496	-188.0	-0.5588822355289422	-481.0	0.10778807189657681	-109.0	2.3132112057355285	-131.0	-48.0	2.325918316999666	
2013.0	9.808716358834976	-0.1608896697698755	2065.0	0.6747915199026989	1259.0	9.888412017167381	-16128.0	64.0	-0.03923973022685469	0.5493562231759657	896.0	0.0	7729.0	4235.870361328125	756.0	-0.31521739130434784	1.1575757575757575	-184.0	-0.5548902195608784	-483.0	-0.14080940105931147	-86.0	2.3594984890386463	-132.0	-32.0	1.9785944057976654	
2016.0	9.796893384045557	-0.1599281464175346	2065.0	0.6385383270750752	1260.0	9.849172286940528	-16064.0	0.0	0.0	0.47087676272225626	768.0	0.0	8369.0	4255.401611328125	753.0	-0.32173913043478264	1.1676767676767676	-179.0	-0.5469061876247505	-487.0	-0.5533464011262361	-46.0	1.6179429663530864	-79.0	-6.0	1.3743547567869279	
2015.0	9.796770553894367	-0.1601665814169024	2065.0	0.650582907194654	1260.0	9.849172286940528	-16064.0	128.0	-0.07847946045370938	0.4316370324954016	704.0	0.0	9009.0	4274.932861328125	757.0	-0.3130434782608696	1.1636363636363636	-181.0	-0.5349301397205589	-493.0	-0.6382482251613708	-2.0	1.4707101491649224	-67.0	-1.0	0.7060022541147316	
2015.0	9.723983776551332	-0.12211853227074379	2062.0	0.6502355199126852	1266.0	9.770692826486817	-15936.0	128.0	-0.07847946045370938	0.47087676272225626	768.0	0.0	9649.0	4294.464111328125	759.0	-0.30869565217391304	1.1535353535353536	-186.0	-0.5688622754491018	-476.0	-1.243140827314071	34.0	1.3847867774779017	-57.0	38.0	0.16452266302599242	
2015.0	9.761161529138452	-0.061905955632233806	2057.0	0.6512094232049415	1263.0	9.849172286940528	-16064.0	0.0	0.0	0.510116492949111	832.0	0.0	10289.0	4313.995361328125	755.0	-0.3173913043478261	1.1676767676767676	-179.0	-0.5568862275449102	-482.0	-1.6681282983455072	46.0	0.5071235570541445	4.0	65.0	-0.01373696796711527	
2015.0	9.821998183981762	-0.0753272937436659	2058.0	0.6516835763722603	1258.0	9.888412017167381	-16128.0	-64.0	0.03923973022685469	0.47087676272225626	768.0	0.0	10929.0	4333.526611328125	757.0	-0.3130434782608696	1.1414141414141414	-192.0	-0.5828343313373254	-469.0	-2.8365609911653507	14.0	-0.18064639554025622	54.0	141.0	0.4846393741702087	
2014.0	9.84625828431655	-0.0760581654515087	2058.0	0.663967061429614	1256.0	9.927651747394236	-16192.0	64.0	-0.03923973022685469	0.47087676272225626	768.0	0.0	11569.0	4353.057861328125	755.0	-0.3173913043478261	1.1515151515151516	-187.0	-0.5688622754491018	-476.0	-3.4156437357322136	-30.0	-0.43697536482117133	72.0	179.0	1.159631722528425	
2008.0	9.943535710839845	-0.030697536920637508	2054.0	0.7376825986066617	1248.0	9.966891477621092	-16256.0	-128.0	0.07847946045370938	0.47087676272225626	768.0	0.0	12209.0	4372.589111328125	751.0	-0.32608695652173914	1.1636363636363636	-181.0	-0.5389221556886228	-491.0	-3.466027523443078	1.0	-0.39961683385901564	71.0	182.0	0.6886526706716932	
2006.0	9.919148462794753	-0.006301477530409022	2052.0	0.7617790722622817	1250.0	10.0453709380748	-16384.0	-256.0	0.15695892090741875	0.627835683629675	1024.0	0.0	12849.0	4392.120361328125	754.0	-0.31956521739130433	1.1454545454545455	-190.0	-0.5748502994011977	-473.0	-2.075275142473575	47.0	-0.2885183637224571	59.0	91.0	-0.024874625001119772	
2013.0	9.921456330312655	0.14165052354809954	2040.0	0.6789443215506555	1250.0	10.006131207847945	-16320.0	-384.0	0.23543838136112813	0.47087676272225626	768.0	0.0	13489.0	4411.651611328125	753.0	-0.32173913043478264	1.1535353535353536	-186.0	-0.5548902195608784	-483.0	-1.3483936861222472	60.0	0.4634021308133134	6.0	44.0	-0.22986207074334028	
2016.0	9.920859449793172	0.04484385782424685	2048.0	0.6418257077749692	1250.0	9.966891477621092	-16256.0	-320.0	0.19619865113427343	0.47087676272225626	768.0	0.0	14129.0	4431.182861328125	748.0	-0.33260869565217394	1.1676767676767676	-179.0	-0.5548902195608784	-483.0	-1.1792452521886834	58.0	0.46540517352164046	5.0	33.0	-0.2011353041321056	
2015.0	10.006438890457792	0.07945263336594999	2045.0	0.6550757827081167	1243.0	10.123850398528509	-16512.0	-192.0	0.11771919068056406	0.47087676272225626	768.0	0.0	14769.0	4450.714111328125	751.0	-0.32608695652173914	1.1717171717171717	-177.0	-0.532934131736527	-494.0	-0.7066645701018682	53.0	0.06965164299831864	29.0	2.0	-0.12981548357654787	
2016.0	9.885250425037256	0.14310448360891545	2040.0	0.6424522237852568	1253.0	9.966891477621092	-16256.0	-256.0	0.15695892090741875	0.39239730226854685	640.0	0.0	15409.0	4470.245361328125	754.0	-0.31956521739130433	1.1616161616161615	-182.0	-0.5688622754491018	-476.0	-0.2000191833841173	34.0	-0.2020573675003426	44.0	-31.0	0.1540914465866929	
2015.0	9.872694786899816	0.1187317742832962	2042.0	0.6541311330817104	1254.0	9.966891477621092	-16256.0	-512.0	0.3139178418148375	0.47087676272225626	768.0	0.0	16049.0	4489.776611328125	750.0	-0.3282608695652174	1.1696969696969697	-178.0	-0.5608782435129741	-480.0	-0.22680497153610762	-6.0	-0.4194302261310575	57.0	-29.0	0.7627243234796197	
2016.0	9.921704149394591	0.1301755822059584	2041.0	0.6426874720148005	1250.0	9.927651747394236	-16192.0	-384.0	0.23543838136112813	0.47087676272225626	768.0	0.0	16689.0	4509.307861328125	754.0	-0.31956521739130433	1.1696969696969697	-178.0	-0.530938123752495	-495.0	-0.1690326664668791	-63.0	-0.1133003984406295	34.0	-32.0	1.629066752520182	
2018.0	9.885496085339636	0.143581353607651	2040.0	0.6183630635460993	1253.0	9.966891477621092	-16256.0	-320.0	0.19619865113427343	0.4316370324954016	704.0	0.0	17329.0	4528.839111328125	750.0	-0.3282608695652174	1.1575757575757575	-184.0	-0.5568862275449102	-482.0	0.7546448270340692	-98.0	-0.36379866888308005	45.0	-92.0	2.1521493692201537	
2015.0	9.84831185641384	0.11922421099177125	2042.0	0.6538922281439354	1256.0	9.888412017167381	-16128.0	-384.0	0.23543838136112813	0.4316370324954016	704.0	0.0	17969.0	4548.370361328125	758.0	-0.3108695652173913	1.1595959595959595	-183.0	-0.5349301397205589	-493.0	0.5857881760504025	-98.0	-0.36703874972274275	46.0	-81.0	2.1538379357299906	
2012.0	9.884759104432499	0.1421507436114443	2040.0	0.6906305442635718	1253.0	9.966891477621092	-16256.0	-384.0	0.23543838136112813	0.4316370324954016	704.0	0.0	18609.0	4567.901611328125	748.0	-0.33260869565217394	1.1555555555555554	-185.0	-0.5568862275449102	-482.0	0.8345393691154837	-120.0	-0.38274335943019744	45.0	-97.0	2.4859511842556135	
2016.0	9.872938288422636	0.13116045562290846	2041.0	0.6422096621392505	1254.0	9.888412017167381	-16128.0	-256.0	0.15695892090741875	0.47087676272225626	768.0	0.0	19249.0	4587.432861328125	752.0	-0.3239130434782609	1.1575757575757575	-184.0	-0.5608782435129741	-480.0	0.9799294452754496	-154.0	-0.17366685940730392	29.0	-106.0	3.0016075496537096	
2014.0	9.8357562182764	0.09485150166615194	2044.0	0.6655711374403892	1257.0	9.927651747394236	-16192.0	-256.0	0.15695892090741875	0.47087676272225626	768.0	0.0	19889.0	4606.964111328125	749.0	-0.33043478260869563	1.1656565656565656	-180.0	-0.5528942115768464	-484.0	0.799927517967565	-193.0	-0.3497825022375053	40.0	-94.0	3.59656346246291	
2011.0	9.798571989350604	0.0704943590502721	2046.0	0.7011003020382255	1260.0	9.888412017167381	-16128.0	-320.0	0.19619865113427343	0.47087676272225626	768.0	0.0	20529.0	4626.495361328125	755.0	-0.3173913043478261	1.1595959595959595	-183.0	-0.532934131736527	-494.0	0.9272527894067715	-235.0	-0.5341207094094125	50.0	-102.0	4.234073479710495	
2006.0	9.761745456980586	0.10661157813687924	2043.0	0.7613341727608129	1263.0	9.849172286940528	-16064.0	-384.0	0.23543838136112813	0.5493562231759657	896.0	0.0	21169.0	4646.026611328125	752.0	-0.3239130434782609	1.1414141414141414	-192.0	-0.5768463073852296	-472.0	1.1421634556583071	-224.0	-0.3624764315938827	38.0	-116.0	4.064623992819843	
2008.0	9.700309762838234	0.03517806186533534	2049.0	0.7359090951145054	1268.0	9.849172286940528	-16064.0	-320.0	0.19619865113427343	0.510116492949111	832.0	0.0	21809.0	4665.557861328125	752.0	-0.3239130434782609	1.1656565656565656	-180.0	-0.5588822355289422	-481.0	1.6173769511870115	-207.0	-0.16032152933759763	23.0	-147.0	3.801316724784708	
2009.0	9.66397886863209	0.048345398267660156	2048.0	0.7236292667653829	1271.0	9.731453096259962	-15872.0	-320.0	0.19619865113427343	0.510116492949111	832.0	0.0	22449.0	4685.089111328125	755.0	-0.3173913043478261	1.1676767676767676	-179.0	-0.532934131736527	-494.0	0.9816881003963596	-226.0	0.4420786217450007	-15.0	-105.0	4.096646997323032	
2007.0	9.761144258901988	0.03370853509477997	2049.0	0.7485509375785216	1263.0	9.809932556713672	-16000.0	-192.0	0.11771919068056406	0.5493562231759657	896.0	0.0	23089.0	4704.620361328125	757.0	-0.3130434782608696	1.1515151515151516	-187.0	-0.5508982035928145	-485.0	-1.0474350400940124	-249.0	1.303945880544039	-64.0	28.0	4.466748114659495	
2006.0	9.700064102535856	0.034701191866599757	2049.0	0.7599982553536629	1268.0	9.731453096259962	-15872.0	-320.0	0.19619865113427343	0.47087676272225626	768.0	0.0	23729.0	4724.151611328125	752.0	-0.3239130434782609	1.1717171717171717	-177.0	-0.5429141716566867	-489.0	0.10307873948002033	-226.0	1.5976826068779713	-88.0	-47.0	4.105433090932196	
2014.0	9.76176272721705	0.010997087409865464	2051.0	0.6639926583872328	1263.0	9.809932556713672	-16000.0	-64.0	0.03923973022685469	0.510116492949111	832.0	0.0	24369.0	4743.682861328125	759.0	-0.30869565217391304	1.1636363636363636	-181.0	-0.5449101796407186	-488.0	-0.29124743560391453	-241.0	1.840889789600531	-103.0	-21.0	4.337513234812314	
2014.0	9.773712849716777	-0.01362962362486106	2053.0	0.6638658925018829	1262.0	9.888412017167381	-16128.0	-128.0	0.07847946045370938	0.39239730226854685	640.0	0.0	25009.0	4763.214111328125	755.0	-0.3173913043478261	1.1535353535353536	-186.0	-0.5708582834331338	-475.0	-2.851483273420619	-243.0	2.0928279926151805	-108.0	146.0	4.39353384414105	
2008.0	9.918670094867343	-0.0789660855731405	2058.0	0.7369512569604116	1250.0	9.888412017167381	-16128.0	256.0	-0.15695892090741875	0.5493562231759657	896.0	0.0	25649.0	4782.745361328125	751.0	-0.32608695652173914	1.1616161616161615	-182.0	-0.5588822355289422	-481.0	-3.3476402599978354	-238.0	1.665634727784108	-77.0	178.0	4.322449786630396	
2009.0	9.869785721303316	-0.10212326983731168	2060.0	0.7241826486110454	1254.0	9.966891477621092	-16256.0	-128.0	0.07847946045370938	0.510116492949111	832.0	0.0	26289.0	4802.276611328125	752.0	-0.3239130434782609	1.1636363636363636	-181.0	-0.5489021956087825	-486.0	-1.1327470095468566	-257.0	1.8597393121465253	-101.0	34.0	4.589274238156306	
2013.0	9.78505745657879	-0.08725575501993342	2059.0	0.6752912700276366	1261.0	9.966891477621092	-16256.0	64.0	-0.03923973022685469	0.4316370324954016	704.0	0.0	26929.0	4821.807861328125	757.0	-0.3130434782608696	1.1555555555555554	-185.0	-0.5768463073852296	-472.0	0.8417498762950546	-239.0	1.5983323655010002	-92.0	-95.0	4.295765010742754	
2012.0	9.698870341496892	-0.15891213958110564	2065.0	0.6857610278022902	1268.0	9.731453096259962	-15872.0	64.0	-0.03923973022685469	0.4316370324954016	704.0	0.0	27569.0	4841.339111328125	753.0	-0.32173913043478264	1.1696969696969697	-178.0	-0.56686626746507	-477.0	-0.006570306374945264	-237.0	1.208817067809077	-62.0	-40.0	4.273829961618882	
2010.0	9.600730945135714	-0.1939900017666746	2068.0	0.7085252407589914	1276.0	9.692213366033108	-15808.0	128.0	-0.07847946045370938	0.5493562231759657	896.0	0.0	28209.0	4860.870361328125	748.0	-0.33260869565217394	1.1555555555555554	-185.0	-0.5868263473053893	-467.0	-1.6349001421240257	-253.0	0.8176623603848746	-29.0	66.0	4.533459267580936	
2011.0	9.855909174416608	-0.29644412292825073	2076.0	0.6980042890691002	1255.0	9.927651747394236	-16192.0	320.0	-0.19619865113427343	0.510116492949111	832.0	0.0	28849.0	4880.401611328125	752.0	-0.3239130434782609	1.1575757575757575	-184.0	-0.5508982035928145	-485.0	-1.982288062714724	-299.0	0.6789232350503291	-20.0	89.0	5.236552918649962	
2012.0	9.770450405123617	-0.3188626521297093	2078.0	0.6848773233130714	1262.0	9.849172286940528	-16064.0	384.0	-0.23543838136112813	0.47087676272225626	768.0	0.0	29489.0	4899.932861328125	749.0	-0.33043478260869563	1.1676767676767676	-179.0	-0.5508982035928145	-485.0	-3.0170952118885976	-194.0	1.6244193420278288	-74.0	156.0	3.649942815236757	
2008.0	9.843107875976788	-0.32129370225260556	2078.0	0.7337723586047115	1256.0	9.966891477621092	-16256.0	320.0	-0.19619865113427343	0.510116492949111	832.0	0.0	30129.0	4919.464111328125	750.0	-0.3282608695652174	1.1656565656565656	-180.0	-0.5508982035928145	-485.0	-2.581228766884527	-173.0	1.0221510566778735	-35.0	127.0	3.3261925158057277	
2009.0	9.757649106683797	-0.3437122314540642	2080.0	0.7206453928486827	1263.0	9.849172286940528	-16064.0	320.0	-0.19619865113427343	0.47087676272225626	768.0	0.0	30769.0	4938.995361328125	753.0	-0.32173913043478264	1.1616161616161615	-182.0	-0.5628742514970061	-479.0	-1.1654843529507608	-86.0	1.1864380545958388	-49.0	34.0	1.9888411553165801	
2008.0	9.831278424848692	-0.2844767448776345	2075.0	0.7340222336671803	1257.0	9.809932556713672	-16000.0	320.0	-0.19619865113427343	0.47087676272225626	768.0	0.0	31409.0	4958.526611328125	748.0	-0.33260869565217394	1.1717171717171717	-177.0	-0.564870259481038	-478.0	-2.1432114308804695	-38.0	0.8339142676885161	-19.0	97.0	1.268580403282189	
2011.0	9.807384656187915	-0.2710787568308116	2074.0	0.6977726975477877	1259.0	9.849172286940528	-16064.0	384.0	-0.23543838136112813	0.5493562231759657	896.0	0.0	32049.0	4978.057861328125	750.0	-0.3282608695652174	1.1555555555555554	-185.0	-0.5429141716566867	-489.0	-2.0142355719400755	21.0	0.81585357278356	-16.0	88.0	0.3699522416509597	
2011.0	9.832612286275312	-0.1862394691575751	2067.0	0.6988733667253941	1257.0	9.966891477621092	-16256.0	256.0	-0.15695892090741875	0.510116492949111	832.0	0.0	32689.0	4997.589111328125	749.0	-0.33043478260869563	1.1616161616161615	-182.0	-0.5848303393213574	-468.0	-1.998398282514767	34.0	1.0625401026567218	-32.0	87.0	0.1720752375779994	
2009.0	9.856870227830541	-0.17501852952454122	2066.0	0.7233245410794453	1255.0	9.888412017167381	-16128.0	0.0	0.0	0.510116492949111	832.0	0.0	33329.0	5017.120361328125	749.0	-0.33043478260869563	1.1696969696969697	-178.0	-0.5349301397205589	-493.0	-1.3416563397961847	59.0	1.1219950114075492	-38.0	44.0	-0.21472031873131572	
2009.0	9.881615172431411	-0.13894022721228272	2063.0	0.7239327735485767	1253.0	9.888412017167381	-16128.0	128.0	-0.07847946045370938	0.510116492949111	832.0	0.0	33969.0	5036.651611328125	750.0	-0.3282608695652174	1.1717171717171717	-177.0	-0.5528942115768464	-484.0	-1.619169258271462	72.0	1.1941961670249546	-41.0	62.0	-0.40966382072527024	
2010.0	9.979873081384662	-0.07972030734559252	2058.0	0.7134593590656917	1245.0	10.0453709380748	-16384.0	0.0	0.0	0.47087676272225626	768.0	0.0	34609.0	5056.182861328125	753.0	-0.32173913043478264	1.1636363636363636	-181.0	-0.5628742514970061	-479.0	-1.2506204357076742	75.0	1.2603252865203047	-47.0	38.0	-0.45897668537676356	
2015.0	9.980487232140609	-0.07852813234875358	2058.0	0.6532364584677979	1245.0	10.084610668301655	-16448.0	0.0	0.0	0.39239730226854685	640.0	0.0	35249.0	5075.714111328125	744.0	-0.341304347826087	1.1636363636363636	-181.0	-0.5449101796407186	-488.0	-0.6215866017962395	54.0	0.9189112950664367	-28.0	-3.0	-0.1458753887348893	
2014.0	9.944031349003717	-0.05364741960491981	2056.0	0.6651688995349516	1248.0	10.0453709380748	-16384.0	0.0	0.0	0.510116492949111	832.0	0.0	35889.0	5095.245361328125	749.0	-0.33043478260869563	1.1595959595959595	-183.0	-0.5508982035928145	-485.0	-0.7349886210872185	41.0	0.12429263171126587	25.0	4.0	0.0529772626367277	
2010.0	9.943178014284067	-0.09117189862312448	2059.0	0.7129778924819105	1248.0	10.006131207847945	-16320.0	128.0	-0.07847946045370938	0.510116492949111	832.0	0.0	36529.0	5114.776611328125	749.0	-0.33043478260869563	1.1616161616161615	-182.0	-0.5748502994011977	-473.0	-0.9995721275190544	13.0	-0.6689292754240723	78.0	21.0	0.4814786110090309	
2012.0	9.894657813614494	-0.08971015520743882	2059.0	0.6884109223672029	1252.0	9.966891477621092	-16256.0	0.0	0.0	0.4316370324954016	704.0	0.0	37169.0	5134.307861328125	747.0	-0.3347826086956522	1.1474747474747475	-189.0	-0.5728542914171657	-474.0	-0.30354078729123846	-19.0	-0.6169007073272859	70.0	-24.0	0.9612103128158781	
2011.0	9.84564845111972	-0.10115396313010105	2060.0	0.6998545834341129	1256.0	9.927651747394236	-16192.0	128.0	-0.07847946045370938	0.47087676272225626	768.0	0.0	37809.0	5153.839111328125	746.0	-0.33695652173913043	1.1515151515151516	-187.0	-0.5409181636726548	-490.0	-0.23124825917564354	7.0	-0.6660847917823384	74.0	-29.0	0.5650501251773078	
2012.0	9.809317556913575	-0.08798662672777623	2059.0	0.6875747550849903	1259.0	9.888412017167381	-16128.0	0.0	0.0	0.5493562231759657	896.0	0.0	38449.0	5173.370361328125	746.0	-0.33695652173913043	1.1555555555555554	-185.0	-0.5688622754491018	-476.0	0.13823071267754558	18.0	-0.3852584380516762	54.0	-53.0	0.39405495523063905	
2011.0	9.809918754992173	-0.015083583685676971	2053.0	0.7003579902672816	1259.0	9.888412017167381	-16128.0	-128.0	0.07847946045370938	0.5493562231759657	896.0	0.0	39089.0	5192.901611328125	747.0	-0.3347826086956522	1.1676767676767676	-179.0	-0.5389221556886228	-491.0	0.4147654483165253	23.0	-0.2815234005720847	46.0	-71.0	0.3152439804978234	
2015.0	9.785544459624429	-0.06239839234070882	2057.0	0.6514483281427165	1261.0	9.849172286940528	-16064.0	-192.0	0.11771919068056406	0.4316370324954016	704.0	0.0	39729.0	5212.432861328125	749.0	-0.33043478260869563	1.1656565656565656	-180.0	-0.5389221556886228	-491.0	0.23541363029951093	-3.0	-0.19490298204364143	40.0	-59.0	0.7124747610354081	
2015.0	9.76104085776682	-0.07409620197247832	2058.0	0.6510863140278227	1263.0	9.849172286940528	-16064.0	-128.0	0.07847946045370938	0.47087676272225626	768.0	0.0	40369.0	5231.964111328125	744.0	-0.341304347826087	1.1373737373737374	-194.0	-0.5768463073852296	-472.0	-0.7859967799160763	-73.0	-0.5711959700228353	67.0	8.0	1.787327648407526	
2011.0	9.723613127318206	-0.11088202592797042	2061.0	0.6985369495681191	1266.0	9.809932556713672	-16000.0	0.0	0.0	0.5493562231759657	896.0	0.0	41009.0	5251.495361328125	745.0	-0.3391304347826087	1.1676767676767676	-179.0	-0.5489021956087825	-486.0	-0.9469165764956831	-112.0	-0.37382713544857643	53.0	19.0	2.382092739909444	
2011.0	9.759825508932277	-0.1481914200114165	2064.0	0.6985259794434252	1263.0	9.888412017167381	-16128.0	128.0	-0.07847946045370938	0.510116492949111	832.0	0.0	41649.0	5271.026611328125	750.0	-0.3282608695652174	1.1656565656565656	-180.0	-0.5528942115768464	-484.0	-1.0964032281182963	-115.0	-0.020420373345780243	30.0	29.0	2.4292149828515255	
2015.0	9.809082690508987	-0.1482225534308954	2064.0	0.6508254688406602	1259.0	9.888412017167381	-16128.0	128.0	-0.07847946045370938	0.510116492949111	832.0	0.0	42289.0	5290.557861328125	747.0	-0.3347826086956522	1.1555555555555554	-185.0	-0.5708582834331338	-475.0	-0.5565382328237561	-96.0	0.5382716045198479	-9.0	-6.0	2.1348429488681617	
2010.0	9.784206280638696	-0.1367320453790148	2063.0	0.7109325736778978	1261.0	9.849172286940528	-16064.0	128.0	-0.07847946045370938	0.5493562231759657	896.0	0.0	42929.0	5310.089111328125	749.0	-0.33043478260869563	1.1696969696969697	-178.0	-0.5628742514970061	-479.0	0.09922552705852858	-53.0	0.7736627063676723	-26.0	-49.0	1.4742929158320763	
2010.0	9.809071896611195	-0.08846349672651181	2059.0	0.7116639153241479	1259.0	9.888412017167381	-16128.0	-64.0	0.03923973022685469	0.510116492949111	832.0	0.0	43569.0	5329.620361328125	746.0	-0.33695652173913043	1.1616161616161615	-182.0	-0.5409181636726548	-490.0	-0.2355592641998961	-32.0	1.3794545356672838	-64.0	-27.0	1.158249128763672	
2013.0	9.809561058436396	-0.07555794538816396	2058.0	0.6756532841425302	1259.0	9.849172286940528	-16064.0	-128.0	0.07847946045370938	0.4316370324954016	704.0	0.0	44209.0	5349.151611328125	745.0	-0.3391304347826087	1.1515151515151516	-187.0	-0.56686626746507	-477.0	-0.31061590170527165	-37.0	1.4715916750313567	-70.0	-22.0	1.2350453225151516	
2008.0	9.846003988895939	-0.02872779008673737	2054.0	0.7367269788555617	1256.0	10.006131207847945	-16320.0	-128.0	0.07847946045370938	0.510116492949111	832.0	0.0	44849.0	5368.682861328125	747.0	-0.3347826086956522	1.1616161616161615	-182.0	-0.5369261477045909	-492.0	0.034020842975725066	-67.0	1.7142115782456098	-89.0	-44.0	1.6878727193268968	
2015.0	9.89575033229785	-0.015853372167868418	2053.0	0.6530158370711792	1252.0	9.927651747394236	-16192.0	-64.0	0.03923973022685469	0.5493562231759657	896.0	0.0	45489.0	5388.214111328125	741.0	-0.34782608695652173	1.1616161616161615	-182.0	-0.5528942115768464	-484.0	-0.05146833248904469	-82.0	2.145818758268439	-118.0	-38.0	1.916864493210822	
2018.0	9.87161522089381	-0.02683587680153457	2054.0	0.6165200825975491	1254.0	9.888412017167381	-16128.0	-128.0	0.07847946045370938	0.39239730226854685	640.0	0.0	46129.0	5407.745361328125	741.0	-0.34782608695652173	1.1595959595959595	-183.0	-0.5588822355289422	-481.0	0.10417316130126784	-114.0	1.875638369722253	-102.0	-48.0	2.4020000934820445	
2006.0	9.882212052950893	-0.04213356148843003	2055.0	0.761051387324263	1253.0	9.927651747394236	-16192.0	-192.0	0.11771919068056406	0.47087676272225626	768.0	0.0	46769.0	5427.276611328125	745.0	-0.3391304347826087	1.1676767676767676	-179.0	-0.5508982035928145	-485.0	-0.24798114441584038	-153.0	1.3666769462224369	-68.0	-25.0	2.9986775300753377	
2010.0	9.833575498468804	-0.07676568709474232	2058.0	0.7120259294390416	1257.0	9.888412017167381	-16128.0	64.0	-0.03923973022685469	0.510116492949111	832.0	0.0	47409.0	5446.807861328125	749.0	-0.33043478260869563	1.1636363636363636	-181.0	-0.5588822355289422	-481.0	0.3970710992499503	-153.0	1.4117363325520536	-74.0	-67.0	2.9922270076386797	
2010.0	9.906482947183472	-0.10262348990065642	2060.0	0.7124964258981292	1251.0	9.966891477621092	-16256.0	0.0	0.0	0.5493562231759657	896.0	0.0	48049.0	5466.339111328125	750.0	-0.3282608695652174	1.1575757575757575	-184.0	-0.5748502994011977	-473.0	0.4332174277013886	-171.0	1.683127548964021	-93.0	-69.0	3.2656298029092983	
2013.0	9.942701805136217	-0.1757883180067327	2066.0	0.6759823878833429	1248.0	10.006131207847945	-16320.0	64.0	-0.03923973022685469	0.47087676272225626	768.0	0.0	48689.0	5485.870361328125	745.0	-0.3391304347826087	1.1696969696969697	-178.0	-0.5608782435129741	-480.0	1.01991784350256	-171.0	2.032098297475534	-119.0	-107.0	3.2597627987512863	
2010.0	9.942695328797543	-0.13993288398410253	2063.0	0.7124854557734354	1248.0	9.966891477621092	-16256.0	192.0	-0.11771919068056406	0.4316370324954016	704.0	0.0	49329.0	5505.401611328125	747.0	-0.3347826086956522	1.1515151515151516	-187.0	-0.5469061876247505	-487.0	1.201714587739603	-171.0	1.7945576878547467	-104.0	-119.0	3.257944831308916	
2013.0	9.918680888765136	-0.13872514227752414	2063.0	0.6761128104769241	1250.0	10.006131207847945	-16320.0	0.0	0.0	0.47087676272225626	768.0	0.0	49969.0	5524.932861328125	747.0	-0.3347826086956522	1.1535353535353536	-186.0	-0.5728542914171657	-474.0	1.397006529168531	-144.0	1.7823987204964753	-103.0	-132.0	2.845345524061927	
2014.0	9.808597846242902	-0.18503172745099672	2067.0	0.6625007214288827	1259.0	9.849172286940528	-16064.0	64.0	-0.03923973022685469	0.4316370324954016	704.0	0.0	50609.0	5544.464111328125	746.0	-0.33695652173913043	1.1717171717171717	-177.0	-0.5429141716566867	-489.0	1.5066251934406694	-117.0	0.8766523883407602	-42.0	-140.0	2.4336029495865064	
2011.0	9.784570453533147	-0.112113117699158	2061.0	0.6991342119125565	1261.0	9.888412017167381	-16128.0	-64.0	0.03923973022685469	0.4316370324954016	704.0	0.0	51249.0	5563.995361328125	747.0	-0.3347826086956522	1.1737373737373737	-176.0	-0.5528942115768464	-484.0	1.0170215802847775	-160.0	0.37482397656263805	-8.0	-108.0	3.092491381155327	
2010.0	9.710333460950977	-0.20839621329505675	2069.0	0.7094772038018602	1267.0	9.731453096259962	-15872.0	192.0	-0.11771919068056406	0.510116492949111	832.0	0.0	51889.0	5583.526611328125	747.0	-0.3347826086956522	1.1616161616161615	-182.0	-0.5868263473053893	-467.0	1.0305882969262916	-153.0	0.3031757694768388	-3.0	-109.0	2.985891835661916	
2009.0	9.71057264491468	-0.17206390927369103	2066.0	0.7218911114527953	1267.0	9.849172286940528	-16064.0	192.0	-0.11771919068056406	0.5885959534028203	960.0	0.0	52529.0	5603.057861328125	746.0	-0.33695652173913043	1.1717171717171717	-177.0	-0.5528942115768464	-484.0	0.7569076999709008	-156.0	0.515301392693537	-16.0	-91.0	3.0342560180573255	
2011.0	9.747151358202764	-0.196706187018157	2068.0	0.6979140902660628	1264.0	9.809932556713672	-16000.0	128.0	-0.07847946045370938	0.5885959534028203	960.0	0.0	53169.0	5622.589111328125	751.0	-0.32608695652173914	1.1616161616161615	-182.0	-0.5469061876247505	-487.0	0.5260675915173862	-127.0	0.8938380360001289	-39.0	-76.0	2.5954997803585904	
2010.0	9.784206280638696	-0.1367320453790148	2063.0	0.7109325736778978	1261.0	9.849172286940528	-16064.0	0.0	0.0	0.5885959534028203	960.0	0.0	53809.0	5642.120361328125	748.0	-0.33260869565217394	1.1515151515151516	-187.0	-0.5848303393213574	-468.0	1.0010793333900012	-85.0	1.4560436919930597	-77.0	-107.0	1.9519663929778872	
2013.0	9.760071169234656	-0.14771455001268094	2064.0	0.6744368192042677	1263.0	9.888412017167381	-16128.0	192.0	-0.11771919068056406	0.4316370324954016	704.0	0.0	54449.0	5661.651611328125	746.0	-0.33695652173913043	1.1494949494949496	-188.0	-0.5748502994011977	-473.0	1.3626968846058811	-54.0	1.2548318772921507	-64.0	-131.0	1.476867327731888	
2010.0	9.735078405551848	-0.17231791098279828	2066.0	0.7100854362709915	1265.0	9.809932556713672	-16000.0	128.0	-0.07847946045370938	0.510116492949111	832.0	0.0	55089.0	5681.182861328125	748.0	-0.33260869565217394	1.1595959595959595	-183.0	-0.5469061876247505	-487.0	0.6259860277805646	-76.0	0.9179103288057935	-39.0	-83.0	1.8188351967564151	
2013.0	9.747276347133512	-0.20841956335966597	2069.0	0.6737018208497865	1264.0	9.809932556713672	-16000.0	192.0	-0.11771919068056406	0.47087676272225626	768.0	0.0	55729.0	5700.714111328125	746.0	-0.33695652173913043	1.1555555555555554	-185.0	-0.5768463073852296	-472.0	-0.2646704255753899	-92.0	0.6253385914482888	-16.0	-25.0	2.0710877688945373	
2013.0	9.722772745275904	-0.22011737299143544	2070.0	0.6733398067348927	1266.0	9.809932556713672	-16000.0	320.0	-0.19619865113427343	0.47087676272225626	768.0	0.0	56369.0	5720.245361328125	750.0	-0.3282608695652174	1.1737373737373737	-176.0	-0.5429141716566867	-489.0	-0.29127117908121053	-123.0	0.5633531770585626	-13.0	-23.0	2.542836666163436	
2009.0	9.733869533055977	-0.28226856304436665	2075.0	0.7210220337965014	1265.0	9.809932556713672	-16000.0	320.0	-0.19619865113427343	0.510116492949111	832.0	0.0	57009.0	5739.776611328125	750.0	-0.3282608695652174	1.1595959595959595	-183.0	-0.5988023952095809	-461.0	-0.8319812704298974	-90.0	0.7110176675325631	-19.0	12.0	2.046342626392512	
2014.0	9.771540765027414	-0.2330540577492622	2071.0	0.6616499273137452	1262.0	9.888412017167381	-16128.0	192.0	-0.11771919068056406	0.47087676272225626	768.0	0.0	57649.0	5759.307861328125	745.0	-0.3391304347826087	1.1595959595959595	-183.0	-0.5848303393213574	-468.0	-0.72896779865582	-52.0	0.8469058306045283	-27.0	5.0	1.4673657236139348	
2018.0	9.771670071517278	-0.26867105677252456	2074.0	0.6131022793040739	1262.0	9.809932556713672	-16000.0	384.0	-0.23543838136112813	0.39239730226854685	640.0	0.0	58289.0	5778.839111328125	749.0	-0.33043478260869563	1.1737373737373737	-176.0	-0.5568862275449102	-482.0	-0.8092569576737375	-16.0	1.0393126379859714	-38.0	10.0	0.9206400980938477	
2016.0	9.784098561944413	-0.22063315976451964	2070.0	0.6378033287205939	1261.0	9.849172286940528	-16064.0	384.0	-0.23543838136112813	0.39239730226854685	640.0	0.0	58929.0	5798.370361328125	750.0	-0.3282608695652174	1.1575757575757575	-184.0	-0.5728542914171657	-474.0	-1.7986893919247267	3.0	0.6099909433347751	-4.0	74.0	0.6415610384059393	
2017.0	9.759959132981257	-0.20771204171643232	2069.0	0.6256429528403589	1263.0	9.849172286940528	-16064.0	256.0	-0.15695892090741875	0.47087676272225626	768.0	0.0	59569.0	5817.901611328125	750.0	-0.3282608695652174	1.1616161616161615	-182.0	-0.5908183632734532	-465.0	-2.154499874891227	25.0	0.6631318871156204	-5.0	97.0	0.3105183827793305	
2012.0	9.722891257867976	-0.19597531531031417	2068.0	0.685630605208709	1266.0	9.809932556713672	-16000.0	64.0	-0.03923973022685469	0.47087676272225626	768.0	0.0	60209.0	5837.432861328125	747.0	-0.3347826086956522	1.1717171717171717	-177.0	-0.5728542914171657	-474.0	-2.22966326070033	31.0	0.9118935088520175	-21.0	102.0	0.22001526378571057	
2012.0	9.735082723110965	-0.1962215336645517	2068.0	0.6857500576775964	1265.0	9.849172286940528	-16064.0	64.0	-0.03923973022685469	0.5493562231759657	896.0	0.0	60849.0	5856.964111328125	747.0	-0.3347826086956522	1.1575757575757575	-184.0	-0.5588822355289422	-481.0	-1.497190956495488	18.0	1.827517434860398	-86.0	55.0	0.41040917192236936	
