Device	Device	Device	Device	Device	Device	Device	Device	Device	Device	Device	Device	Device	Device	Device	Device	Device	Device	Device	Device	Device	Device	Device	Device	Device	Device	Device	
Low Noise Accelerometer X	Low Noise Accelerometer X	Low Noise Accelerometer Z	Low Noise Accelerometer Z	Low Noise Accelerometer Y	Low Noise Accelerometer Y	Wide Range Accelerometer X	Wide Range Accelerometer X	Wide Range Accelerometer Z	Wide Range Accelerometer Z	Wide Range Accelerometer Y	Wide Range Accelerometer Y	Event_Marker	Timestamp	Timestamp	Magnetometer Z	Magnetometer Z	Magnetometer X	Magnetometer X	Magnetometer Y	Magnetometer Y	Gyroscope Y	Gyroscope Y	Gyroscope Z	Gyroscope Z	Gyroscope X	Gyroscope X	
CAL	UNCAL	CAL	UNCAL	CAL	UNCAL	CAL	UNCAL	CAL	UNCAL	CAL	UNCAL	CAL	CAL	UNCAL	CAL	UNCAL	CAL	UNCAL	UNCAL	CAL	CAL	UNCAL	CAL	UNCAL	CAL	UNCAL	
m/(s^2)	no units	m/(s^2)	no units	m/(s^2)	no units	m/(s^2)	no units	m/(s^2)	no units	m/(s^2)	no units	no units	ms	no units	local_flux	no units	local_flux	no units	no units	local_flux	deg/s	no units	deg/s	no units	deg/s	no units	
9.589723504395316	1886.0	0.20310268022027775	2033.0	2.2063619967859145	1276.0	9.770692826486817	-15936.0	0.3531575720416922	-576.0	2.118945432250153	3456.0	0.0	134.3994140625	4404.0	-0.2847826086956522	770.0	1.2141414141414142	-156.0	-568.0	-0.38522954091816375	0.931303583592667	-310.0	-1.2696851935243993	96.0	5.374717382415024	-102.0	
9.638006679880743	1886.0	0.15335682144234963	2037.0	2.2063473699529896	1272.0	9.692213366033108	-15808.0	0.3139178418148375	-512.0	2.1974248927038627	3584.0	0.0	153.9306640625	5044.0	-0.2847826086956522	770.0	1.1898989898989898	-168.0	-565.0	-0.39121756487025955	-0.38652573155598174	-322.0	-1.245234668410694	100.0	5.570405181269933	-16.0	
9.625694543266125	1886.0	0.1414127934563426	2038.0	2.206104808306983	1273.0	9.731453096259962	-15872.0	0.3139178418148375	-512.0	2.158185162477008	3520.0	0.0	173.4619140625	5684.0	-0.2782608695652174	773.0	1.2	-163.0	-560.0	-0.4011976047904192	0.32250833099916426	-338.0	-1.1843772494837073	92.0	5.806660848248944	-62.0	
9.55120757282246	1881.0	0.06855645054346174	2044.0	2.264872339028839	1279.0	9.652973635806253	-15744.0	0.3139178418148375	-512.0	2.158185162477008	3520.0	0.0	192.9931640625	6324.0	-0.29130434782608694	767.0	1.2101010101010101	-158.0	-574.0	-0.3732534930139721	-0.1725687004965798	-325.0	-1.38189120281447	108.0	5.613892987385194	-30.0	
9.599857079981897	1883.0	0.031477708104513724	2047.0	2.240891661133875	1275.0	9.770692826486817	-15936.0	0.3139178418148375	-512.0	2.158185162477008	3520.0	0.0	212.5244140625	6964.0	-0.2826086956521739	771.0	1.2101010101010101	-158.0	-565.0	-0.39121756487025955	1.412502543911389	-333.0	-1.07728897662983	80.0	5.719715278743396	-133.0	
9.379925861342025	1882.0	-8.995355393122961E-4	2050.0	2.250416769282123	1293.0	9.574494175352545	-15616.0	0.19619865113427343	-320.0	2.118945432250153	3456.0	0.0	232.0556640625	7604.0	-0.2847826086956522	770.0	1.206060606060606	-160.0	-560.0	-0.4011976047904192	1.3860857633103068	-317.0	-0.40604636347827083	36.0	5.476633438944845	-131.0	
9.623985715047263	1877.0	0.07831564676081001	2043.0	2.3138904834975977	1273.0	9.613733905579398	-15680.0	0.3139178418148375	-512.0	2.1974248927038627	3584.0	0.0	251.5869140625	8244.0	-0.2847826086956522	770.0	1.1898989898989898	-168.0	-564.0	-0.3932135728542915	-0.3268795941223246	-283.0	0.708373179673614	-29.0	4.976652826359475	-19.0	
9.612283411629475	1880.0	0.0914674164533954	2042.0	2.277760399847093	1274.0	9.652973635806253	-15744.0	0.27467811158798283	-448.0	2.118945432250153	3456.0	0.0	271.1181640625	8884.0	-0.28043478260869564	772.0	1.197979797979798	-164.0	-576.0	-0.3692614770459082	0.43387251305081226	-195.0	1.3836236233530346	-74.0	3.630642263462648	-69.0	
9.56327620791426	1880.0	0.06807179718985645	2044.0	2.2770363716173057	1278.0	9.652973635806253	-15744.0	0.3139178418148375	-512.0	2.2366646229307174	3648.0	0.0	290.6494140625	9524.0	-0.2826086956521739	771.0	1.2	-163.0	-560.0	-0.4011976047904192	0.8068410085641218	-149.0	1.0108372132366845	-49.0	2.927292806644397	-94.0	
9.587781968551424	1881.0	0.0678177954807492	2044.0	2.2652306964355016	1276.0	9.731453096259962	-15872.0	0.19619865113427343	-320.0	2.158185162477008	3520.0	0.0	310.1806640625	10164.0	-0.2891304347826087	768.0	1.208080808080808	-159.0	-564.0	-0.3932135728542915	0.9453008751176112	-193.0	0.3747321957630223	-9.0	3.59510972889141	-103.0	
9.600458278060495	1882.0	0.10438075114661297	2041.0	2.253674896316167	1275.0	9.652973635806253	-15744.0	0.23543838136112813	-384.0	2.158185162477008	3520.0	0.0	329.7119140625	10804.0	-0.28043478260869564	772.0	1.1818181818181819	-172.0	-557.0	-0.407185628742515	0.4307707106471004	-222.0	0.6627659771251059	-27.0	4.0413196693193845	-69.0	
9.56327620791426	1880.0	0.06807179718985645	2044.0	2.2770363716173057	1278.0	9.692213366033108	-15808.0	0.27467811158798283	-448.0	2.2366646229307174	3648.0	0.0	349.2431640625	11444.0	-0.28043478260869564	772.0	1.1939393939393939	-166.0	-552.0	-0.4171656686626747	-0.44695062551403103	-201.0	0.6916535362767824	-24.0	3.7307052477000076	-12.0	
9.66081008863772	1881.0	0.05415023901507959	2045.0	2.265824302071708	1270.0	9.731453096259962	-15872.0	0.23543838136112813	-384.0	2.118945432250153	3456.0	0.0	368.7744140625	12084.0	-0.2891304347826087	768.0	1.2121212121212122	-157.0	-572.0	-0.37724550898203596	-0.2649571036794522	-189.0	0.6563021598889807	-22.0	3.5463758067782396	-24.0	
9.599850603643224	1880.0	0.06733314212714389	2044.0	2.277394729023968	1275.0	9.692213366033108	-15808.0	0.19619865113427343	-320.0	2.118945432250153	3456.0	0.0	388.3056640625	12724.0	-0.27608695652173915	774.0	1.187878787878788	-169.0	-553.0	-0.41516966067864275	0.883822697205116	-188.0	0.4420229170332928	-13.0	3.519678883294109	-99.0	
9.600456119280937	1881.0	0.11633256248748969	2040.0	2.265842585612864	1275.0	9.770692826486817	-15936.0	0.3139178418148375	-512.0	2.1974248927038627	3584.0	0.0	407.8369140625	13364.0	-0.28695652173913044	769.0	1.206060606060606	-160.0	-557.0	-0.407185628742515	0.15737785353720304	-166.0	0.2660874486008155	3.0	3.1923425712745144	-52.0	
9.64934265162452	1881.0	0.12753793541078415	2039.0	2.266443504665533	1271.0	9.849172286940528	-16064.0	0.3531575720416922	-576.0	2.158185162477008	3520.0	0.0	427.3681640625	14004.0	-0.2847826086956522	770.0	1.204040404040404	-161.0	-575.0	-0.37125748502994016	-0.5895139632102627	-172.0	0.6892335226355191	-22.0	3.2910662422937	-3.0	
9.673964766074203	1880.0	0.16337780272367486	2036.0	2.2790963172542433	1269.0	9.770692826486817	-15936.0	0.27467811158798283	-448.0	2.1974248927038627	3584.0	0.0	446.8994140625	14644.0	-0.28043478260869564	772.0	1.1919191919191918	-167.0	-555.0	-0.4111776447105789	0.04905251216671057	-145.0	0.49629761023320446	-11.0	2.874034189707231	-45.0	
9.625078233730619	1880.0	0.1521724298003804	2037.0	2.2784953982015748	1273.0	9.731453096259962	-15872.0	0.3139178418148375	-512.0	2.1974248927038627	3584.0	0.0	466.4306640625	15284.0	-0.28043478260869564	772.0	1.206060606060606	-160.0	-551.0	-0.4191616766467066	-0.011620774604290202	-164.0	0.2790664831574863	3.0	3.163614306605359	-41.0	
9.57534052544694	1877.0	0.09149076651800461	2042.0	2.3135357827991667	1277.0	9.731453096259962	-15872.0	0.3139178418148375	-512.0	2.275904353157572	3712.0	0.0	485.9619140625	15924.0	-0.2847826086956522	770.0	1.208080808080808	-159.0	-567.0	-0.3872255489021957	0.40402002256192715	-191.0	-0.006168031808605451	19.0	3.5701042864663965	-68.0	
9.661893972202845	1880.0	0.1758142674181569	2035.0	2.2790999739624747	1270.0	9.731453096259962	-15872.0	0.27467811158798283	-448.0	2.2366646229307174	3648.0	0.0	505.4931640625	16564.0	-0.2782608695652174	773.0	1.1898989898989898	-168.0	-562.0	-0.39720558882235535	0.9475568523743482	-229.0	0.05282396409902407	11.0	4.142615686229108	-103.0	
9.577157072360084	1880.0	0.23848902759904203	2030.0	2.278879352565856	1277.0	9.770692826486817	-15936.0	0.39239730226854685	-640.0	2.2366646229307174	3648.0	0.0	525.0244140625	17204.0	-0.27608695652173915	774.0	1.197979797979798	-164.0	-553.0	-0.41516966067864275	0.5901807063546329	-186.0	0.268774580908872	0.0	3.4921970522520436	-80.0	
9.783812942191844	1882.0	0.1494484611940283	2037.0	2.2559591200579545	1260.0	9.731453096259962	-15872.0	0.3139178418148375	-512.0	2.118945432250153	3456.0	0.0	544.5556640625	17844.0	-0.28043478260869564	772.0	1.202020202020202	-162.0	-572.0	-0.37724550898203596	-3.1599091946679247	-167.0	0.031594645944977025	34.0	3.240724567231851	164.0	
9.735034128542543	1876.0	0.22214420265623866	2031.0	2.32848744596259	1264.0	9.731453096259962	-15872.0	0.3531575720416922	-576.0	2.1974248927038627	3584.0	0.0	564.0869140625	18484.0	-0.2847826086956522	770.0	1.2	-163.0	-564.0	-0.3932135728542915	-3.59003405307226	-190.0	-0.3572586605467439	61.0	3.594835701747453	192.0	
9.673729899669615	1883.0	0.10314187602055563	2041.0	2.242347031009913	1269.0	9.692213366033108	-15808.0	0.19619865113427343	-320.0	2.1974248927038627	3584.0	0.0	583.6181640625	19124.0	-0.28695652173913044	769.0	1.202020202020202	-162.0	-561.0	-0.3992015968063873	-1.1324572750057822	-212.0	-0.4967125234740439	58.0	3.904860694423062	32.0	
9.58898652348818	1880.0	0.20167207022407102	2033.0	2.278629477503387	1276.0	9.731453096259962	-15872.0	0.39239730226854685	-640.0	2.2366646229307174	3648.0	0.0	603.1494140625	19764.0	-0.2826086956521739	771.0	1.2141414141414142	-156.0	-572.0	-0.37724550898203596	0.6565028266431517	-293.0	-0.8654042618143709	71.0	5.118910256904671	-84.0	
9.491336288952198	1881.0	0.1794997593768499	2035.0	2.2653830592784705	1284.0	9.53525444512569	-15552.0	0.19619865113427343	-320.0	2.118945432250153	3456.0	0.0	622.6806640625	20404.0	-0.2782608695652174	773.0	1.204040404040404	-161.0	-563.0	-0.3952095808383234	1.840151161558719	-292.0	-0.66232024969109	52.0	5.0918646480802305	-161.0	
9.564368726597614	1883.0	0.14192858022942684	2038.0	2.241641286321282	1278.0	9.574494175352545	-15616.0	0.27467811158798283	-448.0	2.1974248927038627	3584.0	0.0	642.2119140625	21044.0	-0.2847826086956522	770.0	1.206060606060606	-160.0	-560.0	-0.4011976047904192	0.7522542297354848	-297.0	-0.5596594408349982	50.0	5.1787892447748884	-90.0	
9.563411990742797	1887.0	-0.0034006358560360883	2050.0	2.1919856557175414	1278.0	9.692213366033108	-15808.0	0.23543838136112813	-384.0	2.118945432250153	3456.0	0.0	661.7431640625	21684.0	-0.28043478260869564	772.0	1.206060606060606	-160.0	-565.0	-0.39121756487025955	-0.4241240790768121	-316.0	-0.30943240092536783	38.0	5.47952641189343	-13.0	
9.659971865374978	1884.0	-0.06703691938926215	2055.0	2.228459469941784	1270.0	9.809932556713672	-16000.0	0.11771919068056406	-192.0	2.158185162477008	3520.0	0.0	681.2744140625	22324.0	-0.27608695652173915	774.0	1.1898989898989898	-168.0	-567.0	-0.3872255489021957	-1.550284063238804	-370.0	-0.17394835456555352	32.0	6.31208078740045	61.0	
9.611451664705404	1886.0	-0.06557517597357651	2055.0	2.2038924998270764	1274.0	9.652973635806253	-15744.0	0.07847946045370938	-128.0	2.158185162477008	3520.0	0.0	700.8056640625	22964.0	-0.2847826086956522	770.0	1.202020202020202	-162.0	-546.0	-0.42914171656686634	1.6287498481274774	-387.0	-0.22564127514232943	20.0	6.538845581366634	-146.0	
9.501245792031986	1886.0	-0.11212019614641687	2059.0	2.202324990898614	1283.0	9.652973635806253	-15744.0	0.0	0.0	2.118945432250153	3456.0	0.0	720.3369140625	23604.0	-0.2782608695652174	773.0	1.2101010101010101	-158.0	-574.0	-0.3732534930139721	2.8025451678790407	-339.0	-0.2931284122326167	21.0	5.797069605355431	-223.0	
9.610229839532185	1879.0	-0.10381495998988455	2058.0	2.2878352331327716	1274.0	9.692213366033108	-15808.0	0.03923973022685469	-64.0	2.1974248927038627	3584.0	0.0	739.8681640625	24244.0	-0.2739130434782609	775.0	1.2	-163.0	-575.0	-0.37125748502994016	0.3387470042537885	-299.0	-0.502111060483243	48.0	5.213342567980276	-63.0	
9.597803507884608	1882.0	-0.16380466833876617	2063.0	2.250966494419554	1275.0	9.652973635806253	-15744.0	0.0	0.0	2.1974248927038627	3584.0	0.0	759.3994140625	24884.0	-0.2826086956521739	771.0	1.2121212121212122	-157.0	-563.0	-0.3952095808383234	-0.09386689960034979	-269.0	-0.3338101522196454	40.0	4.761394942760263	-35.0	
9.488203150848904	1883.0	-0.1613502681512608	2063.0	2.2378468420799877	1284.0	9.652973635806253	-15744.0	0.07847946045370938	-128.0	2.158185162477008	3520.0	0.0	778.9306640625	25524.0	-0.27608695652173915	774.0	1.208080808080808	-159.0	-573.0	-0.375249500998004	1.017977338959774	-222.0	-0.47255637781864945	46.0	4.035447603036258	-108.0	
9.463451729909359	1880.0	-0.1615731364408891	2063.0	2.2737416775009494	1286.0	9.574494175352545	-15616.0	0.03923973022685469	-64.0	2.158185162477008	3520.0	0.0	798.4619140625	26164.0	-0.27608695652173915	774.0	1.197979797979798	-164.0	-550.0	-0.4211576846307386	0.6414397141279077	-161.0	-0.364261581726278	43.0	3.1114563252921816	-84.0	
9.561578173593189	1876.0	-0.05478440621005978	2054.0	2.323983600324433	1278.0	9.731453096259962	-15872.0	0.07847946045370938	-128.0	2.275904353157572	3712.0	0.0	817.9931640625	26804.0	-0.2847826086956522	770.0	1.183838383838384	-171.0	-552.0	-0.4171656686626747	0.24802292621905075	-73.0	0.0015139195995750726	24.0	1.7769874513461745	-59.0	
9.501715524841162	1880.0	0.008351657259821482	2049.0	2.275823563387274	1283.0	9.652973635806253	-15744.0	0.11771919068056406	-192.0	2.2366646229307174	3648.0	0.0	837.5244140625	27444.0	-0.2826086956521739	771.0	1.2101010101010101	-158.0	-565.0	-0.39121756487025955	1.2570650661296903	-10.0	0.5693117327845507	-16.0	0.8087221250041025	-125.0	
9.600206141419442	1877.0	0.13975931517050758	2038.0	2.3142671244454167	1275.0	9.652973635806253	-15744.0	0.3139178418148375	-512.0	2.158185162477008	3520.0	0.0	857.0556640625	28084.0	-0.2717391304347826	776.0	1.197979797979798	-164.0	-565.0	-0.39121756487025955	-0.1777313545240905	11.0	0.14221909412875963	20.0	0.5036784542296516	-32.0	
9.575696063223157	1874.0	0.16391693956136827	2036.0	2.350408178220616	1277.0	9.692213366033108	-15808.0	0.27467811158798283	-448.0	2.1974248927038627	3584.0	0.0	876.5869140625	28724.0	-0.2739130434782609	775.0	1.2	-163.0	-555.0	-0.4111776447105789	-0.29828975593451723	-17.0	-0.06132681039103122	33.0	0.9307395515517406	-24.0	
9.613117317333101	1875.0	0.23655819753949053	2030.0	2.339460610570412	1274.0	9.692213366033108	-15808.0	0.3531575720416922	-576.0	2.2366646229307174	3648.0	0.0	896.1181640625	29364.0	-0.2739130434782609	775.0	1.2161616161616162	-155.0	-572.0	-0.37724550898203596	-0.2460172076835642	-63.0	-0.13792728186820008	36.0	1.629836597932349	-27.0	
9.599598467002169	1875.0	0.10271170615103845	2041.0	2.337986957153218	1275.0	9.692213366033108	-15808.0	0.27467811158798283	-448.0	2.275904353157572	3712.0	0.0	915.6494140625	30004.0	-0.2717391304347826	776.0	1.2	-163.0	-568.0	-0.38522954091816375	0.5184598724001849	-157.0	-0.3232837171697309	41.0	3.0518496218083175	-76.0	
9.551429486549699	1872.0	0.20050324529184127	2033.0	2.374627761053355	1279.0	9.613733905579398	-15680.0	0.3139178418148375	-512.0	2.2366646229307174	3648.0	0.0	935.1806640625	30644.0	-0.2826086956521739	771.0	1.2161616161616162	-155.0	-560.0	-0.4011976047904192	2.370418634043623	-199.0	0.061998757153940376	5.0	3.6721133041538607	-196.0	
9.552397016302306	1873.0	0.28607340467292064	2026.0	2.363444945173607	1279.0	9.613733905579398	-15680.0	0.4316370324954016	-704.0	2.3151440833844266	3776.0	0.0	954.7119140625	31284.0	-0.28043478260869564	772.0	1.2101010101010101	-158.0	-574.0	-0.3732534930139721	1.4563219443423912	-204.0	0.6623081965946227	-31.0	3.757299898427299	-136.0	
9.587887528466146	1874.0	0.16367072120713078	2036.0	2.3505276306895033	1276.0	9.692213366033108	-15808.0	0.4316370324954016	-704.0	2.1974248927038627	3584.0	0.0	974.2431640625	31924.0	-0.26521739130434785	779.0	1.1939393939393939	-166.0	-561.0	-0.3992015968063873	0.5938114030057121	-239.0	1.3607163195237975	-75.0	4.298244395475646	-79.0	
9.661163467634383	1877.0	0.13852822339932	2038.0	2.3148643867898544	1270.0	9.731453096259962	-15872.0	0.39239730226854685	-640.0	2.158185162477008	3520.0	0.0	993.7744140625	32564.0	-0.2782608695652174	773.0	1.2101010101010101	-158.0	-555.0	-0.4111776447105789	2.317191646433668	-253.0	1.5920720342700745	-99.0	4.493938349695359	-191.0	
9.637026197450785	1879.0	0.1394975301065306	2038.0	2.290536321612922	1272.0	9.770692826486817	-15936.0	0.27467811158798283	-448.0	2.2366646229307174	3648.0	0.0	1013.3056640625	33204.0	-0.26956521739130435	777.0	1.197979797979798	-164.0	-571.0	-0.3792415169660679	2.761896633169914	-232.0	1.8737463075549903	-119.0	4.170099664847008	-220.0	
9.57607318879496	1881.0	0.11682499919596473	2040.0	2.265603680675089	1277.0	9.652973635806253	-15744.0	0.23543838136112813	-384.0	2.118945432250153	3456.0	0.0	1032.8369140625	33844.0	-0.26956521739130435	777.0	1.197979797979798	-164.0	-572.0	-0.37724550898203596	1.1041852155153125	-224.0	1.9789974386277158	-118.0	4.065003775221273	-112.0	
9.611335310892889	1888.0	-0.10166904499557447	2058.0	2.179434012056563	1274.0	9.731453096259962	-15872.0	0.07847946045370938	-128.0	2.001226241569589	3264.0	0.0	1052.3681640625	34484.0	-0.2673913043478261	778.0	1.197979797979798	-164.0	-561.0	-0.3992015968063873	0.3323805851001751	-227.0	1.4911598109150412	-82.0	4.11834919795128	-62.0	
9.622800589126532	1887.0	-0.16310493005040233	2063.0	2.1909824987594355	1273.0	9.652973635806253	-15744.0	-0.03923973022685469	64.0	2.118945432250153	3456.0	0.0	1071.8994140625	35124.0	-0.2717391304347826	776.0	1.197979797979798	-164.0	-572.0	-0.37724550898203596	2.1018784058241033	-190.0	0.9707221633485519	-54.0	3.537916577158489	-178.0	
9.574760915163923	1888.0	-0.10093038993286191	2058.0	2.1790756546499006	1277.0	9.613733905579398	-15680.0	0.03923973022685469	-64.0	2.040465971796444	3328.0	0.0	1091.4306640625	35764.0	-0.2782608695652174	773.0	1.195959595959596	-165.0	-548.0	-0.42514970059880247	2.394143553797382	-99.0	0.8858016957946422	-46.0	2.1509635074278055	-198.0	
9.525982101514622	1882.0	-0.02823464847065149	2052.0	2.251603980554535	1281.0	9.692213366033108	-15808.0	0.11771919068056406	-192.0	2.118945432250153	3456.0	0.0	1110.9619140625	36404.0	-0.2717391304347826	776.0	1.2181818181818183	-154.0	-565.0	-0.39121756487025955	1.5718473256262209	-22.0	1.1697876647167444	-58.0	0.9880838081125592	-145.0	
9.47636938216169	1881.0	-0.10062968809453629	2058.0	2.2624320957358517	1285.0	9.496014714898834	-15488.0	0.03923973022685469	-64.0	2.1974248927038627	3584.0	0.0	1130.4931640625	37044.0	-0.2782608695652174	773.0	1.2202020202020203	-153.0	-574.0	-0.3732534930139721	2.2768238271026586	-3.0	1.3571677917970901	-73.0	0.6920606590673765	-191.0	
9.46550098444753	1879.0	0.057612862684144256	2045.0	2.2880022228086654	1286.0	9.496014714898834	-15488.0	0.23543838136112813	-384.0	2.158185162477008	3520.0	0.0	1150.0244140625	37684.0	-0.26304347826086955	780.0	1.1919191919191918	-167.0	-557.0	-0.407185628742515	3.2827134072742807	-42.0	1.593266723734471	-95.0	1.275157656801782	-256.0	
9.454158536365078	1881.0	0.11928718273833988	2040.0	2.2644091559862143	1287.0	9.574494175352545	-15616.0	0.3139178418148375	-512.0	2.0797057020232983	3392.0	0.0	1169.5556640625	38324.0	-0.26956521739130435	777.0	1.2161616161616162	-155.0	-563.0	-0.3952095808383234	0.5987056412811563	-51.0	1.6396658453433566	-86.0	1.4388798637392797	-81.0	
9.586935110170447	1880.0	-0.00556211756008565	2050.0	2.276536621492368	1276.0	9.692213366033108	-15808.0	0.19619865113427343	-320.0	2.1974248927038627	3584.0	0.0	1189.0869140625	38964.0	-0.2673913043478261	778.0	1.204040404040404	-161.0	-572.0	-0.37724550898203596	-0.44215909243791063	-63.0	1.7347946580783185	-88.0	1.6317980167798924	-13.0	
9.489883914933507	1879.0	0.057120425975669215	2045.0	2.2882411277464403	1284.0	9.574494175352545	-15616.0	0.15695892090741875	-256.0	2.1974248927038627	3584.0	0.0	1208.6181640625	39604.0	-0.26956521739130435	777.0	1.2	-163.0	-561.0	-0.3992015968063873	1.9020303906519271	-118.0	2.0329316176977943	-121.0	2.4448580230896786	-165.0	
9.515107227461785	1877.0	0.16586333633065922	2036.0	2.3136771755174417	1282.0	9.53525444512569	-15552.0	0.3531575720416922	-576.0	2.275904353157572	3712.0	0.0	1228.1494140625	40244.0	-0.26956521739130435	777.0	1.2101010101010101	-158.0	-561.0	-0.3992015968063873	1.4086403660401823	-95.0	2.1562264775886635	-126.0	2.0999820374042373	-133.0	
9.588258177699274	1878.0	0.15243421486435738	2037.0	2.3022262010340695	1276.0	9.652973635806253	-15744.0	0.3531575720416922	-576.0	2.158185162477008	3520.0	0.0	1247.6806640625	40884.0	-0.26521739130434785	779.0	1.2	-163.0	-548.0	-0.42514970059880247	-0.23810298130212665	-55.0	2.3101669190722705	-127.0	1.5080844518662533	-26.0	
9.574978511332045	1877.0	0.05492002749727107	2045.0	2.3131664552678104	1277.0	9.652973635806253	-15744.0	0.23543838136112813	-384.0	2.158185162477008	3520.0	0.0	1267.2119140625	41524.0	-0.2608695652173913	781.0	1.2	-163.0	-553.0	-0.41516966067864275	-0.15630402141213515	-88.0	2.3143826733328026	-129.0	2.009167602951764	-31.0	
9.673719105771823	1878.0	0.16290093272493927	2036.0	2.303185477493401	1269.0	9.770692826486817	-15936.0	0.3139178418148375	-512.0	2.118945432250153	3456.0	0.0	1286.7431640625	42164.0	-0.2673913043478261	778.0	1.2161616161616162	-155.0	-558.0	-0.4051896207584831	0.9733194055061168	-168.0	2.0221741400689948	-118.0	3.2146014067053956	-104.0	
9.613125952451336	1879.0	0.18875095217598367	2034.0	2.2907898533836217	1274.0	9.692213366033108	-15808.0	0.39239730226854685	-640.0	2.158185162477008	3520.0	0.0	1306.2744140625	42804.0	-0.26521739130434785	779.0	1.2121212121212122	-157.0	-569.0	-0.38323353293413176	1.003343268068264	-181.0	1.7573031702693798	-101.0	3.412019799258481	-106.0	
9.637146868822416	1879.0	0.1516877764467751	2037.0	2.2906594307900408	1272.0	9.731453096259962	-15872.0	0.3139178418148375	-512.0	2.158185162477008	3520.0	0.0	1325.8056640625	43444.0	-0.26521739130434785	779.0	1.2	-163.0	-557.0	-0.407185628742515	-0.7013327425579975	-187.0	1.5574558517842547	-80.0	3.520321312216455	5.0	
9.66104711382187	1879.0	0.10243435437732201	2041.0	2.2904058990193406	1270.0	9.809932556713672	-16000.0	0.27467811158798283	-448.0	2.2366646229307174	3648.0	0.0	1345.3369140625	44084.0	-0.2717391304347826	776.0	1.2202020202020203	-153.0	-557.0	-0.407185628742515	-0.6005692102406724	-188.0	0.8751716762502902	-35.0	3.5345228023685666	-2.0	
9.63593151998787	1875.0	0.07759255840783694	2043.0	2.338099096205643	1272.0	9.731453096259962	-15872.0	0.23543838136112813	-384.0	2.2366646229307174	3648.0	0.0	1364.8681640625	44724.0	-0.25869565217391305	782.0	1.2181818181818183	-154.0	-568.0	-0.38522954091816375	0.4253570688055109	-189.0	0.6232487972321532	-23.0	3.53947266505339	-69.0	
9.587165659015918	1875.0	0.07857743182478699	2043.0	2.337621286330093	1276.0	9.731453096259962	-15872.0	0.27467811158798283	-448.0	2.2366646229307174	3648.0	0.0	1384.3994140625	45364.0	-0.26304347826086955	780.0	1.202020202020202	-162.0	-569.0	-0.38323353293413176	0.8407726264129064	-197.0	0.6044614580187132	-24.0	3.6569915132795976	-96.0	
9.612272617731682	1875.0	0.15122647315777898	2037.0	2.3385988463305805	1274.0	9.770692826486817	-15936.0	0.3139178418148375	-512.0	2.275904353157572	3712.0	0.0	1403.9306640625	46004.0	-0.26521739130434785	779.0	1.2141414141414142	-156.0	-561.0	-0.3992015968063873	0.3262453145180864	-187.0	1.4859364190117592	-80.0	3.510045531645694	-62.0	
9.685063712633834	1877.0	0.08927480132986695	2042.0	2.314610855019154	1268.0	9.809932556713672	-16000.0	0.19619865113427343	-320.0	2.158185162477008	3520.0	0.0	1423.4619140625	46644.0	-0.26304347826086955	780.0	1.202020202020202	-162.0	-567.0	-0.3872255489021957	0.3728192048703656	-158.0	1.9800975817346012	-112.0	3.0685151539589013	-65.0	
9.661531958087952	1880.0	0.13924352839742335	2038.0	2.2787306464311183	1270.0	9.770692826486817	-15936.0	0.39239730226854685	-640.0	2.118945432250153	3456.0	0.0	1442.9931640625	47284.0	-0.2739130434782609	775.0	1.197979797979798	-164.0	-550.0	-0.4211576846307386	1.4725567032798932	-166.0	1.3289737892644213	-74.0	3.1791907827770873	-137.0	
9.613016074977494	1884.0	0.11680164913135552	2040.0	2.2298282977230155	1274.0	9.809932556713672	-16000.0	0.3531575720416922	-576.0	2.118945432250153	3456.0	0.0	1462.5244140625	47924.0	-0.26521739130434785	779.0	1.2121212121212122	-157.0	-558.0	-0.4051896207584831	1.675718955721806	-195.0	1.2522135996987556	-71.0	3.618223799035938	-150.0	
9.723101276279282	1884.0	0.15115642296395143	2037.0	2.2312726974743597	1265.0	9.849172286940528	-16064.0	0.27467811158798283	-448.0	2.118945432250153	3456.0	0.0	1482.0556640625	48564.0	-0.2565217391304348	783.0	1.1919191919191918	-167.0	-564.0	-0.3932135728542915	0.12648659954688973	-207.0	1.1578372427347556	-58.0	3.8162256283011096	-49.0	
9.649487069571293	1892.0	0.008258257001384717	2049.0	2.132722031578979	1271.0	9.692213366033108	-15808.0	0.11771919068056406	-192.0	2.001226241569589	3264.0	0.0	1501.5869140625	49204.0	-0.2608695652173913	781.0	1.2	-163.0	-555.0	-0.4111776447105789	-0.22458383677162425	-237.0	0.8941557270659152	-40.0	4.27601009692285	-26.0	
9.635963901681244	1890.0	-0.1016846117053139	2058.0	2.1555837567551808	1272.0	9.731453096259962	-15872.0	0.03923973022685469	-64.0	2.040465971796444	3328.0	0.0	1521.1181640625	49844.0	-0.2673913043478261	778.0	1.197979797979798	-164.0	-544.0	-0.4331337325349302	0.5647168318528561	-271.0	-0.5008043399518187	48.0	4.785227356396301	-78.0	
9.50221763934371	1889.0	-0.05045365944709099	2054.0	2.166806796425471	1283.0	9.574494175352545	-15616.0	0.03923973022685469	-64.0	2.158185162477008	3520.0	0.0	1540.6494140625	50484.0	-0.25434782608695655	784.0	1.2141414141414142	-156.0	-567.0	-0.3872255489021957	1.6179106927056504	-262.0	-0.943443941199219	73.0	4.637813288510206	-147.0	
9.575846957508604	1888.0	0.00878182712933867	2049.0	2.180183637243969	1277.0	9.731453096259962	-15872.0	0.15695892090741875	-256.0	2.158185162477008	3520.0	0.0	1560.1806640625	51124.0	-0.25869565217391305	782.0	1.206060606060606	-160.0	-558.0	-0.4051896207584831	1.0407496852628302	-174.0	-0.5348948346975503	52.0	3.305181856759539	-110.0	
9.502577494679045	1888.0	-0.0019311090854807478	2050.0	2.179343813253525	1283.0	9.574494175352545	-15616.0	0.23543838136112813	-384.0	2.0797057020232983	3392.0	0.0	1579.7119140625	51764.0	-0.26956521739130435	777.0	1.208080808080808	-159.0	-566.0	-0.3892215568862276	-0.2306723931228113	-61.0	-0.10779354342735378	34.0	1.5992648988361713	-28.0	
9.453559497066038	1883.0	0.03443232835536392	2047.0	2.2394582315072253	1287.0	9.574494175352545	-15616.0	0.19619865113427343	-320.0	2.118945432250153	3456.0	0.0	1599.2431640625	52404.0	-0.26304347826086955	780.0	1.2	-163.0	-558.0	-0.4051896207584831	0.07507348530257693	-47.0	-0.015608820062719568	27.0	1.383279683397925	-48.0	
9.49061441950197	1882.0	0.09440646999450614	2042.0	2.2524767149190605	1284.0	9.613733905579398	-15680.0	0.19619865113427343	-320.0	2.118945432250153	3456.0	0.0	1618.7744140625	53044.0	-0.25869565217391305	782.0	1.202020202020202	-162.0	-555.0	-0.4111776447105789	0.8438143947437923	-23.0	0.4852177080289793	-9.0	1.0105732628966686	-98.0	
9.57619386016659	1881.0	0.12901524553620924	2039.0	2.265726789852208	1277.0	9.652973635806253	-15744.0	0.3139178418148375	-512.0	2.1974248927038627	3584.0	0.0	1638.3056640625	53684.0	-0.26521739130434785	779.0	1.1797979797979798	-173.0	-557.0	-0.407185628742515	0.13210638087995538	-25.0	1.4180935768953096	-68.0	1.0481085939858772	-51.0	
9.588626668152841	1881.0	0.15314951986246075	2037.0	2.266092460675333	1276.0	9.692213366033108	-15808.0	0.3531575720416922	-576.0	2.1974248927038627	3584.0	0.0	1657.8369140625	54324.0	-0.25869565217391305	782.0	1.2161616161616162	-155.0	-569.0	-0.38323353293413176	-0.09244473688227775	-35.0	1.8324362857008474	-95.0	1.2024453599163514	-36.0	
9.698231342747663	1882.0	0.12679149699320189	2039.0	2.2548767344215044	1267.0	9.888412017167381	-16128.0	0.3531575720416922	-576.0	2.118945432250153	3456.0	0.0	1677.3681640625	54964.0	-0.25869565217391305	782.0	1.202020202020202	-162.0	-553.0	-0.41516966067864275	-0.15010625054337473	-50.0	1.977249089247748	-105.0	1.4311588571822398	-32.0	
9.698347696560178	1880.0	0.16288536601519985	2036.0	2.2793352221920182	1267.0	9.731453096259962	-15872.0	0.3139178418148375	-512.0	2.1974248927038627	3584.0	0.0	1696.8994140625	55604.0	-0.2673913043478261	778.0	1.2181818181818183	-154.0	-552.0	-0.4171656686626747	-0.20922170289540515	-92.0	1.566007096481696	-79.0	2.0705332816677373	-28.0	
9.711508850335333	1882.0	0.23625749570116494	2030.0	2.256104169484461	1266.0	9.770692826486817	-15936.0	0.4316370324954016	-704.0	2.2366646229307174	3648.0	0.0	1716.4306640625	56244.0	-0.25434782608695655	784.0	1.2141414141414142	-156.0	-568.0	-0.38522954091816375	1.2115556023776763	-97.0	0.8343940135183431	-37.0	2.1323711359914324	-121.0	
9.735411254114343	1883.0	0.17505226229083515	2035.0	2.2436829484170633	1264.0	9.809932556713672	-16000.0	0.27467811158798283	-448.0	2.118945432250153	3456.0	0.0	1735.9619140625	56884.0	-0.25869565217391305	782.0	1.206060606060606	-160.0	-561.0	-0.3992015968063873	0.21076545693644533	-133.0	-0.03239486167903999	24.0	2.689907554556111	-56.0	
9.748208234995046	1884.0	0.22380546429694342	2031.0	2.2322502574748473	1263.0	9.849172286940528	-16064.0	0.3531575720416922	-576.0	2.118945432250153	3456.0	0.0	1755.4931640625	57524.0	-0.2565217391304348	783.0	1.208080808080808	-159.0	-571.0	-0.3792415169660679	0.7794451872466315	-168.0	-0.4830728440253025	50.0	3.21654014888799	-93.0	
9.698836858385377	1883.0	0.17579091735354774	2035.0	2.2433245910104005	1267.0	9.849172286940528	-16064.0	0.39239730226854685	-640.0	2.118945432250153	3456.0	0.0	1775.0244140625	58164.0	-0.2565217391304348	783.0	1.2	-163.0	-567.0	-0.3872255489021957	0.6505407189685847	-185.0	-1.3540085157476487	108.0	3.476384326650619	-85.0	
9.66177761839033	1882.0	0.13972039839615893	2038.0	2.254641486191961	1270.0	9.770692826486817	-15936.0	0.27467811158798283	-448.0	2.118945432250153	3456.0	0.0	1794.5556640625	58804.0	-0.2608695652173913	781.0	1.2	-163.0	-557.0	-0.407185628742515	0.6097074822618912	-240.0	-1.6694841697328828	127.0	4.31329456015837	-82.0	
9.600216935317233	1882.0	0.08000025846612399	2043.0	2.2534286779619292	1275.0	9.692213366033108	-15808.0	0.3139178418148375	-512.0	2.118945432250153	3456.0	0.0	1814.0869140625	59444.0	-0.26521739130434785	779.0	1.1919191919191918	-167.0	-536.0	-0.44910179640718567	0.5956169762188448	-266.0	-1.9391935247247243	144.0	4.708872727576215	-81.0	
9.612289887968148	1883.0	0.055611982430765206	2045.0	2.241257331957	1274.0	9.692213366033108	-15808.0	0.27467811158798283	-448.0	2.158185162477008	3520.0	0.0	1833.6181640625	60084.0	-0.25	786.0	1.2181818181818183	-154.0	-556.0	-0.40918163672654695	1.4319154719735037	-263.0	-1.1410020913290362	87.0	4.654882366192813	-135.0	
9.489763243561876	1879.0	0.0449301796354247	2046.0	2.2881180185693215	1284.0	9.613733905579398	-15680.0	0.3139178418148375	-512.0	2.1974248927038627	3584.0	0.0	1853.1494140625	60724.0	-0.25	786.0	1.204040404040404	-161.0	-547.0	-0.4271457085828344	1.4724569257302995	-206.0	-0.8242893992124661	68.0	3.78755679956399	-138.0	
9.526098455327137	1880.0	0.00785922055134644	2049.0	2.276062468325049	1281.0	9.652973635806253	-15744.0	0.11771919068056406	-192.0	2.1974248927038627	3584.0	0.0	1872.6806640625	61364.0	-0.25434782608695655	784.0	1.2141414141414142	-156.0	-557.0	-0.407185628742515	0.8743055842207842	-170.0	-0.23601929397458546	33.0	3.2460097958688188	-99.0	
9.488912067621783	1876.0	-0.004546110723656682	2050.0	2.323759322219583	1284.0	9.613733905579398	-15680.0	0.15695892090741875	-256.0	2.2366646229307174	3648.0	0.0	1892.2119140625	62004.0	-0.26304347826086955	780.0	1.1939393939393939	-166.0	-556.0	-0.40918163672654695	1.6604964179459876	-142.0	0.5358912469292603	-21.0	2.812292374223582	-150.0	
9.575215536516192	1875.0	0.10320414285951349	2041.0	2.337748052215443	1277.0	9.692213366033108	-15808.0	0.3139178418148375	-512.0	2.1974248927038627	3584.0	0.0	1911.7431640625	62644.0	-0.24782608695652175	787.0	1.195959595959596	-165.0	-557.0	-0.407185628742515	2.0770378406988885	-92.0	1.5118309584844145	-86.0	2.0476706862317946	-177.0	
9.53913893773066	1882.0	0.06904110389706705	2044.0	2.2527083064403732	1280.0	9.613733905579398	-15680.0	0.23543838136112813	-384.0	2.118945432250153	3456.0	0.0	1931.2744140625	63284.0	-0.25869565217391305	782.0	1.208080808080808	-159.0	-568.0	-0.38522954091816375	1.132747782270547	-27.0	1.6920597915273983	-91.0	1.0685204309225418	-116.0	
9.64873497720725	1879.0	0.09049032639131507	2042.0	2.2901633373733343	1271.0	9.770692826486817	-15936.0	0.19619865113427343	-320.0	2.1974248927038627	3584.0	0.0	1950.8056640625	63924.0	-0.24782608695652175	787.0	1.2161616161616162	-155.0	-567.0	-0.3872255489021957	1.8648744360399325	-28.0	1.2207053064585114	-63.0	1.076408289860133	-164.0	
9.515839890809806	1881.0	0.1911975690086194	2034.0	2.265745073393364	1282.0	9.574494175352545	-15616.0	0.23543838136112813	-384.0	2.0797057020232983	3392.0	0.0	1970.3369140625	64564.0	-0.25	786.0	1.208080808080808	-159.0	-554.0	-0.4131736526946108	3.082911634814741	-73.0	1.0935609878201455	-62.0	1.7486385642602178	-243.0	
9.527184497671819	1880.0	0.11757143761354699	2040.0	2.277170450919118	1281.0	9.574494175352545	-15616.0	0.39239730226854685	-640.0	2.1974248927038627	3584.0	0.0	1989.8681640625	65204.0	-0.2565217391304348	783.0	1.1939393939393939	-166.0	-538.0	-0.4451097804391218	1.0129277286105391	-96.0	0.9387819010403029	-43.0	2.1191482892538187	-108.0	
9.514508188162747	1879.0	0.08100848194768323	2043.0	2.2887262510384527	1282.0	9.53525444512569	-15552.0	0.23543838136112813	-384.0	2.118945432250153	3456.0	0.0	2009.3994140625	308.0	-0.25	786.0	1.202020202020202	-162.0	-560.0	-0.4011976047904192	0.5143455161861864	-122.0	1.3324783262338895	-68.0	2.519571373735477	-75.0	
9.539136778951102	1881.0	0.08099291523794377	2043.0	2.2648759957370705	1280.0	9.652973635806253	-15744.0	0.15695892090741875	-256.0	2.118945432250153	3456.0	0.0	2028.9306640625	948.0	-0.25434782608695655	784.0	1.202020202020202	-162.0	-545.0	-0.43113772455089827	1.2850584485684857	-130.0	1.5438348534542572	-86.0	2.6335372482139348	-125.0	
9.56413170141347	1885.0	0.09364446486718442	2042.0	2.217059689373649	1278.0	9.613733905579398	-15680.0	0.27467811158798283	-448.0	2.158185162477008	3520.0	0.0	2048.4619140625	1588.0	-0.25	786.0	1.2181818181818183	-154.0	-556.0	-0.40918163672654695	0.8557922200039226	-125.0	1.6667086305461634	-92.0	2.561784283123155	-97.0	
9.624720537174841	1882.0	0.09169806809789346	2042.0	2.253790692076823	1273.0	9.692213366033108	-15808.0	0.23543838136112813	-384.0	2.118945432250153	3456.0	0.0	2067.9931640625	2228.0	-0.25434782608695655	784.0	1.208080808080808	-159.0	-560.0	-0.4011976047904192	0.017502129722569808	-101.0	1.079984216368478	-48.0	2.205148172619124	-43.0	
9.649474116893945	1886.0	0.07996912504664508	2043.0	2.2057281673591644	1271.0	9.770692826486817	-15936.0	0.27467811158798283	-448.0	2.040465971796444	3328.0	0.0	2087.5244140625	2868.0	-0.24347826086956523	789.0	1.1939393939393939	-166.0	-553.0	-0.41516966067864275	-0.21009599000366594	-124.0	0.9918776275754061	-42.0	2.5572340397479456	-28.0	
9.625207540220483	1884.0	0.116555430777118	2040.0	2.2299477501919034	1273.0	9.770692826486817	-15936.0	0.23543838136112813	-384.0	2.118945432250153	3456.0	0.0	2107.0556640625	3508.0	-0.24565217391304348	788.0	1.2121212121212122	-157.0	-569.0	-0.38323353293413176	-0.37800968700513365	-151.0	0.6722959866627557	-21.0	2.96955956455066	-17.0	
9.63715334516109	1882.0	0.11583234242414495	2040.0	2.2541563628999484	1272.0	9.731453096259962	-15872.0	0.27467811158798283	-448.0	2.2366646229307174	3648.0	0.0	2126.5869140625	4148.0	-0.25	786.0	1.206060606060606	-160.0	-568.0	-0.38522954091816375	0.0646499665061399	-155.0	0.36918834723605853	-3.0	3.025969469916688	-46.0	
9.588021152515129	1880.0	0.1041500995021149	2041.0	2.277644604086437	1276.0	9.613733905579398	-15680.0	0.27467811158798283	-448.0	2.118945432250153	3456.0	0.0	2146.1181640625	4788.0	-0.25	786.0	1.208080808080808	-159.0	-557.0	-0.407185628742515	0.44914282679896367	-150.0	0.5253795142322464	-15.0	2.946078913937334	-71.0	
9.576555874281484	1881.0	0.1655859845569428	2036.0	2.2660961173835643	1277.0	9.692213366033108	-15808.0	0.39239730226854685	-640.0	2.1974248927038627	3584.0	0.0	2165.6494140625	5428.0	-0.24782608695652175	787.0	1.2181818181818183	-154.0	-562.0	-0.39720558882235535	0.37073459968689054	-131.0	0.6473431884373448	-22.0	2.6578896121780367	-66.0	
9.649103467660817	1882.0	0.09120563138941845	2042.0	2.2540295970145983	1271.0	9.652973635806253	-15744.0	0.19619865113427343	-320.0	2.158185162477008	3520.0	0.0	2185.1806640625	6068.0	-0.25	786.0	1.208080808080808	-159.0	-556.0	-0.40918163672654695	-0.2267097086091827	-144.0	0.5610765370625957	-14.0	2.861582686439704	-27.0	
9.613128111230893	1880.0	0.17679914083510695	2035.0	2.2786221640869244	1274.0	9.692213366033108	-15808.0	0.3531575720416922	-576.0	2.1974248927038627	3584.0	0.0	2204.7119140625	6708.0	-0.24565217391304348	788.0	1.206060606060606	-160.0	-557.0	-0.407185628742515	0.992257639455027	-181.0	0.6486294526595419	-27.0	3.4121306555446136	-106.0	
9.601423649033546	1882.0	0.20190272186856908	2033.0	2.254659769733117	1275.0	9.692213366033108	-15808.0	0.4316370324954016	-704.0	2.118945432250153	3456.0	0.0	2224.2431640625	7348.0	-0.25217391304347825	785.0	1.2161616161616162	-155.0	-567.0	-0.3872255489021957	0.5193616885155821	-180.0	0.9520164433302056	-45.0	3.401650489578723	-75.0	
9.687003089698166	1881.0	0.23651149741027216	2030.0	2.2679098446662644	1268.0	9.849172286940528	-16064.0	0.39239730226854685	-640.0	2.158185162477008	3520.0	0.0	2243.7744140625	7988.0	-0.24782608695652175	787.0	1.2101010101010101	-158.0	-569.0	-0.38323353293413176	-0.050538912292471656	-189.0	0.6113936462721951	-20.0	3.5442316248643695	-38.0	
9.663225674849905	1882.0	0.2860033544790931	2026.0	2.2561187963173857	1270.0	9.692213366033108	-15808.0	0.4316370324954016	-704.0	2.158185162477008	3520.0	0.0	2263.3056640625	8628.0	-0.24565217391304348	788.0	1.206060606060606	-160.0	-543.0	-0.43512974051896214	0.12720929002882023	-252.0	0.5457028714447885	-19.0	4.500629047784123	-49.0	
9.625688066927449	1883.0	0.1772682274789728	2035.0	2.242607876197076	1273.0	9.692213366033108	-15808.0	0.4316370324954016	-704.0	2.1974248927038627	3584.0	0.0	2282.8369140625	9268.0	-0.25	786.0	1.2141414141414142	-156.0	-568.0	-0.38522954091816375	0.4208523426207345	-292.0	0.1411106242689126	5.0	5.10605763626961	-68.0	
9.686289855366171	1886.0	0.10361096266442149	2041.0	2.2063327431200643	1268.0	9.770692826486817	-15936.0	0.3139178418148375	-512.0	2.040465971796444	3328.0	0.0	2302.3681640625	9908.0	-0.23478260869565218	793.0	1.2	-163.0	-566.0	-0.3892215568862276	0.39968480254211364	-351.0	0.19664537142546723	-1.0	6.0036077147122215	-66.0	
9.58875165708359	1883.0	0.1414361435209518	2038.0	2.2418801912590567	1276.0	9.692213366033108	-15808.0	0.27467811158798283	-448.0	2.118945432250153	3456.0	0.0	2321.8994140625	10548.0	-0.25	786.0	1.204040404040404	-161.0	-556.0	-0.40918163672654695	1.3995664937624166	-394.0	-0.22894117255972696	21.0	6.647601293237282	-131.0	
9.624961879918104	1882.0	0.11607856077838244	2040.0	2.2540369104310605	1273.0	9.652973635806253	-15744.0	0.23543838136112813	-384.0	2.1974248927038627	3584.0	0.0	2341.4306640625	11188.0	-0.25434782608695655	784.0	1.195959595959596	-165.0	-535.0	-0.4510978043912176	0.9488084371036458	-354.0	-0.1882263148039462	22.0	6.043743854792462	-102.0	
9.624597707023652	1881.0	0.09145963309852567	2042.0	2.2658352721964015	1273.0	9.731453096259962	-15872.0	0.39239730226854685	-640.0	2.118945432250153	3456.0	0.0	2360.9619140625	11828.0	-0.2326086956521739	794.0	1.197979797979798	-164.0	-566.0	-0.3892215568862276	1.0120401652912159	-332.0	0.3305019147687317	-12.0	5.708510777054312	-106.0	
9.539386756812597	1885.0	0.05756616255492589	2045.0	2.216451456904518	1280.0	9.613733905579398	-15680.0	0.15695892090741875	-256.0	2.118945432250153	3456.0	0.0	2380.4931640625	12468.0	-0.24347826086956523	789.0	1.206060606060606	-160.0	-547.0	-0.4271457085828344	2.1648568939274506	-333.0	0.4895375654066534	-28.0	5.712191735243236	-181.0	
9.588148300225434	1883.0	0.08048491181972928	2043.0	2.241264645373463	1276.0	9.770692826486817	-15936.0	0.3531575720416922	-576.0	2.158185162477008	3520.0	0.0	2400.0244140625	13108.0	-0.24782608695652175	787.0	1.2222222222222223	-152.0	-568.0	-0.38522954091816375	2.4334314180469194	-357.0	0.8910266267673166	-57.0	6.074525001408885	-198.0	
9.576198177725708	1883.0	0.1051116228544558	2041.0	2.241391411258813	1277.0	9.652973635806253	-15744.0	0.23543838136112813	-384.0	2.118945432250153	3456.0	0.0	2419.5556640625	13748.0	-0.2391304347826087	791.0	1.2161616161616162	-155.0	-567.0	-0.3872255489021957	2.3781031062435702	-350.0	1.6037837085638287	-104.0	5.968614406199922	-194.0	
9.575353478124288	1883.0	0.01977989847274425	2048.0	2.2405296470189815	1277.0	9.731453096259962	-15872.0	0.19619865113427343	-320.0	2.0797057020232983	3392.0	0.0	2439.0869140625	14388.0	-0.23695652173913043	792.0	1.197979797979798	-164.0	-553.0	-0.41516966067864275	1.450585462588491	-301.0	1.683156318745655	-103.0	5.2326424343474995	-134.0	
9.526587617152336	1883.0	0.020764771889694278	2048.0	2.2400518371434313	1281.0	9.652973635806253	-15744.0	0.19619865113427343	-320.0	2.1974248927038627	3584.0	0.0	2458.6181640625	15028.0	-0.24347826086956523	789.0	1.2141414141414142	-156.0	-566.0	-0.3892215568862276	2.2169490509421843	-272.0	2.022272592250717	-128.0	4.783914159680693	-184.0	
9.45368016843767	1883.0	0.04662257469560843	2046.0	2.239581340684344	1287.0	9.574494175352545	-15616.0	0.23543838136112813	-384.0	2.158185162477008	3520.0	0.0	2478.1494140625	15668.0	-0.23043478260869565	795.0	1.2222222222222223	-152.0	-566.0	-0.3892215568862276	3.5891471336893455	-268.0	2.708811260670109	-180.0	4.709355676952081	-273.0	
9.612654060862601	1884.0	0.08023091011062203	2043.0	2.229458970191659	1274.0	9.731453096259962	-15872.0	0.23543838136112813	-384.0	2.158185162477008	3520.0	0.0	2497.6806640625	16308.0	-0.24130434782608695	790.0	1.208080808080808	-159.0	-553.0	-0.41516966067864275	2.7623686034947097	-250.0	3.1821032179132613	-207.0	4.443859203698893	-219.0	
9.673609228297984	1883.0	0.09095162968031117	2042.0	2.242223921832794	1269.0	9.770692826486817	-15936.0	0.23543838136112813	-384.0	2.158185162477008	3520.0	0.0	2517.2119140625	16948.0	-0.24347826086956523	789.0	1.2141414141414142	-156.0	-555.0	-0.4111776447105789	1.9624826097557915	-203.0	3.7161435514148042	-237.0	3.7370291662978796	-167.0	
9.686408367958244	1885.0	0.12775302034554273	2039.0	2.2186235415938804	1268.0	9.809932556713672	-16000.0	0.3139178418148375	-512.0	2.0797057020232983	3392.0	0.0	2536.7431640625	17588.0	-0.2391304347826087	791.0	1.202020202020202	-162.0	-563.0	-0.3952095808383234	2.110766771937435	-139.0	2.6353130575823727	-163.0	2.7621622942578123	-178.0	
9.7231055938384	1886.0	0.127252800282198	2039.0	2.2069373188809647	1265.0	9.849172286940528	-16064.0	0.3139178418148375	-512.0	2.040465971796444	3328.0	0.0	2556.2744140625	18228.0	-0.2391304347826087	791.0	1.197979797979798	-164.0	-547.0	-0.4271457085828344	2.719650262990486	-165.0	1.7375370662157312	-107.0	3.151510721704696	-218.0	
9.63825234018312	1888.0	0.1538336914410852	2037.0	2.182258209713832	1272.0	9.770692826486817	-15936.0	0.3139178418148375	-512.0	2.001226241569589	3264.0	0.0	2575.8056640625	18868.0	-0.24347826086956523	789.0	1.208080808080808	-159.0	-539.0	-0.44311377245508987	2.212628040087583	-204.0	1.0894294122707873	-63.0	3.7497368374698468	-185.0	
9.638250181403562	1887.0	0.1657855027819619	2036.0	2.1944258990105294	1272.0	9.770692826486817	-15936.0	0.3531575720416922	-576.0	2.0797057020232983	3392.0	0.0	2595.3369140625	19508.0	-0.23478260869565218	793.0	1.2202020202020203	-153.0	-557.0	-0.407185628742515	0.7687170808074996	-239.0	0.434000155713111	-14.0	4.296495338697629	-91.0	
9.588273289156183	1885.0	0.06877153547822035	2044.0	2.2170523759571865	1276.0	9.770692826486817	-15936.0	0.23543838136112813	-384.0	2.0797057020232983	3392.0	0.0	2614.8681640625	20148.0	-0.2326086956521739	794.0	1.2101010101010101	-158.0	-544.0	-0.4331337325349302	1.1979754807378182	-246.0	0.2799251859598735	-6.0	4.398666633025322	-119.0	
9.624595548244095	1880.0	0.10341144443940234	2041.0	2.2780029614930997	1273.0	9.692213366033108	-15808.0	0.27467811158798283	-448.0	2.118945432250153	3456.0	0.0	2634.3994140625	20788.0	-0.2326086956521739	794.0	1.202020202020202	-162.0	-562.0	-0.39720558882235535	2.520625981452586	-227.0	0.8441053076407576	-49.0	4.096466743987755	-205.0	
9.515727854556408	1885.0	0.13120007730486796	2039.0	2.2169512070294553	1282.0	9.652973635806253	-15744.0	0.3139178418148375	-512.0	2.1974248927038627	3584.0	0.0	2653.9306640625	21428.0	-0.2217391304347826	799.0	1.2121212121212122	-157.0	-558.0	-0.4051896207584831	2.0544476764663115	-170.0	1.1361156799733416	-64.0	3.234208374946364	-175.0	
9.53951822208202	1890.0	0.00999735219078679	2049.0	2.1557361195981493	1280.0	9.652973635806253	-15744.0	0.23543838136112813	-384.0	2.040465971796444	3328.0	0.0	2673.4619140625	22068.0	-0.2282608695652174	796.0	1.202020202020202	-162.0	-551.0	-0.4191616766467066	0.8435797932910301	-207.0	0.7331149627470152	-33.0	3.809054696363668	-96.0	
9.600951757444811	1887.0	0.09338267980320741	2042.0	2.193328886541154	1275.0	9.731453096259962	-15872.0	0.27467811158798283	-448.0	2.0797057020232983	3392.0	0.0	2692.9931640625	22708.0	-0.23478260869565218	793.0	1.2161616161616162	-155.0	-554.0	-0.4131736526946108	0.9371271669906448	-200.0	0.9857351843887426	-50.0	3.7016553442996756	-102.0	
9.552547910587752	1887.0	0.13093829224089099	2039.0	2.1932204041969605	1279.0	9.574494175352545	-15616.0	0.27467811158798283	-448.0	2.001226241569589	3264.0	0.0	2712.5244140625	23348.0	-0.22608695652173913	797.0	1.204040404040404	-161.0	-561.0	-0.3992015968063873	0.36454857176949645	-166.0	1.0312785615143965	-49.0	3.1902708640921915	-65.0	
9.637769654696596	1888.0	0.10507270608010713	2041.0	2.181765773005357	1272.0	9.692213366033108	-15808.0	0.27467811158798283	-448.0	2.1974248927038627	3584.0	0.0	2732.0556640625	23988.0	-0.22391304347826088	798.0	1.202020202020202	-162.0	-535.0	-0.4510978043912176	-0.2365067328047637	-183.0	0.5230396704570375	-13.0	3.454836550217782	-26.0	
9.613259576500315	1885.0	0.12923033047096782	2039.0	2.2179068267805553	1274.0	9.770692826486817	-15936.0	0.3531575720416922	-576.0	2.158185162477008	3520.0	0.0	2751.5869140625	24628.0	-0.2326086956521739	794.0	1.2161616161616162	-155.0	-565.0	-0.39121756487025955	0.7279296253775582	-182.0	0.29160572371717397	-2.0	3.429983061160673	-89.0	
9.589598515464568	1884.0	0.21481605656178662	2032.0	2.230574266202191	1276.0	9.613733905579398	-15680.0	0.39239730226854685	-640.0	2.118945432250153	3456.0	0.0	2771.1181640625	25268.0	-0.2217391304347826	799.0	1.2161616161616162	-155.0	-564.0	-0.3932135728542915	0.5901913875645679	-145.0	0.8934169532011657	-40.0	2.868622800953252	-80.0	
9.674826735912086	1888.0	0.15309503637837263	2037.0	2.1826165671204945	1269.0	9.731453096259962	-15872.0	0.39239730226854685	-640.0	2.118945432250153	3456.0	0.0	2790.6494140625	25908.0	-0.22608695652173913	797.0	1.2121212121212122	-157.0	-543.0	-0.43512974051896214	0.14378267493440303	-142.0	0.806372064672252	-32.0	2.8274595116536982	-51.0	
9.613737944427724	1883.0	0.20189493851369933	2033.0	2.2427346420824255	1274.0	9.692213366033108	-15808.0	0.3531575720416922	-576.0	2.1974248927038627	3584.0	0.0	2810.1806640625	26548.0	-0.23695652173913043	792.0	1.197979797979798	-164.0	-553.0	-0.41516966067864275	0.604905664420061	-151.0	0.7388176119366956	-30.0	2.959730411036408	-81.0	
9.626293582565165	1884.0	0.22626764783931858	2031.0	2.2310557327859724	1273.0	9.692213366033108	-15808.0	0.4316370324954016	-704.0	2.158185162477008	3520.0	0.0	2829.7119140625	27188.0	-0.21739130434782608	801.0	1.2101010101010101	-158.0	-554.0	-0.4131736526946108	1.0347074253375221	-134.0	1.004103185914427	-49.0	2.6968772603473856	-109.0	
9.52912387473615	1884.0	0.2648081336939523	2028.0	2.2304694405662278	1281.0	9.613733905579398	-15680.0	0.4316370324954016	-704.0	2.0797057020232983	3392.0	0.0	2849.2431640625	27828.0	-0.22608695652173913	797.0	1.206060606060606	-160.0	-543.0	-0.43512974051896214	1.2963702496946938	-125.0	1.2162542947321595	-64.0	2.5573785028262472	-126.0	
9.540966278541594	1890.0	0.15628030827372089	2037.0	2.1572134297235745	1280.0	9.652973635806253	-15744.0	0.39239730226854685	-640.0	2.040465971796444	3328.0	0.0	2868.7744140625	28468.0	-0.2282608695652174	796.0	1.2141414141414142	-156.0	-551.0	-0.4191616766467066	0.9845724918754939	-178.0	1.4605846363869122	-81.0	3.3665801305945533	-105.0	
9.650312340156688	1883.0	0.2011562834509868	2033.0	2.2430929994890882	1271.0	9.731453096259962	-15872.0	0.3531575720416922	-576.0	2.158185162477008	3520.0	0.0	2888.3056640625	29108.0	-0.21739130434782608	801.0	1.204040404040404	-161.0	-552.0	-0.4171656686626747	0.5352656501192475	-212.0	2.055879628103671	-120.0	3.8881834651718115	-75.0	
9.601546479184735	1883.0	0.20214115686793688	2033.0	2.242615189613538	1275.0	9.692213366033108	-15808.0	0.3531575720416922	-576.0	2.158185162477008	3520.0	0.0	2907.8369140625	29748.0	-0.23043478260869565	795.0	1.195959595959596	-165.0	-542.0	-0.43712574850299407	1.727650625734534	-175.0	2.145324176985528	-130.0	3.3135219728301077	-153.0	
9.650680830610257	1886.0	0.20187158844909017	2033.0	2.206959259130352	1271.0	9.770692826486817	-15936.0	0.39239730226854685	-640.0	2.158185162477008	3520.0	0.0	2927.3681640625	30388.0	-0.22608695652173913	797.0	1.208080808080808	-159.0	-563.0	-0.3952095808383234	0.9423017028391837	-141.0	2.4005789176429433	-142.0	2.804265195899365	-102.0	
9.687009566036842	1884.0	0.20065606338764203	2033.0	2.231406776776172	1268.0	9.731453096259962	-15872.0	0.3531575720416922	-576.0	2.118945432250153	3456.0	0.0	2946.8994140625	31028.0	-0.23043478260869565	795.0	1.204040404040404	-161.0	-554.0	-0.4131736526946108	1.2768416829531761	-148.0	1.9832312824426557	-116.0	2.9073836744252217	-124.0	
9.626302217683396	1888.0	0.1784604024758117	2035.0	2.182384975599182	1273.0	9.692213366033108	-15808.0	0.19619865113427343	-320.0	2.118945432250153	3456.0	0.0	2966.4306640625	31668.0	-0.2217391304347826	799.0	1.2101010101010101	-158.0	-542.0	-0.43712574850299407	1.9029576873656375	-149.0	1.654187672302144	-97.0	2.9163316398563817	-165.0	
9.73639389532386	1891.0	0.17695974228577743	2035.0	2.147326307460433	1264.0	9.770692826486817	-15936.0	0.3531575720416922	-576.0	2.001226241569589	3264.0	0.0	2985.9619140625	32308.0	-0.22608695652173913	797.0	1.1939393939393939	-166.0	-555.0	-0.4111776447105789	1.2915844217699552	-185.0	1.359995532192548	-76.0	3.469973889622605	-125.0	
9.687261702677894	1889.0	0.16527749936374742	2036.0	2.1708145486469217	1268.0	9.692213366033108	-15808.0	0.27467811158798283	-448.0	2.0797057020232983	3392.0	0.0	3005.4931640625	32948.0	-0.21956521739130436	800.0	1.206060606060606	-160.0	-543.0	-0.43512974051896214	1.6225525487769816	-186.0	0.6766816206163065	-32.0	3.48187333382782	-147.0	
9.613750897105072	1889.0	0.13018407046843897	2039.0	2.1697285063022402	1274.0	9.731453096259962	-15872.0	0.27467811158798283	-448.0	2.0797057020232983	3392.0	0.0	3025.0244140625	33588.0	-0.22391304347826088	798.0	1.202020202020202	-162.0	-541.0	-0.439121756487026	1.5120712115606671	-180.0	0.46313375557874137	-17.0	3.391723394348272	-140.0	
9.626425047834585	1889.0	0.1786988374751795	2035.0	2.170340395479603	1273.0	9.692213366033108	-15808.0	0.3531575720416922	-576.0	2.001226241569589	3264.0	0.0	3044.5556640625	34228.0	-0.22608695652173913	797.0	1.2161616161616162	-155.0	-550.0	-0.4211576846307386	1.310482450806213	-170.0	0.40828546477673583	-12.0	3.2416480272029644	-127.0	
9.553045707531185	1894.0	0.09603659821573199	2042.0	2.108539015828553	1279.0	9.692213366033108	-15808.0	0.23543838136112813	-384.0	2.040465971796444	3328.0	0.0	3064.0869140625	34868.0	-0.22608695652173913	797.0	1.202020202020202	-162.0	-542.0	-0.43712574850299407	0.9723079885113012	-173.0	0.31005728231041996	-4.0	3.2906571482517695	-105.0	
9.601574543318991	1896.0	0.04676760943653943	2046.0	2.0844352287564702	1275.0	9.770692826486817	-15936.0	0.3531575720416922	-576.0	1.9619865113427344	3200.0	0.0	3083.6181640625	35508.0	-0.21739130434782608	801.0	1.1939393939393939	-166.0	-548.0	-0.42514970059880247	1.2447618059561216	-201.0	1.0386779672383637	-55.0	3.713788123385306	-122.0	
9.61436504786102	1894.0	0.1313762454652779	2039.0	2.1095056057043466	1274.0	9.731453096259962	-15872.0	0.27467811158798283	-448.0	1.9619865113427344	3200.0	0.0	3103.1494140625	36148.0	-0.22391304347826088	798.0	1.2121212121212122	-157.0	-564.0	-0.3932135728542915	1.8920963653570728	-192.0	1.4488738795189382	-85.0	3.5704326485137297	-164.0	
9.54061505832449	1895.0	0.05995051254860373	2045.0	2.0960056557087303	1280.0	9.613733905579398	-15680.0	0.3139178418148375	-512.0	1.9619865113427344	3200.0	0.0	3122.6806640625	36788.0	-0.21304347826086956	803.0	1.2101010101010101	-158.0	-561.0	-0.3992015968063873	2.1195406361868336	-108.0	0.9144312774373595	-47.0	2.2905916658814776	-180.0	
9.564995830030911	1894.0	0.07140988718100547	2044.0	2.108412249943203	1278.0	9.692213366033108	-15808.0	0.23543838136112813	-384.0	1.9619865113427344	3200.0	0.0	3142.2119140625	37428.0	-0.2282608695652174	796.0	1.204040404040404	-161.0	-551.0	-0.4191616766467066	1.6611218508054122	-35.0	0.6908977963252204	-27.0	1.1849096940394745	-151.0	
9.614492195571327	1897.0	0.10771105778289222	2041.0	2.073125646991373	1274.0	9.692213366033108	-15808.0	0.27467811158798283	-448.0	1.9619865113427344	3200.0	0.0	3161.7431640625	38068.0	-0.21739130434782608	801.0	1.183838383838384	-171.0	-554.0	-0.4131736526946108	0.7541061094568771	-6.0	0.9815637299481723	-41.0	0.7529152126696899	-92.0	
9.578154825026505	1895.0	0.15673382820784726	2037.0	2.097348886532343	1277.0	9.692213366033108	-15808.0	0.27467811158798283	-448.0	1.9619865113427344	3200.0	0.0	3181.2744140625	38708.0	-0.21521739130434783	802.0	1.197979797979798	-164.0	-549.0	-0.42315369261477054	0.7536488634464206	-8.0	0.9054163054918477	-36.0	0.7833380360803648	-92.0	
9.602654109324998	1893.0	0.1923352605213702	2034.0	2.1220462792406316	1275.0	9.692213366033108	-15808.0	0.3139178418148375	-512.0	2.0797057020232983	3392.0	0.0	3200.8056640625	39348.0	-0.2108695652173913	804.0	1.2	-163.0	-548.0	-0.42514970059880247	1.1355704776298774	29.0	1.2911491642993755	-62.0	0.21678117735297883	-117.0	
9.55388393079393	1891.0	0.21722375662007365	2032.0	2.145903847958477	1279.0	9.692213366033108	-15808.0	0.39239730226854685	-640.0	2.001226241569589	3264.0	0.0	3220.3369140625	39988.0	-0.2108695652173913	804.0	1.2202020202020203	-153.0	-561.0	-0.3992015968063873	0.5919827616948692	54.0	1.0293494160930925	-41.0	-0.1580110823698004	-82.0	
9.590096312407999	1891.0	0.17991436253662763	2035.0	2.145892877833783	1276.0	9.613733905579398	-15680.0	0.39239730226854685	-640.0	2.0797057020232983	3392.0	0.0	3239.8681640625	40628.0	-0.22391304347826088	798.0	1.1939393939393939	-166.0	-540.0	-0.44111776447105794	0.31463530628015096	71.0	1.1789350342981584	-49.0	-0.41379274089550117	-64.0	
9.68895541943985	1891.0	0.3120373254454171	2024.0	2.148202698533189	1268.0	9.770692826486817	-15936.0	0.4316370324954016	-704.0	2.0797057020232983	3392.0	0.0	3259.3994140625	41268.0	-0.21521739130434783	802.0	1.202020202020202	-162.0	-538.0	-0.4451097804391218	-0.22191830432034398	56.0	1.0122511415851445	-36.0	-0.18029032266021866	-29.0	
9.68993158431069	1896.0	0.34980023946298955	2021.0	2.0883491254666517	1268.0	9.809932556713672	-16000.0	0.47087676272225626	-768.0	1.9619865113427344	3200.0	0.0	3278.9306640625	41908.0	-0.21304347826086956	803.0	1.2121212121212122	-157.0	-558.0	-0.4051896207584831	0.9342734998253208	37.0	1.2350638353660341	-57.0	0.097121143328743	-104.0	
9.664818149256252	1893.0	0.3130066321526277	2024.0	2.1238746333562566	1270.0	9.770692826486817	-15936.0	0.47087676272225626	-768.0	1.9619865113427344	3200.0	0.0	3298.4619140625	42548.0	-0.20434782608695654	807.0	1.2141414141414142	-156.0	-562.0	-0.39720558882235535	0.5469941059814151	9.0	0.4503815619945761	-4.0	0.5268494505751669	-79.0	
9.72588967050415	1890.0	0.3598212207443148	2020.0	2.161098072767906	1265.0	9.809932556713672	-16000.0	0.510116492949111	-832.0	2.040465971796444	3328.0	0.0	3317.9931640625	43188.0	-0.21304347826086956	803.0	1.2141414141414142	-156.0	-539.0	-0.44311377245508987	-0.16015013429221103	-28.0	-0.22755838074772056	43.0	1.0966585355634544	-33.0	
9.677735801508586	1894.0	0.3739500804989805	2019.0	2.1125650515911594	1269.0	9.809932556713672	-16000.0	0.47087676272225626	-768.0	1.9619865113427344	3200.0	0.0	3337.5244140625	43828.0	-0.21521739130434783	802.0	1.2181818181818183	-154.0	-552.0	-0.4171656686626747	0.7053214228190665	-64.0	-0.1747638080739427	34.0	1.635532337102608	-89.0	
9.689813071718618	1897.0	0.3256581817818683	2023.0	2.0760583269928357	1268.0	9.809932556713672	-16000.0	0.510116492949111	-832.0	2.001226241569589	3264.0	0.0	3357.0556640625	44468.0	-0.2108695652173913	804.0	1.197979797979798	-164.0	-555.0	-0.4111776447105789	0.47202298314717894	-151.0	-0.2714240083192755	38.0	2.9610592378491365	-73.0	
9.603255307403597	1892.0	0.26523830356346945	2028.0	2.134829514422923	1275.0	9.770692826486817	-15936.0	0.4316370324954016	-704.0	2.040465971796444	3328.0	0.0	3376.5869140625	45108.0	-0.2108695652173913	804.0	1.206060606060606	-160.0	-544.0	-0.4331337325349302	1.0450079382561965	-196.0	-0.443627713287258	45.0	3.6397400346858793	-110.0	
9.604347826086952	1895.0	0.3390950866030399	2022.0	2.0994344291268994	1275.0	9.731453096259962	-15872.0	0.4316370324954016	-704.0	2.001226241569589	3264.0	0.0	3396.1181640625	45748.0	-0.21521739130434783	802.0	1.2161616161616162	-155.0	-560.0	-0.4011976047904192	1.3280921329993782	-240.0	-0.4301284190853816	41.0	4.3061107136509955	-128.0	
9.518764067863213	1894.0	0.32838993374309017	2023.0	2.1105197327871466	1282.0	9.652973635806253	-15744.0	0.47087676272225626	-768.0	2.040465971796444	3328.0	0.0	3415.6494140625	46388.0	-0.21521739130434783	802.0	1.206060606060606	-160.0	-553.0	-0.41516966067864275	0.41276176810748155	-254.0	-0.09008096474067247	22.0	4.528191773953906	-68.0	
9.603011805880776	1891.0	0.25280962222385717	2029.0	2.146750985365383	1275.0	9.731453096259962	-15872.0	0.47087676272225626	-768.0	2.0797057020232983	3392.0	0.0	3435.1806640625	47028.0	-0.21304347826086956	803.0	1.2	-163.0	-548.0	-0.42514970059880247	0.8789546686208133	-269.0	0.2581516315497029	-4.0	4.75166672707805	-98.0	
9.517191022472892	1892.0	0.19382035400166503	2034.0	2.133254692077998	1282.0	9.613733905579398	-15680.0	0.39239730226854685	-640.0	2.001226241569589	3264.0	0.0	3454.7119140625	47668.0	-0.21521739130434783	802.0	1.2161616161616162	-155.0	-560.0	-0.4011976047904192	2.0294371336578694	-254.0	0.42708358723830986	-20.0	4.5120250202984025	-173.0	
9.480373125221105	1891.0	0.18213032772476528	2035.0	2.1448178056137954	1285.0	9.574494175352545	-15616.0	0.3531575720416922	-576.0	2.040465971796444	3328.0	0.0	3474.2431640625	48308.0	-0.20652173913043478	806.0	1.204040404040404	-161.0	-564.0	-0.3932135728542915	1.1738890494187926	-247.0	0.9256708977300815	-49.0	4.414116622813798	-117.0	
9.577779858234264	1889.0	0.1918739572323741	2034.0	2.1699856947811718	1277.0	9.731453096259962	-15872.0	0.39239730226854685	-640.0	2.118945432250153	3456.0	0.0	3493.7744140625	48948.0	-0.21304347826086956	803.0	1.208080808080808	-159.0	-542.0	-0.43712574850299407	0.9573451149815354	-216.0	1.229466738622535	-67.0	3.9447991724243296	-103.0	
9.541567476620193	1889.0	0.22918335131582013	2031.0	2.1699966649058657	1280.0	9.692213366033108	-15808.0	0.4316370324954016	-704.0	2.0797057020232983	3392.0	0.0	3513.3056640625	49588.0	-0.21739130434782608	801.0	1.2181818181818183	-154.0	-554.0	-0.4131736526946108	1.4345334860270145	-192.0	1.7355928196384511	-102.0	3.57500827730703	-134.0	
9.517425888877478	1889.0	0.2540562807047842	2029.0	2.170003978322328	1282.0	9.574494175352545	-15616.0	0.3531575720416922	-576.0	2.0797057020232983	3392.0	0.0	3532.8369140625	50228.0	-0.20869565217391306	805.0	1.204040404040404	-161.0	-554.0	-0.4131736526946108	0.3338658383280853	-192.0	2.172019377873319	-126.0	3.58601495378402	-62.0	
9.614714109298564	1888.0	0.23965785253127175	2030.0	2.182881069015888	1274.0	9.770692826486817	-15936.0	0.39239730226854685	-640.0	2.040465971796444	3328.0	0.0	3552.3681640625	50868.0	-0.20434782608695654	807.0	1.2	-163.0	-543.0	-0.43512974051896214	0.5669050001157652	-195.0	2.408847320874003	-143.0	3.6293119385919983	-77.0	
9.516953997288743	1894.0	0.14553623863942255	2038.0	2.1086730951303654	1282.0	9.692213366033108	-15808.0	0.3531575720416922	-576.0	2.040465971796444	3328.0	0.0	3571.8994140625	51508.0	-0.20434782608695654	807.0	1.2161616161616162	-155.0	-562.0	-0.39720558882235535	0.677146502246201	-224.0	2.248599393041261	-134.0	4.069274162353964	-84.0	
9.651178627553687	1893.0	0.16696989442393112	2036.0	2.1222778707619443	1271.0	9.770692826486817	-15936.0	0.27467811158798283	-448.0	2.040465971796444	3328.0	0.0	3591.4306640625	52148.0	-0.20869565217391306	805.0	1.206060606060606	-160.0	-552.0	-0.4171656686626747	-0.20940541822558	-263.0	2.0167121034983855	-116.0	4.671295575094804	-26.0	
9.627028404692743	1889.0	0.23965006917640203	2030.0	2.1709559413651967	1273.0	9.731453096259962	-15872.0	0.47087676272225626	-768.0	2.118945432250153	3456.0	0.0	3610.9619140625	52788.0	-0.2108695652173913	804.0	1.2181818181818183	-154.0	-551.0	-0.4191616766467066	0.2757598833493293	-244.0	1.7096459626555953	-97.0	4.3774705380486365	-58.0	
9.638493682926383	1888.0	0.17821418412157422	2035.0	2.1825044280680697	1272.0	9.770692826486817	-15936.0	0.3531575720416922	-576.0	2.0797057020232983	3392.0	0.0	3630.4931640625	53428.0	-0.2108695652173913	804.0	1.2202020202020203	-153.0	-563.0	-0.3952095808383234	-0.28403233872763545	-211.0	1.4838259757251357	-78.0	3.881167319584995	-22.0	
9.66384198438541	1888.0	0.2752437181350552	2027.0	2.1837282064227943	1270.0	9.770692826486817	-15936.0	0.3531575720416922	-576.0	2.158185162477008	3520.0	0.0	3650.0244140625	54068.0	-0.21304347826086956	803.0	1.2161616161616162	-155.0	-552.0	-0.4171656686626747	0.13358227221392527	-193.0	2.0804032228189717	-119.0	3.6032269149204468	-49.0	
9.590329020033028	1887.0	0.25210210058062354	2029.0	2.1948098533748106	1276.0	9.692213366033108	-15808.0	0.3531575720416922	-576.0	2.1974248927038627	3584.0	0.0	3669.5556640625	54708.0	-0.21304347826086956	803.0	1.183838383838384	-171.0	-536.0	-0.44910179640718567	0.20966691693675452	-155.0	2.5929782259568523	-152.0	3.0245193004123814	-54.0	
9.699455326700441	1890.0	0.1530794696686332	2037.0	2.158766311819112	1267.0	9.731453096259962	-15872.0	0.3139178418148375	-512.0	2.118945432250153	3456.0	0.0	3689.0869140625	55348.0	-0.21304347826086956	803.0	1.2141414141414142	-156.0	-558.0	-0.4051896207584831	-0.5234799154158405	-185.0	2.490821761185117	-143.0	3.488124532994463	-6.0	
9.567154962042924	1888.0	0.3625451893506669	2020.0	2.1836343509115257	1278.0	9.692213366033108	-15808.0	0.5493562231759657	-896.0	2.040465971796444	3328.0	0.0	3708.6181640625	55988.0	-0.20434782608695654	807.0	1.197979797979798	-164.0	-544.0	-0.4331337325349302	0.8136617460784612	-229.0	2.0111685507535895	-119.0	4.143954637292068	-93.0	
9.505598596528943	1890.0	0.2789214267388785	2027.0	2.158086164088099	1283.0	9.652973635806253	-15744.0	0.6670754138565297	-1088.0	2.118945432250153	3456.0	0.0	3728.1494140625	56628.0	-0.20652173913043478	806.0	1.202020202020202	-162.0	-542.0	-0.43712574850299407	-7.459584823533743	-172.0	1.257345477002789	-28.0	3.3597669508969346	445.0	
10.028510693228167	1893.0	0.09838589374134557	2041.0	2.125365351411863	1240.0	10.0453709380748	-16384.0	0.3531575720416922	-576.0	2.001226241569589	3264.0	0.0	3747.6806640625	57268.0	-0.21304347826086956	803.0	1.2121212121212122	-157.0	-558.0	-0.4051896207584831	-14.901370544392764	-209.0	2.412454422388696	-72.0	3.9969224506910765	931.0	
9.942330054484948	1895.0	-0.009125924842456806	2050.0	2.099332041296424	1247.0	10.084610668301655	-16448.0	0.11771919068056406	-192.0	1.9619865113427344	3200.0	0.0	3767.2119140625	57908.0	-0.21304347826086956	803.0	1.208080808080808	-159.0	-543.0	-0.43512974051896214	-4.3561283577113965	-236.0	2.141839830622395	-104.0	4.302116416656962	244.0	
9.5525608632651	1893.0	0.05922742419563065	2045.0	2.1202142684167753	1279.0	9.652973635806253	-15744.0	0.3139178418148375	-512.0	1.9619865113427344	3200.0	0.0	3786.7431640625	58548.0	-0.21739130434782608	801.0	1.2161616161616162	-155.0	-542.0	-0.43712574850299407	3.4992126221762168	-223.0	0.5385490775524236	-33.0	4.025844375679379	-269.0	
9.565237172774173	1894.0	0.0957903798614945	2042.0	2.1086584682974405	1278.0	9.574494175352545	-15616.0	0.3139178418148375	-512.0	2.040465971796444	3328.0	0.0	3806.2744140625	59188.0	-0.2217391304347826	799.0	1.2	-163.0	-533.0	-0.45508982035928147	1.4303115236291781	-199.0	1.206890481903853	-67.0	3.681514375258005	-134.0	
9.492323247720831	1891.0	0.1575036166900387	2037.0	2.1446910397284453	1284.0	9.652973635806253	-15744.0	0.47087676272225626	-768.0	2.0797057020232983	3392.0	0.0	3825.8056640625	59828.0	-0.21304347826086956	803.0	1.1939393939393939	-166.0	-536.0	-0.44910179640718567	0.35328280949460367	-183.0	2.7158733767837657	-162.0	3.4489386547947882	-63.0	
9.70006731867683	1894.0	0.16622345600634886	2036.0	2.1107111005179156	1267.0	9.809932556713672	-16000.0	0.3139178418148375	-512.0	2.040465971796444	3328.0	0.0	3845.3369140625	60468.0	-0.21739130434782608	801.0	1.204040404040404	-161.0	-537.0	-0.44710578842315374	0.9546170923259637	-133.0	3.753914024018089	-232.0	2.682469038202216	-102.0	
9.578402644108444	1898.0	0.14525888686570612	2038.0	2.061092036996488	1277.0	9.652973635806253	-15744.0	0.3139178418148375	-512.0	1.883507050889025	3072.0	0.0	3864.8681640625	61108.0	-0.21956521739130436	800.0	1.2202020202020203	-153.0	-549.0	-0.42315369261477054	3.9530438154160925	-114.0	4.6062577218210485	-302.0	2.3635113869408966	-297.0	
9.639726301997394	1900.0	0.15669491143349862	2037.0	2.037723248278887	1272.0	9.692213366033108	-15808.0	0.3531575720416922	-576.0	1.9619865113427344	3200.0	0.0	3884.3994140625	61748.0	-0.20869565217391306	805.0	1.2	-163.0	-542.0	-0.43712574850299407	3.7570145879781762	-138.0	4.590308091846328	-301.0	2.7304906906221196	-284.0	
9.640458965345415	1904.0	0.18202914411145882	2035.0	1.989791146154809	1272.0	9.809932556713672	-16000.0	0.39239730226854685	-640.0	1.8050275904353157	2944.0	0.0	3903.9306640625	62388.0	-0.2108695652173913	804.0	1.2	-163.0	-534.0	-0.45309381237524954	3.656444980682697	-164.0	4.881340320982315	-321.0	3.126933649052489	-277.0	
9.713976247256912	1907.0	0.18126713898413707	2035.0	1.9543741206093979	1266.0	9.770692826486817	-15936.0	0.3531575720416922	-576.0	1.883507050889025	3072.0	0.0	3923.4619140625	63028.0	-0.21739130434782608	801.0	1.2202020202020203	-153.0	-555.0	-0.4111776447105789	2.505529817279348	-213.0	4.152023935521081	-269.0	3.883689948975496	-202.0	
9.737025316316274	1904.0	0.08253742655560259	2043.0	1.989761892488959	1264.0	9.849172286940528	-16064.0	0.23543838136112813	-384.0	1.883507050889025	3072.0	0.0	3942.9931640625	63668.0	-0.20869565217391306	805.0	1.204040404040404	-161.0	-555.0	-0.4111776447105789	0.013864119586373493	-298.0	2.3247073542081704	-139.0	5.201382271351665	-40.0	
9.602789892153536	1900.0	0.12086282747547761	2040.0	2.036995563340868	1275.0	9.652973635806253	-15744.0	0.3139178418148375	-512.0	1.9619865113427344	3200.0	0.0	3962.5244140625	64308.0	-0.21304347826086956	803.0	1.2181818181818183	-154.0	-541.0	-0.439121756487026	-0.5432479845946342	-384.0	0.5570400264934531	-22.0	6.514938183268	-4.0	
9.517572465603807	1901.0	0.12282479095450802	2040.0	2.0241148159390767	1282.0	9.574494175352545	-15616.0	0.27467811158798283	-448.0	1.9619865113427344	3200.0	0.0	3982.0556640625	64948.0	-0.2108695652173913	804.0	1.1757575757575758	-175.0	-515.0	-0.4910179640718563	-1.2694352124253174	-411.0	-0.3383784303466474	40.0	6.932846443379006	43.0	
9.517219086607147	1905.0	0.03844680657026761	2047.0	1.9750747312209302	1282.0	9.574494175352545	-15616.0	0.3139178418148375	-512.0	1.883507050889025	3072.0	0.0	4001.5869140625	52.0	-0.20434782608695654	807.0	1.202020202020202	-162.0	-551.0	-0.4191616766467066	-5.05165800005038	-382.0	-0.567238266212894	74.0	6.529604032471987	289.0	
9.845416800856107	1902.0	-0.029867625693471178	2052.0	2.0138181423540353	1255.0	9.888412017167381	-16128.0	0.11771919068056406	-192.0	1.883507050889025	3072.0	0.0	4021.1181640625	692.0	-0.2108695652173913	804.0	1.204040404040404	-161.0	-534.0	-0.45309381237524954	-7.313562815278483	-389.0	-1.2536484561011503	130.0	6.6586869589512645	436.0	
9.699356243124392	1900.0	0.021371109919621434	2048.0	2.0369663096750177	1267.0	9.849172286940528	-16064.0	0.27467811158798283	-448.0	1.9619865113427344	3200.0	0.0	4040.6494140625	1332.0	-0.2217391304347826	799.0	1.2141414141414142	-156.0	-545.0	-0.43113772455089827	-6.030787068807003	-386.0	-1.850849680434813	164.0	6.600231825060694	352.0	
9.723614184679622	1898.0	0.03259204955265535	2047.0	2.0614174840290693	1265.0	9.849172286940528	-16064.0	0.23543838136112813	-384.0	2.001226241569589	3264.0	0.0	4060.1806640625	1972.0	-0.21304347826086956	803.0	1.202020202020202	-162.0	-539.0	-0.44311377245508987	-4.521417723924008	-387.0	-2.8710528804933624	225.0	6.600347257087149	253.0	
9.649004384084769	1892.0	-0.040502728359593315	2053.0	2.132229594870504	1271.0	9.731453096259962	-15872.0	0.19619865113427343	-320.0	1.9619865113427344	3200.0	0.0	4079.7119140625	2612.0	-0.21739130434782608	801.0	1.204040404040404	-161.0	-536.0	-0.44910179640718567	-3.6074590970634817	-379.0	-3.439542608207046	259.0	6.469534667016263	193.0	
9.515512417167844	1897.0	-0.03660215146614171	2053.0	2.0706927171148477	1282.0	9.574494175352545	-15616.0	0.03923973022685469	-64.0	1.9619865113427344	3200.0	0.0	4099.2431640625	3252.0	-0.2217391304347826	799.0	1.2161616161616162	-155.0	-555.0	-0.4111776447105789	-0.9419353003717833	-332.0	-3.2216573148601038	234.0	5.7280505317109425	19.0	
9.61194514408972	1891.0	-0.07657324731698209	2056.0	2.143546490052064	1274.0	9.652973635806253	-15744.0	0.11771919068056406	-192.0	2.040465971796444	3328.0	0.0	4118.7744140625	3892.0	-0.20652173913043478	806.0	1.2121212121212122	-157.0	-556.0	-0.40918163672654695	-1.5875251998733348	-278.0	-2.4991948856587642	191.0	4.913213655040559	61.0	
9.588891757471245	1892.0	0.04606008779330581	2046.0	2.132494096765898	1276.0	9.731453096259962	-15872.0	0.15695892090741875	-256.0	2.040465971796444	3328.0	0.0	4138.3056640625	4532.0	-0.21956521739130436	800.0	1.2101010101010101	-158.0	-543.0	-0.43512974051896214	-1.1896164904724988	-228.0	-1.8517934197130772	148.0	4.148778294182292	35.0	
9.60120821164498	1894.0	0.03410049309755936	2047.0	2.108401279818509	1275.0	9.613733905579398	-15680.0	0.19619865113427343	-320.0	2.040465971796444	3328.0	0.0	4157.8369140625	5172.0	-0.22391304347826088	798.0	1.195959595959596	-165.0	-551.0	-0.4191616766467066	-0.9596039011831012	-186.0	0.30167707085286866	5.0	3.507694898327421	21.0	
9.564515303323944	1895.0	0.010697090479150712	2049.0	2.09575212393803	1278.0	9.692213366033108	-15808.0	0.19619865113427343	-320.0	2.040465971796444	3328.0	0.0	4177.3681640625	5812.0	-0.21739130434782608	801.0	1.195959595959596	-165.0	-551.0	-0.4191616766467066	-0.06670427526320734	-171.0	0.8033793708546748	-32.0	3.270629019938944	-37.0	
9.345073246509273	1897.0	-0.008774601826327472	2051.0	2.06926660090466	1296.0	9.496014714898834	-15488.0	0.15695892090741875	-256.0	2.001226241569589	3264.0	0.0	4196.8994140625	6452.0	-0.21521739130434783	802.0	1.2101010101010101	-158.0	-547.0	-0.4271457085828344	-4.547954390170219	-172.0	0.8148159388706727	-12.0	3.3306506465632997	255.0	
9.588779721217847	1896.0	-0.013937403910445567	2051.0	2.083700230401989	1276.0	9.652973635806253	-15744.0	0.19619865113427343	-320.0	1.9619865113427344	3200.0	0.0	4216.4306640625	7092.0	-0.22391304347826088	798.0	1.2181818181818183	-154.0	-552.0	-0.4171656686626747	-8.228527486631046	-171.0	1.1165697026477357	-15.0	3.3522472520526225	495.0	
9.906111196532205	1892.0	0.06403890326361944	2044.0	2.135846079311211	1250.0	9.966891477621092	-16256.0	0.11771919068056406	-192.0	2.040465971796444	3328.0	0.0	4235.9619140625	7732.0	-0.21956521739130436	800.0	1.208080808080808	-159.0	-560.0	-0.4011976047904192	-6.351605153984632	-141.0	2.023677113738451	-83.0	2.877204264467603	373.0	
9.650338245511385	1895.0	0.057734547360466126	2045.0	2.097080727928718	1271.0	9.927651747394236	-16192.0	0.23543838136112813	-384.0	1.9227467811158798	3136.0	0.0	4255.4931640625	8372.0	-0.2217391304347826	799.0	1.206060606060606	-160.0	-542.0	-0.43712574850299407	-1.4305310144057561	-103.0	2.049115810553091	-106.0	2.2500467550109775	52.0	
9.57779712847073	1897.0	0.09625946650536032	2042.0	2.0726441804075915	1277.0	9.809932556713672	-16000.0	0.3139178418148375	-512.0	1.9619865113427344	3200.0	0.0	4275.0244140625	9012.0	-0.23043478260869565	795.0	1.1898989898989898	-168.0	-544.0	-0.4331337325349302	-2.3069656657707727	-136.0	1.3853919404988009	-59.0	2.760712242209039	109.0	
9.687278972914362	1897.0	0.06966300863673364	2044.0	2.073473034273342	1268.0	9.809932556713672	-16000.0	0.3139178418148375	-512.0	1.9227467811158798	3136.0	0.0	4294.5556640625	9652.0	-0.2282608695652174	796.0	1.2121212121212122	-157.0	-548.0	-0.42514970059880247	-4.2993882317513075	-203.0	0.6437238849222294	-3.0	3.7996478747129507	239.0	
9.69838223703311	1896.0	-0.028343615438827713	2052.0	2.0846521934448576	1267.0	9.809932556713672	-16000.0	0.11771919068056406	-192.0	1.9619865113427344	3200.0	0.0	4314.0869140625	10292.0	-0.23043478260869565	795.0	1.2101010101010101	-158.0	-536.0	-0.44910179640718567	-4.144913869760585	-227.0	0.37849164890138637	13.0	4.163122142499888	229.0	
9.880902995460831	1901.0	-0.12836668647750757	2060.0	2.025236206463327	1252.0	10.006131207847945	-16320.0	0.0	0.0	1.8442673206621703	3008.0	0.0	4333.6181640625	10932.0	-0.22608695652173913	797.0	1.206060606060606	-160.0	-554.0	-0.4131736526946108	0.041275673246391476	-304.0	0.3701238327029931	-9.0	5.292362908666776	-43.0	
9.51502757290176	1896.0	-0.07341132548624302	2056.0	2.0823679697030704	1282.0	9.692213366033108	-15808.0	0.11771919068056406	-192.0	1.9619865113427344	3200.0	0.0	4353.1494140625	11572.0	-0.21521739130434783	802.0	1.197979797979798	-164.0	-552.0	-0.4171656686626747	4.595895418774779	-308.0	-0.05425868789870997	-2.0	5.307653213112633	-340.0	
9.600249317010606	1897.0	-0.09927691164702687	2058.0	2.070913338511467	1275.0	9.652973635806253	-15744.0	0.11771919068056406	-192.0	1.9619865113427344	3200.0	0.0	4372.6806640625	12212.0	-0.2217391304347826	799.0	1.2101010101010101	-158.0	-540.0	-0.44111776447105794	1.8583333957931407	-254.0	0.19911234742367995	-4.0	4.5137360576770496	-162.0	
9.722166128220048	1898.0	-0.11369090653027873	2059.0	2.0599401739036445	1265.0	9.770692826486817	-15936.0	0.0	0.0	1.9619865113427344	3200.0	0.0	4392.2119140625	12852.0	-0.2282608695652174	796.0	1.202020202020202	-162.0	-555.0	-0.4111776447105789	1.0370075218240336	-197.0	0.2759609305874541	-3.0	3.6550291643254864	-109.0	
9.612186486832984	1891.0	-0.05219275463649309	2054.0	2.143792708406301	1274.0	9.692213366033108	-15808.0	0.15695892090741875	-256.0	1.9619865113427344	3200.0	0.0	4411.7431640625	13492.0	-0.21739130434782608	801.0	1.206060606060606	-160.0	-543.0	-0.43512974051896214	3.1890105226312135	-127.0	0.138782065565821	-1.0	2.568870351047452	-250.0	
9.51490474275057	1895.0	-0.07364976048561081	2056.0	2.0944125498226493	1282.0	9.574494175352545	-15616.0	0.15695892090741875	-256.0	2.001226241569589	3264.0	0.0	4431.2744140625	14132.0	-0.21956521739130436	800.0	1.204040404040404	-161.0	-538.0	-0.4451097804391218	3.8851082774628236	-80.0	-0.1359457459950639	16.0	1.8470804761607331	-296.0	
9.49100665653068	1896.0	-0.03634814975703449	2053.0	2.0824983922966513	1284.0	9.53525444512569	-15552.0	0.07847946045370938	-128.0	2.040465971796444	3328.0	0.0	4450.8056640625	14772.0	-0.2217391304347826	799.0	1.204040404040404	-161.0	-549.0	-0.42315369261477054	2.2379557176569542	-68.0	-0.44878615630009067	45.0	1.6810424960553698	-189.0	
9.49123720537615	1891.0	0.04779139962783813	2046.0	2.1435830571343764	1284.0	9.613733905579398	-15680.0	0.19619865113427343	-320.0	2.0797057020232983	3392.0	0.0	4470.3369140625	15412.0	-0.21521739130434783	802.0	1.2141414141414142	-156.0	-557.0	-0.407185628742515	1.6743859744998122	-5.0	-0.596122262200524	60.0	0.7285032885439754	-153.0	
9.686677774835763	1898.0	-0.0032400344053656327	2050.0	2.06068979909105	1268.0	9.692213366033108	-15808.0	0.0	0.0	1.9227467811158798	3136.0	0.0	4489.8681640625	16052.0	-0.21739130434782608	801.0	1.2161616161616162	-155.0	-539.0	-0.44311377245508987	2.369687599778321	92.0	-1.7249341333333728	136.0	-0.7537348988114716	-200.0	
9.675074554994024	1891.0	0.14162009503623146	2038.0	2.146359717584639	1269.0	9.849172286940528	-16064.0	0.3139178418148375	-512.0	2.040465971796444	3328.0	0.0	4509.3994140625	16692.0	-0.2217391304347826	799.0	1.2161616161616162	-155.0	-557.0	-0.407185628742515	4.10325557002124	102.0	-1.644604265146529	123.0	-0.9231618332667524	-313.0	
9.577448067033185	1903.0	-0.012022140560633526	2051.0	1.9992687170960504	1277.0	9.613733905579398	-15680.0	0.07847946045370938	-128.0	1.883507050889025	3072.0	0.0	4528.9306640625	17332.0	-0.2108695652173913	804.0	1.197979797979798	-164.0	-555.0	-0.4111776447105789	3.0540399221632812	76.0	-1.0626587153655036	88.0	-0.5172324144307583	-244.0	
9.673766598922104	1900.0	-0.10003891677434862	2058.0	2.0354963129660555	1269.0	9.731453096259962	-15872.0	0.11771919068056406	-192.0	2.001226241569589	3264.0	0.0	4548.4619140625	17972.0	-0.21739130434782608	801.0	1.206060606060606	-160.0	-547.0	-0.4271457085828344	-0.3213400187532421	-136.0	-1.1066306929893912	98.0	2.7408559857388632	-22.0	
9.697888757648794	1891.0	-0.017345544095422105	2051.0	2.14499820321987	1267.0	9.731453096259962	-15872.0	0.11771919068056406	-192.0	2.001226241569589	3264.0	0.0	4567.9931640625	18612.0	-0.21521739130434783	802.0	1.2202020202020203	-153.0	-556.0	-0.40918163672654695	0.7863708822304393	-336.0	-0.8106477518119809	65.0	5.771603971786061	-92.0	
9.649366398199662	1892.0	-0.003931989338859798	2050.0	2.1325989224018604	1271.0	9.731453096259962	-15872.0	0.15695892090741875	-256.0	2.040465971796444	3328.0	0.0	4587.5244140625	19252.0	-0.21521739130434783	802.0	1.197979797979798	-164.0	-541.0	-0.439121756487026	2.0981678895708864	-358.0	-0.42058023025297114	32.0	6.09308676216893	-177.0	
9.637776131035272	1891.0	0.06921727205747702	2044.0	2.145262705115264	1272.0	9.770692826486817	-15936.0	0.27467811158798283	-448.0	2.040465971796444	3328.0	0.0	4607.0556640625	19892.0	-0.21521739130434783	802.0	1.197979797979798	-164.0	-544.0	-0.4331337325349302	3.1050374434130656	-338.0	0.8108642715186718	-54.0	5.778835557124805	-242.0	
9.575734921255208	1892.0	-0.051215664574412734	2054.0	2.13138977088006	1277.0	9.692213366033108	-15808.0	0.07847946045370938	-128.0	2.001226241569589	3264.0	0.0	4626.5869140625	20532.0	-0.21304347826086956	803.0	1.197979797979798	-164.0	-543.0	-0.43512974051896214	2.2372825088251966	-273.0	0.9707737561942326	-58.0	4.798919950577147	-186.0	
9.636095366950666	1895.0	-0.14925342206945302	2062.0	2.0948684194488116	1272.0	9.731453096259962	-15872.0	0.03923973022685469	-64.0	2.001226241569589	3264.0	0.0	4646.1181640625	21172.0	-0.2108695652173913	804.0	1.2202020202020203	-153.0	-558.0	-0.4051896207584831	1.4676299599387592	-262.0	0.9110935588208466	-50.0	4.6393160958378745	-136.0	
9.734706654900581	1892.0	-0.005655517818522415	2050.0	2.133435089684073	1264.0	9.809932556713672	-16000.0	0.03923973022685469	-64.0	2.040465971796444	3328.0	0.0	4665.6494140625	21812.0	-0.21304347826086956	803.0	1.2121212121212122	-157.0	-541.0	-0.439121756487026	2.877126907409891	-326.0	1.2238323225039038	-80.0	5.598605156781415	-227.0	
9.516225651499841	1892.0	0.09629838327970897	2042.0	2.132269818661048	1282.0	9.574494175352545	-15616.0	0.23543838136112813	-384.0	2.001226241569589	3264.0	0.0	4685.1806640625	22452.0	-0.20652173913043478	806.0	1.2141414141414142	-156.0	-557.0	-0.407185628742515	3.9440441863763644	-332.0	1.9255348846763174	-132.0	5.679190736843461	-296.0	
9.564510985764827	1893.0	0.03460071316090413	2047.0	2.120087502531425	1278.0	9.652973635806253	-15744.0	0.3531575720416922	-576.0	1.9619865113427344	3200.0	0.0	4704.7119140625	23092.0	-0.20217391304347826	808.0	1.197979797979798	-164.0	-557.0	-0.407185628742515	1.7014926514993944	-308.0	2.1112097357081545	-133.0	5.3365972407853866	-150.0	
9.611473252500986	1896.0	-0.18509328938234373	2065.0	2.0822156068601014	1274.0	9.731453096259962	-15872.0	0.03923973022685469	-64.0	1.9619865113427344	3200.0	0.0	4724.2431640625	23732.0	-0.20434782608695654	807.0	1.208080808080808	-159.0	-545.0	-0.43113772455089827	0.7816133124056651	-336.0	1.7833865234736102	-108.0	5.771651547484309	-90.0	
9.563437896097497	1899.0	-0.14682237194655678	2062.0	2.0459733841571714	1278.0	9.692213366033108	-15808.0	0.07847946045370938	-128.0	1.9619865113427344	3200.0	0.0	4743.7744140625	24372.0	-0.20217391304347826	808.0	1.2262626262626262	-150.0	-554.0	-0.4131736526946108	2.440144216728818	-326.0	2.033856512677855	-132.0	5.602974983688226	-198.0	
9.637192203193138	1900.0	-0.09930026171163606	2058.0	2.035137955559393	1272.0	9.692213366033108	-15808.0	0.03923973022685469	-64.0	1.9619865113427344	3200.0	0.0	4763.3056640625	25012.0	-0.1956521739130435	811.0	1.197979797979798	-164.0	-549.0	-0.42315369261477054	3.2209157034610505	-343.0	1.5793675144268238	-106.0	5.853722401900751	-249.0	
9.514419898484487	1894.0	-0.1104589345057121	2059.0	2.1060878024108716	1282.0	9.652973635806253	-15744.0	0.07847946045370938	-128.0	2.040465971796444	3328.0	0.0	4782.8369140625	25652.0	-0.20869565217391306	805.0	1.2222222222222223	-152.0	-542.0	-0.43712574850299407	2.139432891689723	-293.0	1.6250869540841746	-102.0	5.104080956254205	-179.0	
9.538326619822614	1897.0	-0.19556779059779536	2066.0	2.069331202750079	1280.0	9.613733905579398	-15680.0	0.0	0.0	2.001226241569589	3264.0	0.0	4802.3681640625	26292.0	-0.20869565217391306	805.0	1.197979797979798	-164.0	-540.0	-0.44111776447105794	1.877205011276936	-255.0	2.071253486482738	-129.0	4.528756466997497	-162.0	
9.5871011159128	1901.0	-0.2443599093782523	2070.0	2.021138255438839	1276.0	9.613733905579398	-15680.0	-0.03923973022685469	64.0	1.9619865113427344	3200.0	0.0	4821.8994140625	26932.0	-0.20217391304347826	808.0	1.2161616161616162	-155.0	-555.0	-0.4111776447105789	1.0339821398544644	-252.0	2.2067294121314065	-134.0	4.491561319285866	-107.0	
9.624031049417987	1898.0	-0.17267239139760115	2064.0	2.05836900826695	1273.0	9.692213366033108	-15808.0	0.0	0.0	2.001226241569589	3264.0	0.0	4841.4306640625	27572.0	-0.2108695652173913	804.0	1.2161616161616162	-155.0	-539.0	-0.44311377245508987	1.1473498632454942	-224.0	1.6911356079313022	-99.0	4.064572128743971	-115.0	
9.574655355249199	1895.0	-0.19678331565924348	2066.0	2.093778720395899	1277.0	9.692213366033108	-15808.0	0.0	0.0	1.9227467811158798	3136.0	0.0	4860.9619140625	28212.0	-0.20434782608695654	807.0	1.2141414141414142	-156.0	-555.0	-0.4111776447105789	0.7358968613644454	-237.0	1.7868265103557048	-104.0	4.266405289941488	-88.0	
9.574293341134306	1895.0	-0.233354054679977	2069.0	2.0934093928645425	1277.0	9.574494175352545	-15616.0	0.0	0.0	1.9619865113427344	3200.0	0.0	4880.4931640625	28852.0	-0.19782608695652174	810.0	1.206060606060606	-160.0	-550.0	-0.4211576846307386	0.1814154471424645	-225.0	1.7727487820211876	-100.0	4.089440598380287	-52.0	
9.59903396817606	1893.0	-0.17337212968596505	2064.0	2.118353003927069	1275.0	9.731453096259962	-15872.0	-0.03923973022685469	64.0	1.9619865113427344	3200.0	0.0	4900.0244140625	29492.0	-0.2108695652173913	804.0	1.206060606060606	-160.0	-541.0	-0.439121756487026	-0.547470408428355	-176.0	1.76333410101172	-94.0	3.351482308647021	-5.0	
9.537958129369045	1894.0	-0.1962830955958987	2066.0	2.1054649431088155	1280.0	9.652973635806253	-15744.0	0.03923973022685469	-64.0	2.0797057020232983	3392.0	0.0	4919.5556640625	30132.0	-0.1956521739130435	811.0	1.2141414141414142	-156.0	-554.0	-0.4131736526946108	0.42445611057022375	-113.0	1.6890375002427598	-91.0	2.38358813851407	-69.0	
9.721187804569649	1892.0	-0.13950200920697448	2061.0	2.1319614362668795	1265.0	9.770692826486817	-15936.0	-0.03923973022685469	64.0	2.001226241569589	3264.0	0.0	4939.0869140625	30772.0	-0.21739130434782608	801.0	1.2	-163.0	-532.0	-0.45708582834331346	-0.48893473644627894	-67.0	1.6006842490921218	-79.0	1.6931022751211169	-10.0	
