Device	Device	Device	Device	Device	Device	Device	Device	Device	Device	Device	Device	Device	Device	Device	Device	Device	Device	Device	Device	Device	Device	Device	Device	Device	Device	Device	
Low Noise Accelerometer X	Low Noise Accelerometer X	Low Noise Accelerometer Z	Low Noise Accelerometer Z	Low Noise Accelerometer Y	Low Noise Accelerometer Y	Wide Range Accelerometer X	Wide Range Accelerometer X	Wide Range Accelerometer Z	Wide Range Accelerometer Z	Wide Range Accelerometer Y	Wide Range Accelerometer Y	Event_Marker	Timestamp	Timestamp	Magnetometer Z	Magnetometer Z	Magnetometer X	Magnetometer X	Magnetometer Y	Magnetometer Y	Gyroscope Y	Gyroscope Y	Gyroscope Z	Gyroscope Z	Gyroscope X	Gyroscope X	
UNCAL	CAL	CAL	UNCAL	CAL	UNCAL	CAL	UNCAL	CAL	UNCAL	UNCAL	CAL	CAL	UNCAL	CAL	UNCAL	CAL	CAL	UNCAL	CAL	UNCAL	CAL	UNCAL	UNCAL	CAL	CAL	UNCAL	
no units	m/(s^2)	m/(s^2)	no units	m/(s^2)	no units	m/(s^2)	no units	m/(s^2)	no units	no units	m/(s^2)	no units	no units	ms	no units	local_flux	local_flux	no units	local_flux	no units	deg/s	no units	no units	deg/s	deg/s	no units	
1960.0	9.741976719545013	-1.3306152536426463	2160.0	1.3009810845385414	1263.0	9.770692826486817	-15936.0	-1.2164316370324952	1984.0	1984.0	1.2164316370324952	0.0	37001.0	1129.180908203125	692.0	-0.4543478260869565	1.1474747474747475	-189.0	-0.4830339321357286	-519.0	1.259201694251223	-91.0	151.0	-1.9838626690096632	2.0406399222209854	-126.0	
1961.0	9.667985387265224	-1.4264214792398096	2168.0	1.2872349161886874	1269.0	9.849172286940528	-16064.0	-1.1771919068056407	1920.0	1984.0	1.2164316370324952	0.0	37641.0	1148.712158203125	692.0	-0.4543478260869565	1.1333333333333333	-196.0	-0.4910179640718563	-515.0	1.2248619256803095	-109.0	193.0	-2.6221083488806225	2.3147475784618288	-124.0	
1955.0	9.631036024744015	-1.3905426951525701	2165.0	1.3595133670308537	1272.0	9.731453096259962	-15872.0	-1.25567136725935	2048.0	1984.0	1.2164316370324952	0.0	38281.0	1168.243408203125	691.0	-0.4565217391304348	1.1474747474747475	-189.0	-0.4910179640718563	-515.0	1.8871438301298196	-123.0	188.0	-2.601757760955838	2.5210525160713257	-167.0	
1950.0	9.594692177860523	-1.305664490704985	2158.0	1.4202396744619163	1275.0	9.692213366033108	-15808.0	-1.1771919068056407	1920.0	2048.0	1.25567136725935	0.0	38921.0	1187.774658203125	691.0	-0.4565217391304348	1.1535353535353536	-186.0	-0.4610778443113773	-530.0	2.1938433437473415	-95.0	161.0	-2.201272225371898	2.0921300076271656	-187.0	
1952.0	9.619924125507033	-1.2447288257135019	2153.0	1.3970049650461276	1273.0	9.652973635806253	-15744.0	-1.0987124463519313	1792.0	2048.0	1.25567136725935	0.0	39561.0	1207.305908203125	695.0	-0.44782608695652176	1.1616161616161615	-182.0	-0.4730538922155689	-524.0	1.3626361214402267	-22.0	110.0	-1.3343918651570674	0.9901759201544192	-133.0	
1951.0	9.632234103342094	-1.2208329863866183	2151.0	1.4094152159888313	1272.0	9.692213366033108	-15808.0	-1.0594727161250765	1728.0	2176.0	1.3341508277130594	0.0	40201.0	1226.837158203125	695.0	-0.44782608695652176	1.1535353535353536	-186.0	-0.49500998003992025	-513.0	2.328285521486172	21.0	72.0	-0.8057262251539893	0.3265270307166972	-196.0	
1953.0	9.61968494154333	-1.2810611297348677	2156.0	1.3845910573951925	1273.0	9.731453096259962	-15872.0	-1.020232985898222	1664.0	2176.0	1.3341508277130594	0.0	40841.0	1246.368408203125	693.0	-0.45217391304347826	1.1575757575757575	-184.0	-0.4650698602794412	-528.0	2.807741612739754	12.0	54.0	-0.5747065868100744	0.45861459908172797	-227.0	
1953.0	9.681124953244796	-1.2335312361450772	2152.0	1.385680756448105	1268.0	9.692213366033108	-15808.0	-0.9809932556713672	1600.0	2112.0	1.2949110974862048	0.0	41481.0	1265.899658203125	693.0	-0.45217391304347826	1.1434343434343435	-191.0	-0.5109780439121757	-505.0	2.6199146841773726	-98.0	84.0	-1.0783290971171655	2.1334966706487206	-214.0	
1952.0	9.669414014708774	-1.1725722210889848	2147.0	1.3982214299843903	1269.0	9.731453096259962	-15872.0	-0.9809932556713672	1600.0	2112.0	1.2949110974862048	0.0	42121.0	1285.430908203125	695.0	-0.44782608695652176	1.1494949494949496	-188.0	-0.48103792415169666	-520.0	2.2652098944652206	-200.0	94.0	-1.2656199131736225	3.6883745170249296	-190.0	
1949.0	9.717449371112266	-1.2108431385247718	2150.0	1.4344636526873202	1265.0	9.809932556713672	-16000.0	-0.9809932556713672	1600.0	2112.0	1.2949110974862048	0.0	42761.0	1304.962158203125	689.0	-0.4608695652173913	1.1575757575757575	-184.0	-0.4730538922155689	-524.0	1.914865001204328	-236.0	113.0	-1.5479946205014679	4.239406483067806	-167.0	
1948.0	9.668560679989124	-1.2100967001071896	2150.0	1.446030422931349	1269.0	9.770692826486817	-15936.0	-0.8632740649908032	1408.0	2176.0	1.3341508277130594	0.0	43401.0	1324.493408203125	698.0	-0.44130434782608696	1.1454545454545455	-190.0	-0.4730538922155689	-524.0	2.003760566715505	-231.0	129.0	-1.7910199867360037	4.162471900036268	-173.0	
1947.0	9.716841696694992	-1.247890747544241	2153.0	1.4581834853951214	1265.0	9.849172286940528	-16064.0	-1.020232985898222	1664.0	2176.0	1.3341508277130594	0.0	44041.0	1344.024658203125	696.0	-0.44565217391304346	1.1535353535353536	-186.0	-0.49500998003992025	-513.0	2.469894752472005	-261.0	118.0	-1.676796335405613	4.614084322437258	-203.0	
1951.0	9.692950086813772	-1.2464445708382947	2153.0	1.4097662599790315	1267.0	9.770692826486817	-15936.0	-1.0987124463519313	1792.0	2176.0	1.3341508277130594	0.0	44681.0	1363.555908203125	697.0	-0.4434782608695652	1.1636363636363636	-181.0	-0.45708582834331346	-532.0	3.3154910306648766	-270.0	113.0	-1.6661626027983099	4.742510488932895	-258.0	
1954.0	9.607616306451531	-1.2805764763812624	2156.0	1.3724270248067265	1274.0	9.731453096259962	-15872.0	-1.0987124463519313	1792.0	2048.0	1.25567136725935	0.0	45321.0	1383.087158203125	697.0	-0.4434782608695652	1.1575757575757575	-184.0	-0.44910179640718567	-536.0	2.843401032608357	-331.0	150.0	-2.2251380437739314	5.674988042905856	-227.0	
1952.0	9.619079425905616	-1.3300605500952134	2160.0	1.3961432008062964	1273.0	9.692213366033108	-15808.0	-1.137952176578786	1856.0	1920.0	1.1771919068056407	0.0	45961.0	1402.618408203125	694.0	-0.45	1.1535353535353536	-186.0	-0.48702594810379246	-517.0	1.63333804057457	-392.0	199.0	-2.9126606093462466	6.614845326818589	-148.0	
1951.0	9.569828720667577	-1.3658848506983647	2163.0	1.4073406435189688	1277.0	9.652973635806253	-15744.0	-1.137952176578786	1856.0	2112.0	1.2949110974862048	0.0	46601.0	1422.149658203125	698.0	-0.44130434782608696	1.1575757575757575	-184.0	-0.45309381237524954	-534.0	1.806930823889101	-445.0	218.0	-3.2418435842869355	7.419193049175558	-159.0	
1945.0	9.581765890489955	-1.318800693687831	2159.0	1.480220013413804	1276.0	9.731453096259962	-15872.0	-1.1771919068056407	1920.0	2176.0	1.3341508277130594	0.0	47241.0	1441.680908203125	698.0	-0.44130434782608696	1.1454545454545455	-190.0	-0.4650698602794412	-528.0	1.3848042584340663	-391.0	219.0	-3.194604368052775	6.60212153916471	-132.0	
1944.0	9.594075868325016	-1.2949048543609472	2157.0	1.4926302643565077	1275.0	9.731453096259962	-15872.0	-1.137952176578786	1856.0	2240.0	1.3733905579399142	0.0	47881.0	1461.212158203125	701.0	-0.43478260869565216	1.1555555555555554	-185.0	-0.47504990019960086	-523.0	1.3574326521121372	-289.0	200.0	-2.8457885010992126	5.051064456748842	-131.0	
1942.0	9.618575152623508	-1.2593034220474242	2154.0	1.5173276570647964	1273.0	9.692213366033108	-15808.0	-1.0987124463519313	1792.0	2240.0	1.3733905579399142	0.0	48521.0	1480.743408203125	700.0	-0.43695652173913047	1.1676767676767676	-179.0	-0.46906187624750506	-526.0	1.7041185155479466	-231.0	184.0	-2.594752606121668	4.1654683205479435	-154.0	
1941.0	9.59479342021613	-1.1859079422968501	2148.0	1.529871987309313	1275.0	9.731453096259962	-15872.0	-0.9809932556713672	1600.0	2304.0	1.4126302881667687	0.0	49161.0	1500.274658203125	698.0	-0.44130434782608696	1.1515151515151516	-187.0	-0.4830339321357286	-519.0	2.873214122351458	-221.0	151.0	-2.1752853864769226	4.001686109727056	-230.0	
1944.0	9.644651799871438	-1.1130360326742297	2142.0	1.494954711888839	1271.0	9.731453096259962	-15872.0	-0.9417535254445125	1536.0	2240.0	1.3733905579399142	0.0	49801.0	1519.805908203125	702.0	-0.4326086956521739	1.1535353535353536	-186.0	-0.4770459081836328	-522.0	2.7709799323332795	-213.0	109.0	-1.5336178092782768	3.8810354478249565	-223.0	
1946.0	9.681592527274413	-1.1011075713979621	2141.0	1.4713470182334627	1268.0	9.652973635806253	-15744.0	-0.8632740649908032	1408.0	2176.0	1.3341508277130594	0.0	50441.0	1539.337158203125	700.0	-0.43695652173913047	1.1616161616161615	-182.0	-0.44910179640718567	-536.0	1.9234714076975872	-195.0	118.0	-1.5986131793545606	3.61574627451618	-168.0	
1943.0	9.644287626976986	-1.1376549603540864	2144.0	1.5067530736541803	1271.0	9.888412017167381	-16128.0	-0.9809932556713672	1600.0	2368.0	1.4518700183936235	0.0	51081.0	1558.868408203125	701.0	-0.43478260869565216	1.1696969696969697	-178.0	-0.4670658682634731	-527.0	1.8172287518890284	-216.0	131.0	-1.7988969046351617	3.9362003360552547	-161.0	
1942.0	9.65671827618368	-1.1015688746869583	2141.0	1.5192864337740029	1270.0	9.692213366033108	-15808.0	-0.8240343347639485	1344.0	2176.0	1.3341508277130594	0.0	51721.0	1578.399658203125	702.0	-0.4326086956521739	1.1575757575757575	-184.0	-0.4890219560878244	-516.0	2.342779063323132	-242.0	129.0	-1.82130768930902	4.326382095298328	-195.0	
1943.0	9.559309384390964	-1.0993606928536903	2141.0	1.506286233903324	1278.0	9.770692826486817	-15936.0	-0.9025137952176578	1472.0	2240.0	1.3733905579399142	0.0	52361.0	1597.930908203125	698.0	-0.44130434782608696	1.1535353535353536	-186.0	-0.4970059880239522	-512.0	2.912288961511804	-218.0	92.0	-1.2916221790860183	3.955667984909597	-232.0	
1944.0	9.595644596156221	-1.1364316519377686	2144.0	1.4942306836590515	1275.0	9.613733905579398	-15680.0	-0.9025137952176578	1472.0	2176.0	1.3341508277130594	0.0	53001.0	1617.462158203125	704.0	-0.4282608695652174	1.1454545454545455	-190.0	-0.4590818363273454	-531.0	2.401247258959983	-174.0	82.0	-1.0793605782706501	3.2915768810225674	-199.0	
1946.0	9.570783297742837	-1.208603823272025	2150.0	1.4691639634194065	1277.0	9.652973635806253	-15744.0	-0.9809932556713672	1600.0	2176.0	1.3341508277130594	0.0	53641.0	1636.993408203125	704.0	-0.4282608695652174	1.1616161616161615	-182.0	-0.46906187624750506	-526.0	1.925235639182597	-127.0	40.0	-0.3879518562193187	2.581508099881938	-168.0	
1946.0	9.631257938471252	-1.2585959004041907	2154.0	1.4692687890553688	1272.0	9.692213366033108	-15808.0	-1.0987124463519313	1792.0	2112.0	1.2949110974862048	0.0	54281.0	1656.524658203125	700.0	-0.43695652173913047	1.1676767676767676	-179.0	-0.4670658682634731	-527.0	0.976187153049371	-115.0	16.0	0.045222388598713165	2.408489079039849	-106.0	
1944.0	9.704281740998434	-1.2483598341881068	2153.0	1.4941977732849703	1266.0	9.849172286940528	-16064.0	-1.0987124463519313	1792.0	2240.0	1.3733905579399142	0.0	54921.0	1676.055908203125	704.0	-0.4282608695652174	1.1555555555555554	-185.0	-0.4650698602794412	-528.0	-0.7480695009697085	-57.0	3.0	0.3954183715467399	1.5436023680134996	6.0	
1941.0	9.704395936031393	-1.2003141538252322	2149.0	1.5308239503521817	1266.0	9.809932556713672	-16000.0	-0.9809932556713672	1600.0	2304.0	1.4126302881667687	0.0	55561.0	1695.587158203125	703.0	-0.43043478260869567	1.1535353535353536	-186.0	-0.4930139720558883	-514.0	-0.6760854748139307	5.0	-26.0	0.8629095232006571	0.599916748284261	1.0	
1938.0	9.702579389118249	-1.3473124149062696	2161.0	1.5654803805854929	1266.0	9.888412017167381	-16128.0	-1.137952176578786	1856.0	2304.0	1.4126302881667687	0.0	56201.0	1715.118408203125	702.0	-0.4326086956521739	1.1696969696969697	-178.0	-0.44710578842315374	-537.0	-0.8163509682937953	109.0	-10.0	0.696061903554027	-0.9804296462105982	9.0	
1938.0	9.60492699580271	-1.357532914412614	2162.0	1.564401651657274	1274.0	9.731453096259962	-15872.0	-1.1771919068056407	1920.0	2368.0	1.4518700183936235	0.0	56841.0	1734.649658203125	707.0	-0.4217391304347826	1.1656565656565656	-180.0	-0.44311377245508987	-539.0	-0.6372323472571286	214.0	23.0	0.25272095083791685	-2.579179007325908	-4.0	
1940.0	9.605534670219985	-1.320485305393145	2159.0	1.5406818189494729	1274.0	9.652973635806253	-15744.0	-1.0987124463519313	1792.0	2240.0	1.3733905579399142	0.0	57481.0	1754.180908203125	704.0	-0.4282608695652174	1.1595959595959595	-183.0	-0.48103792415169666	-520.0	-0.40884214108219596	248.0	1.0	0.5873444855933	-3.098573175547353	-19.0	
1946.0	9.56921456991163	-1.3670770256952038	2163.0	1.4675635441168626	1277.0	9.692213366033108	-15808.0	-1.2164316370324952	1984.0	2176.0	1.3341508277130594	0.0	58121.0	1773.712158203125	704.0	-0.4282608695652174	1.1676767676767676	-179.0	-0.44710578842315374	-537.0	-2.5311660718825757	230.0	-45.0	1.4137628332485943	-2.8035856776842163	120.0	
1943.0	9.751718058102886	-1.3714856060068699	2163.0	1.5054890715089115	1262.0	9.888412017167381	-16128.0	-1.1771919068056407	1920.0	2240.0	1.3733905579399142	0.0	58761.0	1793.243408203125	703.0	-0.43043478260869567	1.1474747474747475	-189.0	-0.46307385229540926	-529.0	-3.361615975159208	90.0	4.0	0.6517583601968799	-0.6660036121115258	175.0	
1940.0	9.557372166106187	-1.2585492002749723	2154.0	1.5408195549595165	1278.0	9.692213366033108	-15808.0	-1.020232985898222	1664.0	2304.0	1.4126302881667687	0.0	59401.0	1812.774658203125	704.0	-0.4282608695652174	1.1555555555555554	-185.0	-0.4770459081836328	-522.0	-0.14087799285921013	-56.0	44.0	-0.26092644607190274	1.5223213274571095	-34.0	
1933.0	9.58222267062178	-1.1266179722363323	2143.0	1.6267247216826493	1276.0	9.692213366033108	-15808.0	-0.9025137952176578	1472.0	2624.0	1.6088289393010422	0.0	60041.0	1832.305908203125	703.0	-0.43043478260869567	1.1616161616161615	-182.0	-0.471057884231537	-525.0	2.287800058697798	-122.0	72.0	-0.8899046346625497	2.5018368283103607	-192.0	
1939.0	9.619896061372778	-1.0893552782821045	2140.0	1.5551849259031953	1273.0	9.770692826486817	-15936.0	-0.9025137952176578	1472.0	2368.0	1.4518700183936235	0.0	60681.0	1851.837158203125	703.0	-0.43043478260869567	1.1595959595959595	-183.0	-0.4590818363273454	-531.0	1.7521442211082967	-99.0	42.0	-0.38885548048527985	2.1573835007546966	-157.0	
1941.0	9.59479342021613	-1.1859079422968501	2148.0	1.529871987309313	1275.0	9.692213366033108	-15808.0	-1.020232985898222	1664.0	2304.0	1.4126302881667687	0.0	61321.0	1871.368408203125	704.0	-0.4282608695652174	1.1535353535353536	-186.0	-0.4830339321357286	-519.0	0.603060894322465	-101.0	36.0	-0.22014098849025315	2.1992925849731253	-82.0	
1934.0	9.716572289817474	-1.1168976927933327	2142.0	1.6161172278979516	1265.0	9.849172286940528	-16064.0	-0.9025137952176578	1472.0	2560.0	1.5695892090741874	0.0	61961.0	1890.899658203125	702.0	-0.4326086956521739	1.1555555555555554	-185.0	-0.4970059880239522	-512.0	0.24038793566927652	-172.0	69.0	-0.7328454906059569	3.2827672233049046	-58.0	
1935.0	9.656220479240247	-1.066667180661799	2138.0	1.6039678221424105	1270.0	9.770692826486817	-15936.0	-0.8632740649908032	1408.0	2432.0	1.491109748620478	0.0	62601.0	1910.430908203125	698.0	-0.44130434782608696	1.1717171717171717	-177.0	-0.4610778443113773	-530.0	1.6987225793836684	-241.0	25.0	-0.21665260320272461	4.317613534662438	-152.0	
1936.0	9.656584652134699	-1.0420482529819424	2136.0	1.5921694603770693	1270.0	9.770692826486817	-15936.0	-0.8240343347639485	1344.0	2368.0	1.4518700183936235	0.0	63241.0	1929.962158203125	703.0	-0.43043478260869567	1.1393939393939394	-193.0	-0.4890219560878244	-516.0	1.2205510494433387	-210.0	13.0	0.015397495847987164	3.8509123602280004	-121.0	
1941.0	9.669269596762003	-1.0532925426795856	2137.0	1.5319429030709442	1269.0	9.731453096259962	-15872.0	-0.9025137952176578	1472.0	2304.0	1.4126302881667687	0.0	63881.0	1949.493408203125	702.0	-0.4326086956521739	1.1676767676767676	-179.0	-0.45309381237524954	-534.0	1.1004538083604904	-235.0	20.0	-0.09640038788481328	4.232341469520958	-113.0	
1940.0	9.631969014023692	-1.1137435543174632	2142.0	1.5430135798982665	1272.0	9.770692826486817	-15936.0	-1.020232985898222	1664.0	2304.0	1.4126302881667687	0.0	64521.0	1969.024658203125	704.0	-0.4282608695652174	1.1535353535353536	-186.0	-0.4670658682634731	-527.0	0.1827069792098508	-254.0	22.0	-0.07406915143339739	4.530492321842883	-53.0	
1942.0	9.643802782710903	-1.1744641343741877	2147.0	1.518428326242403	1271.0	9.731453096259962	-15872.0	-0.9809932556713672	1600.0	2240.0	1.3733905579399142	0.0	65161.0	1988.555908203125	705.0	-0.4260869565217391	1.1595959595959595	-183.0	-0.48702594810379246	-517.0	0.4468745062853138	-294.0	38.0	-0.35666987204832085	5.136215665583535	-70.0	
1942.0	9.510179350524556	-1.122994747116597	2143.0	1.5176067857931155	1282.0	9.574494175352545	-15616.0	-0.9025137952176578	1472.0	2368.0	1.4518700183936235	0.0	265.0	2008.087158203125	700.0	-0.43695652173913047	1.1616161616161615	-182.0	-0.49500998003992025	-513.0	-0.830077452926867	-278.0	49.0	-0.42297771661235584	4.905639177571095	13.0	
1943.0	9.583450972133676	-1.1242336222426543	2143.0	1.5062789204868616	1276.0	9.652973635806253	-15744.0	-0.8632740649908032	1408.0	2240.0	1.3733905579399142	0.0	905.0	2027.618408203125	707.0	-0.4217391304347826	1.1656565656565656	-180.0	-0.4610778443113773	-530.0	-0.9000602650874467	-288.0	14.0	0.10054706810831418	5.058430260445552	18.0	
1943.0	9.50969882381759	-1.183707543818452	2148.0	1.5049466597879428	1282.0	9.53525444512569	-15552.0	-1.137952176578786	1856.0	2304.0	1.4126302881667687	0.0	1545.0	2047.149658203125	704.0	-0.4282608695652174	1.1535353535353536	-186.0	-0.4770459081836328	-522.0	1.5182350728913234	-313.0	-31.0	0.5916872557753736	5.414475443947892	-139.0	
1939.0	9.47299512159876	-1.1473518897324768	2145.0	1.5531359503909516	1285.0	9.574494175352545	-15616.0	-0.9417535254445125	1536.0	2304.0	1.4126302881667687	0.0	2185.0	2066.680908203125	705.0	-0.4260869565217391	1.1737373737373737	-176.0	-0.44710578842315374	-537.0	0.7414037177241369	-361.0	-20.0	0.4516356559530771	6.152281780313254	-88.0	
1936.0	9.631719036162197	-1.0903168016344453	2140.0	1.591438118730819	1272.0	9.613733905579398	-15680.0	-0.8632740649908032	1408.0	2496.0	1.5303494788473329	0.0	2825.0	2086.212158203125	707.0	-0.4217391304347826	1.1696969696969697	-178.0	-0.4510978043912176	-535.0	-1.014816316732484	-350.0	-81.0	1.4951033141960655	6.002543600429683	27.0	
1937.0	9.656345468170995	-1.0783805570033083	2139.0	1.5797555527261342	1270.0	9.770692826486817	-15936.0	-0.9025137952176578	1472.0	2496.0	1.5303494788473329	0.0	3465.0	2105.743408203125	706.0	-0.42391304347826086	1.1595959595959595	-183.0	-0.4910179640718563	-515.0	-0.20083802611626017	-294.0	-143.0	2.402054098617623	5.142692790907551	-26.0	
1944.0	9.656722593742794	-1.1254724973687116	2143.0	1.494951055180608	1270.0	9.731453096259962	-15872.0	-0.9417535254445125	1536.0	2240.0	1.3733905579399142	0.0	4105.0	2125.274658203125	704.0	-0.4282608695652174	1.1696969696969697	-178.0	-0.45708582834331346	-532.0	1.2642975259522975	-324.0	-168.0	2.656642307326458	5.58431519964542	-121.0	
1948.0	9.632710312489944	-1.13621656700301	2144.0	1.446410720587399	1272.0	9.692213366033108	-15808.0	-0.9809932556713672	1600.0	2176.0	1.3341508277130594	0.0	4745.0	2144.805908203125	709.0	-0.4173913043478261	1.1555555555555554	-185.0	-0.4790419161676647	-521.0	1.710549665897579	-367.0	-136.0	2.119663342628746	6.233845073683231	-150.0	
1946.0	9.681230513159518	-1.1376783104186956	2144.0	1.4709776907021066	1268.0	9.809932556713672	-16000.0	-0.9809932556713672	1600.0	2240.0	1.3733905579399142	0.0	5385.0	2164.337158203125	708.0	-0.41956521739130437	1.1555555555555554	-185.0	-0.4850299401197605	-518.0	0.5502075475909883	-437.0	-103.0	1.66308497904393	7.310087278136258	-74.0	
1949.0	9.64478326514086	-1.1606048430383689	2146.0	1.4342393745824702	1271.0	9.731453096259962	-15872.0	-0.9809932556713672	1600.0	2112.0	1.2949110974862048	0.0	6025.0	2183.868408203125	710.0	-0.4152173913043478	1.1737373737373737	-176.0	-0.45309381237524954	-534.0	-0.3296854416844536	-435.0	-67.0	1.1858121262029897	7.288467957078442	-17.0	
1944.0	9.570416966068827	-1.221270939611005	2151.0	1.4931300144814452	1277.0	9.652973635806253	-15744.0	-1.0594727161250765	1728.0	2176.0	1.3341508277130594	0.0	6665.0	2203.399658203125	709.0	-0.4173913043478261	1.1575757575757575	-184.0	-0.45508982035928147	-533.0	-1.2270215883510704	-397.0	-52.0	1.046497036511531	6.719494550484272	41.0	
1946.0	9.716115509685647	-1.3090804142448313	2158.0	1.4696125196291066	1265.0	9.731453096259962	-15872.0	-1.1771919068056407	1920.0	2176.0	1.3341508277130594	0.0	7305.0	2222.930908203125	708.0	-0.41956521739130437	1.1494949494949496	-188.0	-0.4790419161676647	-521.0	-0.6617062523403793	-373.0	-61.0	1.156684383314594	6.34882238571732	4.0	
1945.0	9.544829480646095	-1.354632777645852	2162.0	1.479492328475785	1279.0	9.613733905579398	-15680.0	-1.137952176578786	1856.0	2240.0	1.3733905579399142	0.0	7945.0	2242.462158203125	706.0	-0.42391304347826086	1.1676767676767676	-179.0	-0.4590818363273454	-531.0	0.5050913814594831	-376.0	-66.0	1.148612691685719	6.382781785805178	-72.0	
1947.0	9.606032467163416	-1.3553869994183039	2162.0	1.4560004305810652	1274.0	9.692213366033108	-15808.0	-1.1771919068056407	1920.0	2176.0	1.3341508277130594	0.0	8585.0	2261.993408203125	709.0	-0.4173913043478261	1.1595959595959595	-183.0	-0.45309381237524954	-534.0	0.245399518301964	-379.0	-70.0	1.2248321652969518	6.431006080862608	-55.0	
1947.0	9.680025958222764	-1.2715325851620176	2155.0	1.4575789096342213	1268.0	9.692213366033108	-15808.0	-1.0594727161250765	1728.0	2112.0	1.2949110974862048	0.0	9225.0	2281.524658203125	706.0	-0.42391304347826086	1.1616161616161615	-182.0	-0.49500998003992025	-513.0	-0.8204114671046141	-320.0	-77.0	1.4398536722398043	5.544325787674849	14.0	
1949.0	9.729158150868729	-1.2598503422399874	2154.0	1.4340906684477326	1264.0	9.731453096259962	-15872.0	-1.0594727161250765	1728.0	2176.0	1.3341508277130594	0.0	9865.0	2301.055908203125	706.0	-0.42391304347826086	1.1494949494949496	-188.0	-0.471057884231537	-525.0	-0.7186953613365864	-269.0	-89.0	1.6437108922254424	4.767643227377625	7.0	
1947.0	9.655160342250264	-1.3198011338145206	2159.0	1.4568475679879715	1270.0	9.731453096259962	-15872.0	-1.2164316370324952	1984.0	2048.0	1.25567136725935	0.0	10505.0	2320.587158203125	709.0	-0.4173913043478261	1.1454545454545455	-190.0	-0.4830339321357286	-519.0	0.20343199759235392	-217.0	-50.0	1.0264581628556697	3.967547429073506	-54.0	
1948.0	9.679907445630691	-1.2956746428431387	2157.0	1.4452881111604052	1268.0	9.692213366033108	-15808.0	-1.1771919068056407	1920.0	2240.0	1.3733905579399142	0.0	11145.0	2340.118408203125	709.0	-0.4173913043478261	1.1575757575757575	-184.0	-0.49500998003992025	-513.0	0.8772029091799979	-219.0	-41.0	0.8434144436380135	3.9912279709082004	-98.0	
1945.0	9.631859136549851	-1.1856928573620915	2148.0	1.4820520242376602	1272.0	9.770692826486817	-15936.0	-0.9809932556713672	1600.0	2240.0	1.3733905579399142	0.0	11785.0	2359.649658203125	710.0	-0.4152173913043478	1.1696969696969697	-178.0	-0.45708582834331346	-532.0	1.8662300452845488	-265.0	-46.0	0.8215558828312418	4.680957471410273	-162.0	
1947.0	9.657211755567996	-1.1125669460303638	2142.0	1.4589404239989903	1270.0	9.770692826486817	-15936.0	-0.9417535254445125	1536.0	2240.0	1.3733905579399142	0.0	12425.0	2379.180908203125	706.0	-0.42391304347826086	1.1474747474747475	-189.0	-0.5049900199600799	-508.0	0.24100307368061144	-292.0	-23.0	0.5734182383346713	5.107856128959011	-56.0	
1945.0	9.680624997521804	-1.1866777307790415	2148.0	1.4825298341132103	1268.0	9.849172286940528	-16064.0	-1.020232985898222	1664.0	2112.0	1.2949110974862048	0.0	13065.0	2398.712158203125	705.0	-0.4260869565217391	1.1636363636363636	-181.0	-0.4890219560878244	-516.0	-0.5497740865833854	-267.0	10.0	0.1489128304761748	4.735535763679523	-5.0	
1944.0	9.7293886997142	-1.1757107928551147	2147.0	1.4951753332854578	1264.0	9.770692826486817	-15936.0	-1.0594727161250765	1728.0	2112.0	1.2949110974862048	0.0	13705.0	2418.243408203125	707.0	-0.4217391304347826	1.1575757575757575	-184.0	-0.5169660678642716	-502.0	0.029317548359153192	-259.0	27.0	-0.1413975908818755	4.608071843527815	-43.0	
1949.0	9.595172704567489	-1.2449516940031302	2153.0	1.432899800467089	1275.0	9.692213366033108	-15808.0	-1.0987124463519313	1792.0	2176.0	1.3341508277130594	0.0	14345.0	2437.774658203125	711.0	-0.41304347826086957	1.1595959595959595	-183.0	-0.4590818363273454	-531.0	1.3057211705256382	-262.0	7.0	0.06778969692082165	4.640935183732006	-126.0	
1947.0	9.619068632007824	-1.2703014933908299	2155.0	1.4569816472897839	1273.0	9.731453096259962	-15872.0	-0.9809932556713672	1600.0	2112.0	1.2949110974862048	0.0	14985.0	2457.305908203125	711.0	-0.41304347826086957	1.1595959595959595	-183.0	-0.4890219560878244	-516.0	0.4935796925854845	-308.0	47.0	-0.5033701970141058	5.348676370374525	-73.0	
1946.0	9.643208060970979	-1.2832226114389174	2156.0	1.469142023170019	1271.0	9.770692826486817	-15936.0	-1.137952176578786	1856.0	2240.0	1.3733905579399142	0.0	15625.0	2476.837158203125	706.0	-0.42391304347826086	1.1737373737373737	-176.0	-0.47504990019960086	-523.0	0.19857000680803583	-373.0	32.0	-0.29749369289784783	6.3402196231258365	-53.0	
1945.0	9.667950846792293	-1.235192497785782	2152.0	1.4819179449358477	1269.0	9.770692826486817	-15936.0	-1.020232985898222	1664.0	2240.0	1.3733905579399142	0.0	16265.0	2496.368408203125	713.0	-0.40869565217391307	1.1494949494949496	-188.0	-0.4670658682634731	-527.0	0.02984252828939825	-340.0	0.0	0.21408590517445572	5.840005757226613	-42.0	
1943.0	9.692208788347521	-1.2239715581527482	2151.0	1.5063691192898991	1267.0	9.809932556713672	-16000.0	-0.9809932556713672	1600.0	2240.0	1.3733905579399142	0.0	16905.0	2515.899658203125	711.0	-0.41304347826086957	1.1595959595959595	-183.0	-0.5049900199600799	-508.0	-0.6519445857861789	-281.0	-11.0	0.46234936566517426	4.949485225325542	2.0	
1943.0	9.642839570517411	-1.2839379164370206	2156.0	1.505275763528755	1271.0	9.692213366033108	-15808.0	-1.137952176578786	1856.0	2176.0	1.3341508277130594	0.0	17545.0	2535.430908203125	711.0	-0.41304347826086957	1.1696969696969697	-178.0	-0.45708582834331346	-532.0	-0.15363564646754424	-210.0	-28.0	0.7257335435565481	3.8646542271871094	-31.0	
1949.0	9.704775220382752	-1.2593579055315123	2154.0	1.4338517635099577	1266.0	9.809932556713672	-16000.0	-1.0594727161250765	1728.0	2176.0	1.3341508277130594	0.0	18185.0	2554.962158203125	716.0	-0.40217391304347827	1.1717171717171717	-177.0	-0.4650698602794412	-528.0	1.303590451416808	-194.0	-45.0	0.8889170111661205	3.606735958603703	-126.0	
1950.0	9.668082312061715	-1.2827613081499212	2156.0	1.4212026076294788	1269.0	9.770692826486817	-15936.0	-1.0987124463519313	1792.0	2112.0	1.2949110974862048	0.0	18825.0	2574.493408203125	710.0	-0.4152173913043478	1.1636363636363636	-181.0	-0.5049900199600799	-508.0	1.9926787773453503	-201.0	-31.0	0.626802856074651	3.7063089536714138	-171.0	
1946.0	9.642966718227717	-1.3076031041194063	2158.0	1.4688958048157816	1271.0	9.731453096259962	-15872.0	-1.0594727161250765	1728.0	2176.0	1.3341508277130594	0.0	19465.0	2594.024658203125	709.0	-0.4173913043478261	1.1494949494949496	-188.0	-0.4770459081836328	-522.0	0.6561188909165837	-238.0	20.0	-0.06729977268775161	4.282412195121252	-84.0	
1947.0	9.582011550792334	-1.3183238236890955	2159.0	1.4561308531746464	1276.0	9.692213366033108	-15808.0	-1.0594727161250765	1728.0	2176.0	1.3341508277130594	0.0	20105.0	2613.555908203125	714.0	-0.40652173913043477	1.1454545454545455	-190.0	-0.4790419161676647	-521.0	0.304074186078894	-249.0	26.0	-0.1394444989289295	4.453233022397767	-61.0	
1945.0	9.484475511289311	-1.2924504541734416	2157.0	1.4795106120169415	1284.0	9.45677498467198	-15424.0	-1.0594727161250765	1728.0	2240.0	1.3733905579399142	0.0	20745.0	2633.087158203125	711.0	-0.41304347826086957	1.1515151515151516	-187.0	-0.4910179640718563	-515.0	0.7937414900501707	-228.0	13.0	0.03415287083954635	4.128944714377066	-93.0	
1946.0	9.580923349668094	-1.4160842294104192	2167.0	1.467190559877275	1276.0	9.652973635806253	-15744.0	-1.1771919068056407	1920.0	2304.0	1.4126302881667687	0.0	21385.0	2652.618408203125	711.0	-0.41304347826086957	1.1717171717171717	-177.0	-0.48103792415169666	-520.0	1.0019294055027013	-174.0	4.0	0.1874472366837996	3.3055700595571404	-107.0	
1947.0	9.592634288204115	-1.4770432444665116	2172.0	1.4546498863409902	1275.0	9.652973635806253	-15744.0	-1.3341508277130594	2176.0	2240.0	1.3733905579399142	0.0	22025.0	2672.149658203125	715.0	-0.4043478260869565	1.1595959595959595	-183.0	-0.4770459081836328	-522.0	-0.12820985339555716	-173.0	-29.0	0.7614659178102857	3.301662326670838	-33.0	
1943.0	9.65406566478735	-1.381706105513214	2164.0	1.5044103425806927	1270.0	9.809932556713672	-16000.0	-1.2164316370324952	1984.0	2304.0	1.4126302881667687	0.0	22665.0	2691.680908203125	711.0	-0.41304347826086957	1.1595959595959595	-183.0	-0.4930139720558883	-514.0	-0.4423977369950765	-186.0	-69.0	1.3751247991867015	3.5025228366855408	-12.0	
1945.0	9.703680542919837	-1.3212628772302062	2159.0	1.481414538102679	1266.0	9.849172286940528	-16064.0	-1.0594727161250765	1728.0	2304.0	1.4126302881667687	0.0	23305.0	2711.212158203125	711.0	-0.41304347826086957	1.1454545454545455	-190.0	-0.4910179640718563	-515.0	0.019008016277521703	-99.0	-60.0	1.2610061816797877	2.174714862803004	-43.0	
1946.0	9.691491236456407	-1.3329684702168452	2160.0	1.469127396337094	1267.0	9.809932556713672	-16000.0	-1.0594727161250765	1728.0	2112.0	1.2949110974862048	0.0	23945.0	2730.743408203125	713.0	-0.40869565217391307	1.1676767676767676	-179.0	-0.4650698602794412	-528.0	0.6112119744268089	-47.0	-71.0	1.4163413084105756	1.3779182985066827	-82.0	
1946.0	9.667349648713694	-1.3080955408278814	2158.0	1.4691347097535565	1269.0	9.731453096259962	-15872.0	-1.0987124463519313	1792.0	2176.0	1.3341508277130594	0.0	24585.0	2750.274658203125	710.0	-0.4152173913043478	1.1595959595959595	-183.0	-0.49500998003992025	-513.0	0.9088007349478686	-12.0	-44.0	1.012124305144309	0.842623019266491	-102.0	
1948.0	9.668319337245862	-1.2344771927876788	2152.0	1.4457842045771114	1269.0	9.770692826486817	-15936.0	-0.9809932556713672	1600.0	2240.0	1.3733905579399142	0.0	25225.0	2769.805908203125	711.0	-0.41304347826086957	1.1636363636363636	-181.0	-0.4650698602794412	-528.0	0.082149586384002	-38.0	-29.0	0.8289541783681683	1.2463267931095443	-48.0	
1948.0	9.667957323130967	-1.2710479318084122	2155.0	1.445414877045755	1269.0	9.770692826486817	-15936.0	-1.137952176578786	1856.0	2112.0	1.2949110974862048	0.0	25865.0	2789.337158203125	715.0	-0.4043478260869565	1.1474747474747475	-189.0	-0.4730538922155689	-524.0	-0.8850928769350124	-67.0	6.0	0.3538940370794332	1.6970638565260043	15.0	
1945.0	9.704525242521257	-1.2359311528484946	2152.0	1.4822763023425103	1266.0	9.809932556713672	-16000.0	-1.0594727161250765	1728.0	2240.0	1.3733905579399142	0.0	26505.0	2808.868408203125	709.0	-0.4173913043478261	1.1535353535353536	-186.0	-0.5129740518962077	-504.0	-0.012145754534535261	-83.0	30.0	-0.07641701289884502	1.9316803929065622	-42.0	
1946.0	9.656364897187018	-1.1859468590711988	2148.0	1.4702463490558566	1270.0	9.731453096259962	-15872.0	-1.0594727161250765	1728.0	2176.0	1.3341508277130594	0.0	27145.0	2828.399658203125	706.0	-0.42391304347826086	1.1777777777777778	-174.0	-0.4850299401197605	-518.0	0.7049072342969529	-55.0	28.0	-0.07930467289294534	1.4986543497102625	-89.0	
1947.0	9.607480523622993	-1.2091040433353697	2150.0	1.4574777407064903	1274.0	9.770692826486817	-15936.0	-1.020232985898222	1664.0	2112.0	1.2949110974862048	0.0	27785.0	2847.930908203125	713.0	-0.40869565217391307	1.1616161616161615	-182.0	-0.4670658682634731	-527.0	-0.20021974651149357	-41.0	16.0	0.17211932021499346	1.2947778628643547	-30.0	
1949.0	9.64369722279618	-1.2703170601005693	2155.0	1.4331313919884012	1271.0	9.770692826486817	-15936.0	-1.0594727161250765	1728.0	2176.0	1.3341508277130594	0.0	28425.0	2867.462158203125	709.0	-0.4173913043478261	1.1575757575757575	-184.0	-0.5189620758483035	-501.0	-0.7947657968942037	-79.0	29.0	-0.004520694126440518	1.8786700914290184	9.0	
1947.0	9.667834492979777	-1.27128636680778	2155.0	1.4574594571653339	1269.0	9.809932556713672	-16000.0	-1.0594727161250765	1728.0	2240.0	1.3733905579399142	0.0	29065.0	2886.993408203125	710.0	-0.4152173913043478	1.1656565656565656	-180.0	-0.4590818363273454	-531.0	-0.6639117298363743	-138.0	32.0	-0.09449918455971626	2.774699953800265	1.0	
1943.0	9.655151707132031	-1.2719938884510136	2155.0	1.5055183251747615	1270.0	9.731453096259962	-15872.0	-1.0987124463519313	1792.0	2432.0	1.491109748620478	0.0	29705.0	2906.524658203125	714.0	-0.40652173913043477	1.1717171717171717	-177.0	-0.4610778443113773	-530.0	0.0178351793265506	-169.0	16.0	0.07907197494320553	3.2393653744424764	-43.0	
1943.0	9.655513721246926	-1.23542314943028	2152.0	1.5058876527061178	1270.0	9.731453096259962	-15872.0	-1.0594727161250765	1728.0	2304.0	1.4126302881667687	0.0	30345.0	2926.055908203125	713.0	-0.40869565217391307	1.1636363636363636	-181.0	-0.500998003992016	-510.0	0.5940314089314169	-97.0	-10.0	0.4725760961828024	2.138546377925895	-81.0	
1946.0	9.668073676943482	-1.2349540627864144	2152.0	1.469873364816269	1269.0	9.770692826486817	-15936.0	-1.0987124463519313	1792.0	2176.0	1.3341508277130594	0.0	30985.0	2945.587158203125	712.0	-0.4108695652173913	1.1656565656565656	-180.0	-0.5149700598802396	-503.0	0.8683219102650259	-53.0	-41.0	0.9450211543183891	1.4666019520000115	-99.0	
1948.0	9.618950119415752	-1.294443551071951	2157.0	1.4446908488159678	1273.0	9.692213366033108	-15808.0	-1.0987124463519313	1792.0	2048.0	1.25567136725935	0.0	31625.0	2965.118408203125	708.0	-0.41956521739130437	1.1555555555555554	-185.0	-0.4970059880239522	-512.0	0.34847702362240923	-62.0	-43.0	1.0057120807538646	1.6086825301440042	-65.0	
1946.0	9.729272345901686	-1.2118046618771128	2150.0	1.470716845514944	1264.0	9.809932556713672	-16000.0	-1.0987124463519313	1792.0	2176.0	1.3341508277130594	0.0	32265.0	2984.649658203125	713.0	-0.40869565217391307	1.1616161616161615	-182.0	-0.4910179640718563	-515.0	0.2906422182665089	-83.0	-46.0	1.0419392290517735	1.928652513178552	-61.0	
1950.0	9.631869930447643	-1.245451914066475	2153.0	1.4212135777541726	1272.0	9.731453096259962	-15872.0	-1.1771919068056407	1920.0	2176.0	1.3341508277130594	0.0	32905.0	3004.180908203125	713.0	-0.40869565217391307	1.1797979797979798	-173.0	-0.4650698602794412	-528.0	0.9286446993292979	-47.0	-40.0	0.9294803745654583	1.3747439712576575	-103.0	
1950.0	9.70477737916231	-1.271309716872389	2155.0	1.4216840742132602	1266.0	9.849172286940528	-16064.0	-1.0987124463519313	1792.0	2176.0	1.3341508277130594	0.0	33545.0	3023.712158203125	711.0	-0.41304347826086957	1.1575757575757575	-184.0	-0.4650698602794412	-528.0	0.30864426512603305	-29.0	-14.0	0.5937778776769366	1.1071797170445572	-63.0	
1948.0	9.740985443217264	-1.2847154882740819	2156.0	1.4460084826819615	1263.0	9.770692826486817	-15936.0	-1.137952176578786	1856.0	2048.0	1.25567136725935	0.0	34185.0	3043.243408203125	713.0	-0.40869565217391307	1.1595959595959595	-183.0	-0.4910179640718563	-515.0	0.5100127623802185	-57.0	0.0	0.35283335726196274	1.5310215453800002	-76.0	
1947.0	9.680025958222764	-1.2715325851620176	2155.0	1.4575789096342213	1268.0	9.770692826486817	-15936.0	-1.020232985898222	1664.0	2240.0	1.3733905579399142	0.0	34825.0	3062.774658203125	712.0	-0.4108695652173913	1.1757575757575758	-175.0	-0.471057884231537	-525.0	0.6126689695547543	-72.0	46.0	-0.35309216245634906	1.7581318654375326	-83.0	
1946.0	9.692577278801089	-1.2232562531546447	2151.0	1.4702353789311629	1267.0	9.692213366033108	-15808.0	-1.0594727161250765	1728.0	2112.0	1.2949110974862048	0.0	35465.0	3082.305908203125	716.0	-0.40217391304347827	1.1696969696969697	-178.0	-0.4590818363273454	-531.0	0.18740158731206844	-117.0	62.0	-0.5907500384777864	2.446795185647792	-55.0	
1945.0	9.717078721879139	-1.1996066321819985	2149.0	1.482765082342754	1265.0	9.849172286940528	-16064.0	-0.9809932556713672	1600.0	2368.0	1.4518700183936235	0.0	36105.0	3101.837158203125	711.0	-0.41304347826086957	1.1676767676767676	-179.0	-0.5049900199600799	-508.0	-0.09060772034488637	-116.0	74.0	-0.7507022706233621	2.4343661532490763	-37.0	
1947.0	9.680870657824183	-1.186200860780306	2148.0	1.4584406738740527	1268.0	9.770692826486817	-15936.0	-1.0594727161250765	1728.0	2112.0	1.2949110974862048	0.0	36745.0	3121.368408203125	713.0	-0.40869565217391307	1.1737373737373737	-176.0	-0.4730538922155689	-524.0	0.4683051097779825	-82.0	98.0	-1.1287382829085484	1.911666758788152	-74.0	
1947.0	9.632466810967124	-1.1486452483426222	2145.0	1.458332191529859	1272.0	9.731453096259962	-15872.0	-0.9809932556713672	1600.0	2048.0	1.25567136725935	0.0	37385.0	3140.899658203125	716.0	-0.40217391304347827	1.1535353535353536	-186.0	-0.4850299401197605	-518.0	0.78041043660285	-89.0	69.0	-0.7199367600929869	2.0150095838468993	-94.0	
1946.0	9.632585323559196	-1.124503190661501	2143.0	1.4706229900036754	1272.0	9.731453096259962	-15872.0	-0.9417535254445125	1536.0	2112.0	1.2949110974862048	0.0	38025.0	3160.430908203125	716.0	-0.40217391304347827	1.1555555555555554	-185.0	-0.4910179640718563	-515.0	0.8286293380922168	-99.0	64.0	-0.6544139270861313	2.166618649584857	-97.0	
1946.0	9.546038353141967	-1.2446821255842835	2153.0	1.468555730950275	1279.0	9.652973635806253	-15744.0	-1.0987124463519313	1792.0	2048.0	1.25567136725935	0.0	38665.0	3179.962158203125	715.0	-0.4043478260869565	1.1757575757575758	-175.0	-0.46307385229540926	-529.0	0.7260731123285958	-135.0	67.0	-0.7141546657017718	2.7151727289527594	-90.0	
1945.0	9.595405412192518	-1.1727639559591343	2147.0	1.4818167760081167	1275.0	9.731453096259962	-15872.0	-1.020232985898222	1664.0	2304.0	1.4126302881667687	0.0	39305.0	3199.493408203125	714.0	-0.40652173913043477	1.1636363636363636	-181.0	-0.4610778443113773	-530.0	0.8321788958251631	-211.0	47.0	-0.467925294715481	3.8700052072394673	-96.0	
1945.0	9.558710345091923	-1.1842155472366662	2148.0	1.4813353094243353	1278.0	9.574494175352545	-15616.0	-1.020232985898222	1664.0	2112.0	1.2949110974862048	0.0	39945.0	3219.024658203125	714.0	-0.40652173913043477	1.1515151515151516	-187.0	-0.4890219560878244	-516.0	1.4067636811000628	-230.0	18.0	-0.08469272243617867	4.153232743417138	-133.0	
1945.0	9.58321394694953	-1.1725177376048967	2147.0	1.481697323539229	1276.0	9.692213366033108	-15808.0	-0.9809932556713672	1600.0	2176.0	1.3341508277130594	0.0	40585.0	3238.555908203125	715.0	-0.4043478260869565	1.1575757575757575	-184.0	-0.5049900199600799	-508.0	0.551400631507156	-214.0	-21.0	0.5692820322965817	3.9184403663085026	-77.0	
1947.0	9.582856250393753	-1.232992099307384	2152.0	1.4569926174144776	1276.0	9.652973635806253	-15744.0	-1.0594727161250765	1728.0	2112.0	1.2949110974862048	0.0	41225.0	3258.087158203125	720.0	-0.3934782608695652	1.1656565656565656	-180.0	-0.4610778443113773	-530.0	0.37025791087810533	-200.0	-54.0	1.0851592996066792	3.707324036860801	-65.0	
1945.0	9.558106988233765	-1.2451667789378886	2153.0	1.4807197635387415	1278.0	9.613733905579398	-15680.0	-1.137952176578786	1856.0	2048.0	1.25567136725935	0.0	41865.0	3277.618408203125	715.0	-0.4043478260869565	1.1676767676767676	-179.0	-0.4770459081836328	-522.0	0.6618143635909639	-199.0	-56.0	1.0954603430131276	3.6891993468583872	-84.0	
1944.0	9.508856282995728	-1.2809910795410402	2156.0	1.491917206251414	1282.0	9.613733905579398	-15680.0	-0.9417535254445125	1536.0	2240.0	1.3733905579399142	0.0	42505.0	3297.149658203125	712.0	-0.4108695652173913	1.1575757575757575	-184.0	-0.5249500998003993	-498.0	0.73095327022611	-237.0	-71.0	1.292417960610777	4.266454725852872	-88.0	
1947.0	9.521898924178812	-1.2317610075361962	2152.0	1.4563953550700401	1281.0	9.53525444512569	-15552.0	-1.137952176578786	1856.0	2176.0	1.3341508277130594	0.0	43145.0	3316.680908203125	717.0	-0.4	1.1616161616161615	-182.0	-0.4890219560878244	-516.0	1.3967511656014455	-233.0	-117.0	1.9381670595824925	4.198960244997979	-131.0	
1951.0	9.60712714462633	-1.2934820277196102	2157.0	1.408437655988344	1274.0	9.652973635806253	-15744.0	-1.0594727161250765	1728.0	2176.0	1.3341508277130594	0.0	43785.0	3336.212158203125	715.0	-0.4043478260869565	1.1555555555555554	-185.0	-0.502994011976048	-509.0	0.09598001037597276	-188.0	-180.0	3.000604893973632	3.5275573101624005	-46.0	
1948.0	9.716361169988026	-1.3086035442460957	2158.0	1.445523359389949	1265.0	9.809932556713672	-16000.0	-1.0987124463519313	1792.0	2432.0	1.491109748620478	0.0	44425.0	3355.743408203125	713.0	-0.40869565217391307	1.1494949494949496	-188.0	-0.5269461077844312	-497.0	-1.1058555348325698	-190.0	-141.0	2.498328271705213	3.569993916565056	32.0	
1950.0	9.679791091818178	-1.3317685118651366	2160.0	1.4208296233898914	1268.0	9.692213366033108	-15808.0	-1.0987124463519313	1792.0	2240.0	1.3733905579399142	0.0	45065.0	3375.274658203125	715.0	-0.4043478260869565	1.1616161616161615	-182.0	-0.48103792415169666	-520.0	-0.33994421643077954	-200.0	-125.0	2.199057133784319	3.7144260581338893	-18.0	
1950.0	9.656132189561989	-1.2581345971151945	2154.0	1.421329373514829	1270.0	9.770692826486817	-15936.0	-1.0594727161250765	1728.0	2240.0	1.3733905579399142	0.0	45705.0	3394.805908203125	714.0	-0.40652173913043477	1.1696969696969697	-178.0	-0.49500998003992025	-513.0	-0.03645716783781918	-189.0	-114.0	2.019708909181989	3.544090807419823	-38.0	
1952.0	9.643945041878116	-1.2817920014427107	2156.0	1.3968745424525464	1271.0	9.770692826486817	-15936.0	-1.0987124463519313	1792.0	2112.0	1.2949110974862048	0.0	46345.0	3414.337158203125	714.0	-0.40652173913043477	1.1474747474747475	-189.0	-0.4790419161676647	-521.0	-0.3992302366892042	-147.0	-88.0	1.6807041481212504	2.9089352681463603	-15.0	
1947.0	9.67966394410787	-1.3081033241827509	2158.0	1.4572095821028652	1268.0	9.692213366033108	-15808.0	-1.137952176578786	1856.0	2240.0	1.3733905579399142	0.0	46985.0	3433.868408203125	715.0	-0.4043478260869565	1.1595959595959595	-183.0	-0.4930139720558883	-514.0	-0.6406752418427669	-110.0	-48.0	1.120318076258323	2.3486120756123436	0.0	
1948.0	9.631141584658739	-1.2946897694261885	2157.0	1.4448103012848552	1272.0	9.692213366033108	-15808.0	-1.0594727161250765	1728.0	2176.0	1.3341508277130594	0.0	47625.0	3453.399658203125	714.0	-0.40652173913043477	1.1656565656565656	-180.0	-0.4990019960079841	-511.0	-0.35963744206598863	-141.0	-51.0	1.1268760410488832	2.8172845873484165	-18.0	
1949.0	9.692583755139763	-1.259111687177275	2154.0	1.4337323110410702	1267.0	9.770692826486817	-15936.0	-1.0987124463519313	1792.0	2112.0	1.2949110974862048	0.0	48265.0	3472.930908203125	713.0	-0.40869565217391307	1.1757575757575758	-175.0	-0.4830339321357286	-519.0	-0.7897075000306146	-150.0	-38.0	0.9564310831864815	2.95846741720563	10.0	
1947.0	9.679905286851133	-1.2837228315022622	2156.0	1.4574558004571028	1268.0	9.770692826486817	-15936.0	-1.0594727161250765	1728.0	2112.0	1.2949110974862048	0.0	48905.0	3492.462158203125	716.0	-0.40217391304347827	1.1535353535353536	-186.0	-0.49500998003992025	-513.0	-0.9909849062495606	-137.0	-38.0	0.9783487359064684	2.7627615600891122	23.0	
1949.0	9.680030275781881	-1.295436207843771	2157.0	1.4332435310408265	1268.0	9.809932556713672	-16000.0	-1.0987124463519313	1792.0	2176.0	1.3341508277130594	0.0	49545.0	3511.993408203125	713.0	-0.40869565217391307	1.1555555555555554	-185.0	-0.5109780439121757	-505.0	-0.5494140981954347	-113.0	-40.0	0.9922011756184268	2.393326840601726	-6.0	
1948.0	9.680269459745585	-1.2591039038224052	2154.0	1.4456574386917613	1268.0	9.809932556713672	-16000.0	-1.0987124463519313	1792.0	1984.0	1.2164316370324952	0.0	50185.0	3531.524658203125	713.0	-0.40869565217391307	1.1555555555555554	-185.0	-0.4830339321357286	-519.0	-0.7232104260003147	-112.0	-7.0	0.5101531413645021	2.3798556784044904	5.0	
1950.0	9.643699381575738	-1.282268871441446	2156.0	1.420963702691704	1271.0	9.849172286940528	-16064.0	-1.0987124463519313	1792.0	2112.0	1.2949110974862048	0.0	50825.0	3551.055908203125	712.0	-0.4108695652173913	1.1757575757575758	-175.0	-0.4830339321357286	-519.0	-0.9547084723789439	-98.0	-11.0	0.5947525306511181	2.1692429022142843	20.0	
1950.0	9.619195779718131	-1.2939666810732156	2157.0	1.4206016885768102	1273.0	9.652973635806253	-15744.0	-1.137952176578786	1856.0	2176.0	1.3341508277130594	0.0	51465.0	3570.587158203125	713.0	-0.40869565217391307	1.1656565656565656	-180.0	-0.5069860279441119	-507.0	-0.6296278234466013	-96.0	-33.0	0.9031787299822205	2.13557384477439	-1.0	
1953.0	9.619805612914961	-1.2688708833946232	2155.0	1.3847141665723113	1273.0	9.770692826486817	-15936.0	-1.0987124463519313	1792.0	2112.0	1.2949110974862048	0.0	52105.0	3590.118408203125	715.0	-0.4043478260869565	1.1737373737373737	-176.0	-0.471057884231537	-525.0	-0.8273451195099477	-92.0	-48.0	1.144260870086164	2.0767145158338827	12.0	
1951.0	9.680637950199152	-1.2583885988243018	2154.0	1.409523698333025	1268.0	9.731453096259962	-15872.0	-1.1771919068056407	1920.0	2112.0	1.2949110974862048	0.0	52745.0	3609.649658203125	717.0	-0.4	1.1575757575757575	-184.0	-0.4770459081836328	-522.0	-0.6618635440357111	-74.0	-44.0	1.0837239077828589	1.8012954415240074	1.0	
1952.0	9.644548398736273	-1.220840769741488	2151.0	1.3974900883381403	1271.0	9.652973635806253	-15744.0	-0.9809932556713672	1600.0	2112.0	1.2949110974862048	0.0	53385.0	3629.180908203125	718.0	-0.3978260869565217	1.1575757575757575	-184.0	-0.49500998003992025	-513.0	0.048270045186517466	-77.0	-72.0	1.4522636198634835	1.8398214820576406	-45.0	
1949.0	9.632591799897872	-1.1603586246841313	2146.0	1.4341199221135827	1272.0	9.731453096259962	-15872.0	-0.8240343347639485	1344.0	2112.0	1.2949110974862048	0.0	54025.0	3648.712158203125	713.0	-0.40869565217391307	1.1717171717171717	-177.0	-0.4850299401197605	-518.0	0.4072929931775799	-82.0	-109.0	1.9789564362689083	1.9122768799541556	-68.0	
1951.0	9.644908254071607	-1.1723182193798776	2147.0	1.410027105166194	1271.0	9.692213366033108	-15808.0	-0.9809932556713672	1600.0	2112.0	1.2949110974862048	0.0	54665.0	3668.243408203125	715.0	-0.4043478260869565	1.1616161616161615	-182.0	-0.48702594810379246	-517.0	0.7812711148514455	-108.0	-123.0	2.1470051209798737	2.3039743610948316	-92.0	
1954.0	9.61992844306615	-1.2686324483952554	2155.0	1.3726695864527325	1273.0	9.613733905579398	-15680.0	-1.137952176578786	1856.0	1920.0	1.1771919068056407	0.0	55305.0	3687.774658203125	713.0	-0.40869565217391307	1.1656565656565656	-180.0	-0.4990019960079841	-511.0	0.8780046150971985	-129.0	-134.0	2.292414345192915	2.6223986610733627	-98.0	
1957.0	9.668338766261884	-1.342043494855569	2161.0	1.3362750009068338	1269.0	9.731453096259962	-15872.0	-1.1771919068056407	1920.0	1984.0	1.2164316370324952	0.0	55945.0	3707.305908203125	713.0	-0.40869565217391307	1.1737373737373737	-176.0	-0.4730538922155689	-524.0	0.4383930252913588	-150.0	-148.0	2.520130698917925	2.94618641195241	-69.0	
1951.0	9.65541032011176	-1.3432278864975382	2161.0	1.408423029155419	1270.0	9.809932556713672	-16000.0	-1.2164316370324952	1984.0	1984.0	1.2164316370324952	0.0	56585.0	3726.837158203125	721.0	-0.391304347826087	1.1717171717171717	-177.0	-0.4670658682634731	-527.0	1.3903493888064518	-108.0	-196.0	3.1990660467257985	2.2978835783552816	-131.0	
1954.0	9.66821161855158	-1.3183783071731836	2159.0	1.3726549596198077	1269.0	9.692213366033108	-15808.0	-1.1771919068056407	1920.0	1984.0	1.2164316370324952	0.0	57225.0	3746.368408203125	715.0	-0.4043478260869565	1.1676767676767676	-179.0	-0.5069860279441119	-507.0	2.2144371198951953	-48.0	-227.0	3.6429790579746104	1.3770951725272838	-185.0	
1958.0	9.681015075770954	-1.3054805391897053	2158.0	1.3247192007874988	1268.0	9.731453096259962	-15872.0	-1.137952176578786	1856.0	1984.0	1.2164316370324952	0.0	57865.0	3765.899658203125	719.0	-0.39565217391304347	1.1676767676767676	-179.0	-0.4770459081836328	-522.0	2.398337912114042	-8.0	-265.0	4.224229306025421	0.7668911455936887	-197.0	
1965.0	9.767456486273462	-1.2811545299933045	2156.0	1.2414895255868976	1261.0	9.809932556713672	-16000.0	-1.0987124463519313	1792.0	1856.0	1.137952176578786	0.0	58505.0	3785.430908203125	718.0	-0.3978260869565217	1.1494949494949496	-188.0	-0.4930139720558883	-514.0	1.730528850626402	10.0	-227.0	3.71194424461838	0.4998049776534318	-154.0	
1968.0	9.731009238254805	-1.3040810626129775	2158.0	1.2047512094672612	1264.0	9.849172286940528	-16064.0	-1.0987124463519313	1792.0	1792.0	1.0987124463519313	0.0	59145.0	3804.962158203125	720.0	-0.3934782608695652	1.1575757575757575	-184.0	-0.49500998003992025	-513.0	0.9903696080077666	-51.0	-141.0	2.4369937394061107	1.4349632240720136	-106.0	
1968.0	9.658101789540137	-1.2782232598070635	2156.0	1.2042807130081736	1270.0	9.692213366033108	-15808.0	-1.0987124463519313	1792.0	1600.0	0.9809932556713672	0.0	59785.0	3824.493408203125	715.0	-0.4043478260869565	1.1717171717171717	-177.0	-0.4930139720558883	-514.0	-0.3965456041705783	-88.0	-61.0	1.3116132326202268	2.011570018779349	-16.0	
1968.0	9.669931240668232	-1.3150402171820346	2159.0	1.204030837945705	1269.0	9.731453096259962	-15872.0	-1.1771919068056407	1920.0	1600.0	0.9809932556713672	0.0	60425.0	3844.024658203125	720.0	-0.3934782608695652	1.1636363636363636	-181.0	-0.4930139720558883	-514.0	-1.548753286308705	-99.0	65.0	-0.503940600175953	2.1903924758288666	58.0	
1958.0	9.583362682455418	-1.3157010386960497	2159.0	1.32364047185928	1276.0	9.731453096259962	-15872.0	-1.1771919068056407	1920.0	1920.0	1.1771919068056407	0.0	61065.0	3863.555908203125	719.0	-0.39565217391304347	1.1595959595959595	-183.0	-0.5069860279441119	-507.0	-2.374689701812167	-110.0	163.0	-1.9224128081823793	2.365952220212038	111.0	
1952.0	9.546654662677472	-1.2554417619283214	2154.0	1.3961651410556837	1279.0	9.613733905579398	-15680.0	-1.0594727161250765	1728.0	2112.0	1.2949110974862048	0.0	61705.0	3883.087158203125	716.0	-0.40217391304347827	1.1737373737373737	-176.0	-0.4770459081836328	-522.0	-2.1592189555635692	-109.0	157.0	-1.8468461846135147	2.348588387274267	97.0	
1949.0	9.570789774081511	-1.2444592572946551	2153.0	1.4326608955293139	1277.0	9.652973635806253	-15744.0	-1.020232985898222	1664.0	2048.0	1.25567136725935	0.0	62345.0	3902.618408203125	712.0	-0.4108695652173913	1.1656565656565656	-180.0	-0.5209580838323354	-500.0	-2.6634831068766758	-94.0	130.0	-1.3978263231975512	2.1254941466581205	130.0	
1947.0	9.729274504681245	-1.2237564732179895	2151.0	1.4585491562182464	1264.0	9.849172286940528	-16064.0	-1.020232985898222	1664.0	2304.0	1.4126302881667687	0.0	62985.0	3922.149658203125	713.0	-0.40869565217391307	1.1636363636363636	-181.0	-0.5149700598802396	-503.0	-1.9351790263713917	-62.0	49.0	-0.21465580299415304	1.631519090643942	83.0	
1953.0	9.644912571630725	-1.196221842061631	2149.0	1.3856917265727988	1271.0	9.692213366033108	-15808.0	-1.020232985898222	1664.0	2112.0	1.2949110974862048	0.0	63625.0	3941.680908203125	714.0	-0.40652173913043477	1.1676767676767676	-179.0	-0.48702594810379246	-517.0	0.19400657594880824	-37.0	-60.0	1.2865449131053732	1.229999097738611	-55.0	
1952.0	9.754874942781322	-1.1621055032284031	2146.0	1.3991807064437216	1262.0	9.809932556713672	-16000.0	-1.020232985898222	1664.0	2176.0	1.3341508277130594	0.0	64265.0	3961.212158203125	713.0	-0.40869565217391307	1.1454545454545455	-190.0	-0.5049900199600799	-508.0	-0.16768249471670083	-48.0	-92.0	1.784786577154597	1.4009163686734027	-31.0	
1955.0	9.82827155332119	-1.1750577546959693	2147.0	1.3636405717211915	1256.0	9.927651747394236	-16192.0	-0.9417535254445125	1536.0	2112.0	1.2949110974862048	0.0	64905.0	3980.743408203125	719.0	-0.39565217391304347	1.1575757575757575	-184.0	-0.5109780439121757	-505.0	0.4028614484894102	-66.0	-95.0	1.7791036596096244	1.6689751877964747	-68.0	
1958.0	9.730263622229433	-1.2577044272456774	2154.0	1.3256894473715237	1264.0	9.888412017167381	-16128.0	-1.0987124463519313	1792.0	1856.0	1.137952176578786	0.0	9.0	4000.274658203125	719.0	-0.39565217391304347	1.1717171717171717	-177.0	-0.4790419161676647	-521.0	0.778066478461128	-123.0	-87.0	1.5983725534549351	2.5321432895880123	-92.0	
1957.0	9.80304824079291	-1.2838006650509595	2156.0	1.33820452395019	1258.0	9.888412017167381	-16128.0	-1.0987124463519313	1792.0	1920.0	1.1771919068056407	0.0	649.0	4019.805908203125	715.0	-0.4043478260869565	1.1595959595959595	-183.0	-0.48103792415169666	-520.0	0.40082122011027294	-190.0	-63.0	1.224048277207368	3.5549271490156276	-67.0	
1960.0	9.754650870274526	-1.282100486635906	2156.0	1.3015929737159038	1262.0	9.888412017167381	-16128.0	-1.137952176578786	1856.0	1856.0	1.137952176578786	0.0	1289.0	4039.337158203125	716.0	-0.40217391304347827	1.1555555555555554	-185.0	-0.500998003992016	-510.0	0.7159431673163158	-168.0	-38.0	0.8406872263969298	3.2171751690872936	-88.0	
1962.0	9.693818532990333	-1.2925827712062272	2157.0	1.2767834419551902	1267.0	9.770692826486817	-15936.0	-1.137952176578786	1856.0	1856.0	1.137952176578786	0.0	1929.0	4058.868408203125	713.0	-0.40869565217391307	1.1676767676767676	-179.0	-0.4830339321357286	-519.0	1.0596770341404842	-137.0	-8.0	0.3858475524115432	2.7422549406852115	-111.0	
1959.0	9.656754975436169	-1.3047496674818626	2158.0	1.3124357157301452	1270.0	9.731453096259962	-15872.0	-1.137952176578786	1856.0	1856.0	1.137952176578786	0.0	2569.0	4078.399658203125	718.0	-0.3978260869565217	1.1676767676767676	-179.0	-0.4730538922155689	-524.0	1.4279419023886188	-130.0	-16.0	0.4844149026995604	2.632108413675734	-135.0	
1958.0	9.65675281665661	-1.2927978561409859	2157.0	1.3246034050268427	1270.0	9.770692826486817	-15936.0	-1.0987124463519313	1792.0	1984.0	1.2164316370324952	0.0	3209.0	4097.930908203125	718.0	-0.3978260869565217	1.1616161616161615	-182.0	-0.5109780439121757	-505.0	1.4154473121943325	-131.0	-34.0	0.7545412286243381	2.647442485052962	-134.0	
1959.0	9.644804852936442	-1.2801229564471361	2156.0	1.3125624816154948	1271.0	9.692213366033108	-15808.0	-1.0987124463519313	1792.0	1984.0	1.2164316370324952	0.0	3849.0	4117.462158203125	715.0	-0.4043478260869565	1.1676767676767676	-179.0	-0.4910179640718563	-515.0	1.2641434194812595	-139.0	-40.0	0.8501600818938324	2.770628527782374	-124.0	
1958.0	9.718192828358076	-1.2452679625511953	2153.0	1.325693104079755	1265.0	9.849172286940528	-16064.0	-1.0594727161250765	1728.0	2048.0	1.25567136725935	0.0	4489.0	4136.993408203125	719.0	-0.39565217391304347	1.1636363636363636	-181.0	-0.5089820359281437	-506.0	0.6210151652096562	-145.0	-41.0	0.9062641220251935	2.8683145631768014	-82.0	
1959.0	9.657116989551062	-1.2681789284611291	2155.0	1.3128050432615013	1270.0	9.770692826486817	-15936.0	-1.020232985898222	1664.0	2048.0	1.25567136725935	0.0	5129.0	4156.524658203125	717.0	-0.4	1.1555555555555554	-185.0	-0.5169660678642716	-502.0	1.8187394106412125	-160.0	-36.0	0.7388145205173563	3.084474202851763	-160.0	
1958.0	9.644320008670359	-1.3169321304672374	2159.0	1.3242377342037177	1271.0	9.692213366033108	-15808.0	-1.0594727161250765	1728.0	1984.0	1.2164316370324952	0.0	5769.0	4176.055908203125	717.0	-0.4	1.1696969696969697	-178.0	-0.4770459081836328	-522.0	1.1441333551165287	-180.0	-18.0	0.5037347341353793	3.3954027729127136	-116.0	
1959.0	9.656392961321275	-1.341320406502596	2161.0	1.3120663881987888	1270.0	9.731453096259962	-15872.0	-1.137952176578786	1856.0	1920.0	1.1771919068056407	0.0	6409.0	4195.587158203125	716.0	-0.40217391304347827	1.1474747474747475	-189.0	-0.5269461077844312	-497.0	0.8817215017990031	-189.0	2.0	0.21667323899265778	3.534909020723455	-99.0	
1953.0	9.66820945977202	-1.3064264958323069	2158.0	1.3848226489165052	1269.0	9.809932556713672	-16000.0	-1.1771919068056407	1920.0	2048.0	1.25567136725935	0.0	7049.0	4215.118408203125	718.0	-0.3978260869565217	1.1555555555555554	-185.0	-0.5089820359281437	-506.0	0.40115414092697205	-196.0	43.0	-0.368830481496892	3.646178572659172	-68.0	
1953.0	9.667485431542232	-1.3795679738737738	2164.0	1.3840839938537925	1269.0	9.770692826486817	-15936.0	-1.2164316370324952	1984.0	1984.0	1.2164316370324952	0.0	7689.0	4234.649658203125	717.0	-0.4	1.1656565656565656	-180.0	-0.4790419161676647	-521.0	0.4876674092920733	-149.0	34.0	-0.2113261153484336	2.9304845426371173	-74.0	
1956.0	9.61932940376711	-1.3534873027782315	2162.0	1.3477186619737438	1273.0	9.692213366033108	-15808.0	-1.25567136725935	2048.0	2112.0	1.2949110974862048	0.0	8329.0	4254.180908203125	717.0	-0.4	1.1636363636363636	-181.0	-0.4770459081836328	-522.0	0.9008309039598539	-120.0	12.0	0.10739537343279026	2.48528826890717	-101.0	
1956.0	9.618967389652218	-1.390058041798965	2165.0	1.3473493344423875	1273.0	9.692213366033108	-15808.0	-1.137952176578786	1856.0	1984.0	1.2164316370324952	0.0	8969.0	4273.712158203125	717.0	-0.4	1.1636363636363636	-181.0	-0.4970059880239522	-512.0	1.0201115109498415	-74.0	-10.0	0.4569133165195824	1.784475690974152	-109.0	
1955.0	9.607135779744565	-1.3412892730831172	2161.0	1.3597668988015539	1274.0	9.692213366033108	-15808.0	-1.0987124463519313	1792.0	1920.0	1.1771919068056407	0.0	9609.0	4293.243408203125	719.0	-0.39565217391304347	1.1757575757575758	-175.0	-0.4930139720558883	-514.0	0.7887867562660157	-54.0	-21.0	0.6500983610551901	1.4826064290152867	-94.0	
1957.0	9.669183465863302	-1.2567117704738575	2154.0	1.337136765146665	1269.0	9.770692826486817	-15936.0	-1.0594727161250765	1728.0	1920.0	1.1771919068056407	0.0	10249.0	4312.774658203125	720.0	-0.3934782608695652	1.1555555555555554	-185.0	-0.5069860279441119	-507.0	0.959851350959523	-64.0	-27.0	0.7220636375631635	1.6329870378212035	-105.0	
1958.0	9.65675281665661	-1.2927978561409859	2157.0	1.3246034050268427	1270.0	9.770692826486817	-15936.0	-1.0594727161250765	1728.0	1984.0	1.2164316370324952	0.0	10889.0	4332.305908203125	722.0	-0.3891304347826087	1.1474747474747475	-189.0	-0.5149700598802396	-503.0	0.7797816897318498	-20.0	6.0	0.2666119231329557	0.9655862135209325	-94.0	
1958.0	9.64540605101504	-1.2072199134050368	2150.0	1.3253457167977865	1271.0	9.770692826486817	-15936.0	-1.0594727161250765	1728.0	2048.0	1.25567136725935	0.0	11529.0	4351.837158203125	720.0	-0.3934782608695652	1.1717171717171717	-177.0	-0.47504990019960086	-523.0	0.6877167166844544	-31.0	17.0	0.10141008881854362	1.1338072434795434	-88.0	
1957.0	9.620900290377875	-1.2069659116959295	2150.0	1.33715139197959	1273.0	9.731453096259962	-15872.0	-0.9417535254445125	1536.0	1984.0	1.2164316370324952	0.0	12169.0	4371.368408203125	720.0	-0.3934782608695652	1.1636363636363636	-181.0	-0.4930139720558883	-514.0	0.13723308704291912	-31.0	6.0	0.3046412906709798	1.1393120797759588	-52.0	
1958.0	9.669547638757756	-1.2320928427940008	2152.0	1.3253384033813238	1269.0	9.692213366033108	-15808.0	-1.2164316370324952	1984.0	1984.0	1.2164316370324952	0.0	12809.0	4390.899658203125	718.0	-0.3978260869565217	1.1737373737373737	-176.0	-0.4970059880239522	-512.0	-0.6063413072105167	-108.0	28.0	-0.02028512041163	2.3178504853154513	-3.0	
1958.0	9.682101118115636	-1.1957683221275048	2149.0	1.3258271833815676	1268.0	9.692213366033108	-15808.0	-1.020232985898222	1664.0	1920.0	1.1771919068056407	0.0	13449.0	4410.430908203125	721.0	-0.391304347826087	1.1717171717171717	-177.0	-0.47504990019960086	-523.0	0.7778588908663753	-114.0	8.0	0.17957443065066855	2.3952632361863935	-93.0	
1960.0	9.620665423973287	-1.2672018383990487	2155.0	1.30040210573526	1273.0	9.731453096259962	-15872.0	-1.0987124463519313	1792.0	1856.0	1.137952176578786	0.0	14089.0	4429.962158203125	721.0	-0.391304347826087	1.1777777777777778	-174.0	-0.4770459081836328	-522.0	0.21413164207019997	-115.0	-16.0	0.5780215721028935	2.4161096341496404	-56.0	
1962.0	9.669556273875989	-1.2799000881575078	2156.0	1.2766676461945337	1269.0	9.692213366033108	-15808.0	-1.137952176578786	1856.0	1856.0	1.137952176578786	0.0	14729.0	4449.493408203125	720.0	-0.3934782608695652	1.1616161616161615	-182.0	-0.5189620758483035	-501.0	-0.42651254281015366	-137.0	-18.0	0.639211384448567	2.7571168364547183	-14.0	
1956.0	9.779025165642272	-1.2347856779808741	2152.0	1.3505026358404688	1260.0	9.849172286940528	-16064.0	-1.020232985898222	1664.0	1984.0	1.2164316370324952	0.0	15369.0	4469.024658203125	718.0	-0.3978260869565217	1.1717171717171717	-177.0	-0.49500998003992025	-513.0	0.03180719411450275	-135.0	-8.0	0.45860402331537437	2.7221153881349007	-44.0	
1956.0	9.71806783942733	-1.2335545862096864	2152.0	1.3499053734960313	1265.0	9.770692826486817	-15936.0	-1.0594727161250765	1728.0	1920.0	1.1771919068056407	0.0	16009.0	4488.555908203125	724.0	-0.3847826086956522	1.1555555555555554	-185.0	-0.500998003992016	-510.0	0.4567084213819715	-107.0	-5.0	0.4010876071855001	2.2920108625542412	-72.0	
1954.0	9.76719139695506	-1.1740650979241494	2147.0	1.3750878894963328	1261.0	9.888412017167381	-16128.0	-0.9809932556713672	1600.0	1984.0	1.2164316370324952	0.0	16649.0	4508.087158203125	724.0	-0.3847826086956522	1.1616161616161615	-182.0	-0.5169660678642716	-502.0	1.0632996445827554	-68.0	3.0	0.2626550638071629	1.6927890567861117	-112.0	
1956.0	9.694288265799509	-1.1721109177999889	2147.0	1.3502820144438503	1267.0	9.770692826486817	-15936.0	-1.020232985898222	1664.0	1984.0	1.2164316370324952	0.0	17289.0	4527.618408203125	722.0	-0.3891304347826087	1.1777777777777778	-174.0	-0.4770459081836328	-522.0	2.0338584686543686	-72.0	-22.0	0.5674833032788813	1.7439199704465362	-175.0	
1952.0	9.694400302052907	-1.1121134260962373	2142.0	1.399075880807759	1267.0	9.731453096259962	-15872.0	-0.9025137952176578	1472.0	2112.0	1.2949110974862048	0.0	17929.0	4547.149658203125	717.0	-0.4	1.1494949494949496	-188.0	-0.5229540918163673	-499.0	1.5320079290243136	-91.0	-32.0	0.7407782029571759	2.037911859873255	-142.0	
1955.0	9.694889463878107	-1.0992078747578895	2141.0	1.3630652496261415	1267.0	9.770692826486817	-15936.0	-0.9025137952176578	1472.0	1984.0	1.2164316370324952	0.0	18569.0	4566.680908203125	720.0	-0.3934782608695652	1.1717171717171717	-177.0	-0.5089820359281437	-506.0	1.8803154464817597	-140.0	-57.0	1.061538707513727	2.779675932987654	-164.0	
1957.0	9.646248591836901	-1.1099363776824485	2142.0	1.338375170334315	1271.0	9.692213366033108	-15808.0	-0.8632740649908032	1408.0	1920.0	1.1771919068056407	0.0	19209.0	4586.212158203125	726.0	-0.3804347826086957	1.1777777777777778	-174.0	-0.4770459081836328	-522.0	2.2701945483963186	-175.0	-66.0	1.1480428800882079	3.3080965336034898	-189.0	
1952.0	9.6947623161678	-1.075542687075504	2139.0	1.3994452083391153	1267.0	9.652973635806253	-15744.0	-0.9025137952176578	1472.0	1984.0	1.2164316370324952	0.0	19849.0	4605.743408203125	725.0	-0.3826086956521739	1.1737373737373737	-176.0	-0.4770459081836328	-522.0	2.1846505724918397	-204.0	-81.0	1.361241711481718	3.7500166121458043	-183.0	
1951.0	9.695122171503135	-1.0270201367138936	2135.0	1.4119822251671692	1267.0	9.809932556713672	-16000.0	-0.9809932556713672	1600.0	2048.0	1.25567136725935	0.0	20489.0	4625.274658203125	725.0	-0.3826086956521739	1.1696969696969697	-178.0	-0.5249500998003993	-498.0	2.2959916012893578	-220.0	-92.0	1.5086760768026135	3.9922492094623925	-190.0	
1954.0	9.67122840284236	-1.0136221486670707	2134.0	1.3757326890477766	1269.0	9.770692826486817	-15936.0	-0.8240343347639485	1344.0	2112.0	1.2949110974862048	0.0	21129.0	4644.805908203125	724.0	-0.3847826086956522	1.1777777777777778	-174.0	-0.4890219560878244	-516.0	2.6593795505775146	-258.0	-126.0	1.970011532246006	4.566562098030347	-213.0	
1956.0	9.671353391773108	-1.0253355250085798	2135.0	1.3515204196315003	1269.0	9.770692826486817	-15936.0	-0.8632740649908032	1408.0	2048.0	1.25567136725935	0.0	21769.0	4664.337158203125	727.0	-0.3782608695652174	1.1575757575757575	-184.0	-0.5109780439121757	-505.0	2.75787940579114	-287.0	-141.0	2.170400912993696	5.0066417382614805	-219.0	
1963.0	9.634070079271261	-1.1814010273734712	2148.0	1.2652495820852425	1272.0	9.731453096259962	-15872.0	-1.0594727161250765	1728.0	1856.0	1.137952176578786	0.0	22409.0	4683.868408203125	725.0	-0.3826086956521739	1.1616161616161615	-182.0	-0.5229540918163673	-499.0	2.6124435483544217	-365.0	-118.0	1.7882431909815053	6.194407883908091	-209.0	
1962.0	9.621152427018929	-1.242344475719824	2153.0	1.27655916385034	1273.0	9.692213366033108	-15808.0	-1.0594727161250765	1728.0	1856.0	1.137952176578786	0.0	23049.0	4703.399658203125	726.0	-0.3804347826086957	1.1818181818181819	-172.0	-0.4850299401197605	-518.0	1.264569008223756	-446.0	-51.0	0.8282799413102379	7.439825792807497	-121.0	
1960.0	9.645410368574158	-1.2311235360867903	2152.0	1.3010103382043914	1271.0	9.809932556713672	-16000.0	-1.137952176578786	1856.0	1920.0	1.1771919068056407	0.0	23689.0	4722.930908203125	724.0	-0.3847826086956522	1.1636363636363636	-181.0	-0.49500998003992025	-513.0	0.8211770447620483	-476.0	-31.0	0.5410389964343119	7.900533476700669	-92.0	
1958.0	9.656873488028241	-1.2806076098007413	2156.0	1.3247265142039613	1270.0	9.731453096259962	-15872.0	-1.0987124463519313	1792.0	1984.0	1.2164316370324952	0.0	24329.0	4742.462158203125	723.0	-0.3869565217391304	1.1696969696969697	-178.0	-0.5089820359281437	-506.0	0.24342570452662057	-424.0	-13.0	0.34302040323702404	7.1154364653881945	-55.0	
1962.0	9.71820146347631	-1.293075207914702	2157.0	1.2770223468929651	1265.0	9.809932556713672	-16000.0	-1.1771919068056407	1920.0	1792.0	1.0987124463519313	0.0	24969.0	4761.993408203125	725.0	-0.3826086956521739	1.1696969696969697	-178.0	-0.4830339321357286	-519.0	0.6749428055020853	-366.0	19.0	-0.13148813582823665	6.2289920168119	-84.0	
1960.0	9.656515791472465	-1.3410819715032283	2161.0	1.30002180807921	1270.0	9.731453096259962	-15872.0	-1.137952176578786	1856.0	1984.0	1.2164316370324952	0.0	25609.0	4781.524658203125	726.0	-0.3804347826086957	1.1494949494949496	-188.0	-0.5389221556886228	-491.0	0.14596261811884245	-336.0	40.0	-0.3912627429266654	5.778008054427177	-50.0	
1963.0	9.705650142897985	-1.341351539922075	2161.0	1.2643658775960238	1266.0	9.809932556713672	-16000.0	-1.2164316370324952	1984.0	1920.0	1.1771919068056407	0.0	26249.0	4801.055908203125	724.0	-0.3847826086956522	1.1414141414141414	-192.0	-0.5169660678642716	-502.0	-0.7384138637087876	-293.0	66.0	-0.6933555414252461	5.13285942380819	7.0	
1961.0	9.841199999471316	-1.1738733630540001	2147.0	1.2914925434726066	1255.0	9.927651747394236	-16192.0	-1.0987124463519313	1792.0	1856.0	1.137952176578786	0.0	26889.0	4820.587158203125	724.0	-0.3847826086956522	1.1737373737373737	-176.0	-0.500998003992016	-510.0	-1.0233857572506266	-272.0	105.0	-1.245453478412406	4.816317507762621	25.0	
1963.0	9.732325829444957	-1.1102292961659044	2142.0	1.266943856899055	1264.0	9.849172286940528	-16064.0	-0.9417535254445125	1536.0	1856.0	1.137952176578786	0.0	27529.0	4840.118408203125	729.0	-0.3739130434782609	1.1494949494949496	-188.0	-0.5109780439121757	-505.0	-0.358513163893421	-251.0	151.0	-1.968608117924621	4.490277146848061	-19.0	
1965.0	9.621520917472496	-1.2416291707217206	2153.0	1.2404254234916037	1273.0	9.731453096259962	-15872.0	-1.0594727161250765	1728.0	1792.0	1.0987124463519313	0.0	28169.0	4859.649658203125	725.0	-0.3826086956521739	1.1656565656565656	-180.0	-0.5129740518962077	-504.0	-0.7779734778867273	-243.0	179.0	-2.3543368648661223	4.372798746185711	8.0	
1959.0	9.74342261722503	-1.1723804862188356	2147.0	1.314626083960664	1263.0	9.849172286940528	-16064.0	-1.0987124463519313	1792.0	1856.0	1.137952176578786	0.0	28809.0	4879.180908203125	725.0	-0.3826086956521739	1.1818181818181819	-172.0	-0.4790419161676647	-521.0	-1.3904854133207132	-302.0	230.0	-3.112217261436012	5.276262268581877	48.0	
1963.0	9.708184241702241	-1.0853563667769404	2140.0	1.2669511703155176	1266.0	9.770692826486817	-15936.0	-0.8632740649908032	1408.0	1856.0	1.137952176578786	0.0	29449.0	4898.712158203125	729.0	-0.3739130434782609	1.1777777777777778	-174.0	-0.4770459081836328	-522.0	-0.07508915265344548	-323.0	172.0	-2.346979289186389	5.582499940956192	-37.0	
1964.0	9.708427743225062	-1.072927685437328	2139.0	1.2550296993730576	1266.0	9.849172286940528	-16064.0	-0.9025137952176578	1472.0	1728.0	1.0594727161250765	0.0	30089.0	4918.243408203125	726.0	-0.3804347826086957	1.1696969696969697	-178.0	-0.5189620758483035	-501.0	-0.33282962619692247	-325.0	154.0	-2.0603922147995193	5.615495596642198	-20.0	
1959.0	9.633820101409766	-1.1579742746904533	2146.0	1.3136741209177951	1272.0	9.770692826486817	-15936.0	-0.8632740649908032	1408.0	1920.0	1.1771919068056407	0.0	30729.0	4937.774658203125	725.0	-0.3826086956521739	1.1393939393939394	-193.0	-0.5429141716566867	-489.0	-0.38487693488905367	-298.0	168.0	-2.2502389190750023	5.2053696818964195	-17.0	
1961.0	9.708059252771495	-1.0736429904354314	2139.0	1.291163439731794	1266.0	9.770692826486817	-15936.0	-0.9025137952176578	1472.0	1856.0	1.137952176578786	0.0	31369.0	4957.305908203125	729.0	-0.3739130434782609	1.1595959595959595	-183.0	-0.4910179640718563	-515.0	0.636231139953983	-329.0	139.0	-1.905384747977779	5.66664149088183	-83.0	
1958.0	9.64745746433277	-0.9999857256208801	2133.0	1.3274385728088054	1271.0	9.652973635806253	-15744.0	-0.8240343347639485	1344.0	1856.0	1.137952176578786	0.0	32009.0	4976.837158203125	727.0	-0.3782608695652174	1.1555555555555554	-185.0	-0.5069860279441119	-507.0	0.6969330174735513	-403.0	113.0	-1.5648235126087107	6.791509757277737	-86.0	
1955.0	9.683663369608167	-1.001439685681696	2133.0	1.363930670574204	1268.0	9.770692826486817	-15936.0	-0.8632740649908032	1408.0	1920.0	1.1771919068056407	0.0	32649.0	4996.368408203125	724.0	-0.3847826086956522	1.1777777777777778	-174.0	-0.5189620758483035	-501.0	-0.04928414233888026	-428.0	102.0	-1.3631783825316652	7.17920006575799	-37.0	
1954.0	9.634654007113394	-1.0128834936043583	2134.0	1.375374331641114	1272.0	9.770692826486817	-15936.0	-0.8240343347639485	1344.0	2048.0	1.25567136725935	0.0	33289.0	5015.899658203125	726.0	-0.3804347826086957	1.1575757575757575	-184.0	-0.4910179640718563	-515.0	0.8024150301576718	-447.0	66.0	-0.8942854453661083	7.459656458063443	-92.0	
1954.0	9.536398256939702	-1.084055224811925	2140.0	1.3736800568273013	1280.0	9.574494175352545	-15616.0	-0.745554874310239	1216.0	2112.0	1.2949110974862048	0.0	33929.0	5035.430908203125	728.0	-0.3760869565217391	1.1636363636363636	-181.0	-0.5109780439121757	-505.0	1.9928800594831746	-465.0	20.0	-0.2984372093355757	7.7215160663253215	-169.0	
1959.0	9.610643884640103	-1.0355793745795332	2136.0	1.3146663077512077	1274.0	9.770692826486817	-15936.0	-1.020232985898222	1664.0	1984.0	1.2164316370324952	0.0	34569.0	5054.962158203125	730.0	-0.3717391304347826	1.1595959595959595	-183.0	-0.502994011976048	-509.0	1.4527301769188317	-504.0	-22.0	0.345116144170747	8.320073458687085	-133.0	
1956.0	9.509726887951848	-1.3390810912498492	2161.0	1.346766698930875	1282.0	9.574494175352545	-15616.0	-1.0594727161250765	1728.0	1920.0	1.1771919068056407	0.0	35209.0	5074.493408203125	731.0	-0.3695652173913044	1.1797979797979798	-173.0	-0.4850299401197605	-518.0	3.8868266425146616	-549.0	-153.0	2.1123445953142617	8.980143140418962	-290.0	
1959.0	9.64359813922013	-1.4020254198495812	2166.0	1.3113313898443073	1271.0	9.770692826486817	-15936.0	-1.25567136725935	2048.0	1856.0	1.137952176578786	0.0	35849.0	5094.024658203125	731.0	-0.3695652173913044	1.1737373737373737	-176.0	-0.5189620758483035	-501.0	0.7722542202094936	-502.0	-191.0	2.927427134229023	8.29645996730361	-87.0	
1959.0	9.571052704620357	-1.3395968780229335	2161.0	1.3112302209165763	1277.0	9.652973635806253	-15744.0	-1.1771919068056407	1920.0	2048.0	1.25567136725935	0.0	36489.0	5113.555908203125	728.0	-0.3760869565217391	1.1717171717171717	-177.0	-0.4830339321357286	-519.0	2.080518517614196	-508.0	-216.0	3.2075343427187355	8.374632077181273	-172.0	
1964.0	9.559234047390053	-1.362538977352346	2163.0	1.2506416494955575	1278.0	9.652973635806253	-15744.0	-1.1771919068056407	1920.0	1792.0	1.0987124463519313	0.0	37129.0	5133.087158203125	733.0	-0.3652173913043478	1.1575757575757575	-184.0	-0.5069860279441119	-507.0	1.7732292715096127	-395.0	-220.0	3.3576369363884075	6.6590737909350946	-153.0	
1961.0	9.632014348394414	-1.3647315924758745	2163.0	1.2874921046676187	1272.0	9.731453096259962	-15872.0	-1.1771919068056407	1920.0	1856.0	1.137952176578786	0.0	37769.0	5152.618408203125	730.0	-0.3717391304347826	1.1636363636363636	-181.0	-0.5349301397205589	-493.0	1.1214503627276944	-353.0	-210.0	3.2786270417568484	6.026808310060936	-111.0	
1961.0	9.594715924435663	-1.437134415454629	2169.0	1.2863950921982437	1275.0	9.652973635806253	-15744.0	-1.25567136725935	2048.0	1856.0	1.137952176578786	0.0	38409.0	5172.149658203125	732.0	-0.3673913043478261	1.1777777777777778	-174.0	-0.48702594810379246	-517.0	1.17619796120694	-317.0	-201.0	3.1617852158539703	5.478732316965878	-115.0	
1964.0	9.632382838847981	-1.3640162874777713	2163.0	1.2513583643088824	1272.0	9.652973635806253	-15744.0	-1.2164316370324952	1984.0	1792.0	1.0987124463519313	0.0	39049.0	5191.680908203125	734.0	-0.3630434782608696	1.1616161616161615	-182.0	-0.49500998003992025	-513.0	0.7554637671103164	-290.0	-183.0	2.9376291038101363	5.072293271074145	-88.0	
1964.0	9.694305536035973	-1.2677254085270027	2155.0	1.25294050007027	1267.0	9.731453096259962	-15872.0	-1.1771919068056407	1920.0	1792.0	1.0987124463519313	0.0	39689.0	5211.212158203125	731.0	-0.3695652173913044	1.1555555555555554	-185.0	-0.5508982035928145	-485.0	-0.26889306335281216	-247.0	-144.0	2.450376388850949	4.428544443941514	-22.0	
1967.0	9.64602883688922	-1.2538349837717047	2154.0	1.2164520590131023	1271.0	9.770692826486817	-15936.0	-1.0987124463519313	1792.0	1792.0	1.0987124463519313	0.0	40329.0	5230.743408203125	733.0	-0.3652173913043478	1.1717171717171717	-177.0	-0.4910179640718563	-515.0	0.0939239959410654	-254.0	-102.0	1.791180608969726	4.53138015167557	-46.0	
1970.0	9.646638670086052	-1.2287391860931123	2152.0	1.1805645370086038	1271.0	9.809932556713672	-16000.0	-1.0987124463519313	1792.0	1728.0	1.0594727161250765	0.0	40969.0	5250.274658203125	734.0	-0.3630434782608696	1.1757575757575758	-175.0	-0.4910179640718563	-515.0	-0.7116133512424585	-273.0	-30.0	0.7562268031074153	4.828408909177824	6.0	
1970.0	9.683454408558278	-1.2050973484753358	2150.0	1.1811691127695036	1268.0	9.770692826486817	-15936.0	-1.020232985898222	1664.0	1664.0	1.020232985898222	0.0	41609.0	5269.805908203125	731.0	-0.3695652173913044	1.1696969696969697	-178.0	-0.5389221556886228	-491.0	-1.7535726355700547	-335.0	24.0	-0.01856666428089175	5.78179428148878	74.0	
1967.0	9.622369934633033	-1.1802010690217626	2148.0	1.21695180913804	1273.0	9.692213366033108	-15808.0	-1.137952176578786	1856.0	1728.0	1.0594727161250765	0.0	42249.0	5289.337158203125	732.0	-0.3673913043478261	1.1616161616161615	-182.0	-0.5548902195608784	-483.0	-2.109685582696388	-352.0	63.0	-0.5888310546610044	6.043910544039892	97.0	
1964.0	9.768178355723691	-1.1960612406109608	2149.0	1.2543958699463076	1261.0	9.966891477621092	-16256.0	-1.020232985898222	1664.0	1856.0	1.137952176578786	0.0	42889.0	5308.868408203125	734.0	-0.3630434782608696	1.1474747474747475	-189.0	-0.5209580838323354	-500.0	-1.1737504815113415	-370.0	78.0	-0.8898102642675779	6.308315451583175	36.0	
1969.0	9.757566412209702	-1.0971008765379282	2141.0	1.1950383902964763	1262.0	9.770692826486817	-15936.0	-0.9809932556713672	1600.0	1728.0	1.0594727161250765	0.0	43529.0	5328.399658203125	734.0	-0.3630434782608696	1.1595959595959595	-183.0	-0.5289421157684632	-496.0	-1.8458607246934093	-403.0	92.0	-1.0730024894432457	6.816937694699406	80.0	
1970.0	9.634447204843063	-1.228492967738875	2152.0	1.180445084539716	1272.0	9.770692826486817	-15936.0	-1.0594727161250765	1728.0	1664.0	1.020232985898222	0.0	44169.0	5347.930908203125	735.0	-0.36086956521739133	1.1737373737373737	-176.0	-0.4910179640718563	-515.0	-2.3936909075660138	-414.0	74.0	-0.7717004564581709	6.9897163767562684	116.0	
1971.0	9.756364016052503	-1.2429069626221265	2153.0	1.1694719199318937	1262.0	9.888412017167381	-16128.0	-1.0594727161250765	1728.0	1664.0	1.020232985898222	0.0	44809.0	5367.462158203125	733.0	-0.3652173913043478	1.1515151515151516	-187.0	-0.4930139720558883	-514.0	-2.5365683235861627	-489.0	77.0	-0.8523610759734019	8.131829561562858	126.0	
1972.0	9.683579397489027	-1.2168107248168447	2151.0	1.1569568433532273	1268.0	9.849172286940528	-16064.0	-1.020232985898222	1664.0	1664.0	1.020232985898222	0.0	45449.0	5386.993408203125	730.0	-0.3717391304347826	1.1535353535353536	-186.0	-0.5349301397205589	-493.0	-1.5025710416123366	-533.0	77.0	-0.9510953476352821	8.790691109655668	59.0	
1968.0	9.670775940269651	-1.229708492800323	2152.0	1.2048926021855362	1269.0	9.770692826486817	-15936.0	-1.020232985898222	1664.0	1664.0	1.020232985898222	0.0	46089.0	5406.524658203125	731.0	-0.3695652173913044	1.1757575757575758	-175.0	-0.4930139720558883	-514.0	-1.3166384499541433	-548.0	79.0	-1.0031467387961153	9.016968665868365	47.0	
1972.0	9.608982549571522	-1.3616163707743538	2163.0	1.1547628184144774	1274.0	9.692213366033108	-15808.0	-1.1771919068056407	1920.0	1600.0	0.9809932556713672	0.0	46729.0	5426.055908203125	736.0	-0.358695652173913	1.1656565656565656	-180.0	-0.5429141716566867	-489.0	-1.2444359511323566	-545.0	106.0	-1.4111445388564778	8.970619264454289	42.0	
1970.0	9.65702006475457	-1.4118390995510173	2167.0	1.1788373518207098	1270.0	9.770692826486817	-15936.0	-1.25567136725935	2048.0	1728.0	1.0594727161250765	0.0	47369.0	5445.587158203125	731.0	-0.3695652173913044	1.1717171717171717	-177.0	-0.532934131736527	-494.0	-1.0060194380986172	-552.0	57.0	-0.6973641996385349	9.074698977650947	27.0	
1966.0	9.546564214219657	-1.43495736704084	2169.0	1.2256943817247996	1279.0	9.613733905579398	-15680.0	-1.25567136725935	2048.0	1600.0	0.9809932556713672	0.0	48009.0	5465.118408203125	732.0	-0.3673913043478261	1.1737373737373737	-176.0	-0.502994011976048	-509.0	-1.1085895302964668	-515.0	-11.0	0.3517744393544211	8.512987035987376	34.0	
1968.0	9.631546774364796	-1.4971552572229894	2174.0	1.201825842882261	1272.0	9.770692826486817	-15936.0	-1.3341508277130594	2176.0	1856.0	1.137952176578786	0.0	48649.0	5484.649658203125	736.0	-0.358695652173913	1.1595959595959595	-183.0	-0.5229540918163673	-499.0	-0.8669361333812838	-475.0	-25.0	0.5691850161633436	7.902205483006818	18.0	
1965.0	9.545113998980524	-1.5692885117828974	2180.0	1.236384760896072	1279.0	9.692213366033108	-15808.0	-1.4126302881667687	2304.0	1792.0	1.0987124463519313	0.0	49289.0	5504.180908203125	738.0	-0.35434782608695653	1.1616161616161615	-182.0	-0.5269461077844312	-497.0	0.3183992084182827	-464.0	-65.0	1.0930778415082567	7.723051749360685	-59.0	
1964.0	9.667388506745741	-1.5232281449636622	2176.0	1.250116302413001	1269.0	9.731453096259962	-15872.0	-1.4126302881667687	2304.0	1920.0	1.1771919068056407	0.0	49929.0	5523.712158203125	733.0	-0.3652173913043478	1.1797979797979798	-173.0	-0.500998003992016	-510.0	0.2898057986443364	-430.0	-112.0	1.8204000296368301	7.206227417298729	-57.0	
1964.0	9.61777794617237	-1.6075749959284238	2183.0	1.2487767282976199	1273.0	9.652973635806253	-15744.0	-1.4126302881667687	2304.0	1792.0	1.0987124463519313	0.0	50569.0	5543.243408203125	735.0	-0.36086956521739133	1.1656565656565656	-180.0	-0.5149700598802396	-503.0	0.7088272476840838	-335.0	-135.0	2.1938583997966443	5.757170282656239	-85.0	
1962.0	9.66666016095684	-1.572466000323376	2180.0	1.2737130259436835	1269.0	9.770692826486817	-15936.0	-1.4126302881667687	2304.0	1728.0	1.0594727161250765	0.0	51209.0	5562.774658203125	736.0	-0.358695652173913	1.1737373737373737	-176.0	-0.5249500998003993	-498.0	0.148335821027921	-251.0	-161.0	2.673776362140145	4.4852086569988465	-49.0	
1963.0	9.752243919180575	-1.5617608474634261	2179.0	1.2626277222834361	1262.0	9.888412017167381	-16128.0	-1.3341508277130594	2176.0	1856.0	1.137952176578786	0.0	51849.0	5582.305908203125	733.0	-0.3652173913043478	1.1515151515151516	-187.0	-0.5089820359281437	-506.0	0.5356346576701555	-156.0	-177.0	2.9444950998859443	3.036468748480333	-75.0	
1967.0	9.716402186799632	-1.5356879597227535	2177.0	1.214337262752696	1265.0	9.927651747394236	-16192.0	-1.4126302881667687	2304.0	1728.0	1.0594727161250765	0.0	52489.0	5601.837158203125	736.0	-0.358695652173913	1.1737373737373737	-176.0	-0.5049900199600799	-508.0	1.0261810960209647	-78.0	-149.0	2.5380154343120913	1.8452514970245812	-108.0	
1967.0	9.716643529542894	-1.5113074670422644	2175.0	1.2145834811069336	1265.0	9.770692826486817	-15936.0	-1.4126302881667687	2304.0	1856.0	1.137952176578786	0.0	53129.0	5621.368408203125	733.0	-0.3652173913043478	1.1656565656565656	-180.0	-0.5089820359281437	-506.0	0.6894899673324216	-61.0	-68.0	1.3573985385938072	1.5900632752316188	-87.0	
1964.0	9.777835722162424	-1.452302632110333	2170.0	1.2519300296957012	1260.0	9.809932556713672	-16000.0	-1.3733905579399142	2240.0	1856.0	1.137952176578786	0.0	53769.0	5640.899658203125	736.0	-0.358695652173913	1.1757575757575758	-175.0	-0.5109780439121757	-505.0	-0.34995512359566133	-31.0	-18.0	0.6983696800864474	1.1441839618823446	-20.0	
1961.0	9.729063384851797	-1.4154623246707525	2167.0	1.2879552877102436	1264.0	9.809932556713672	-16000.0	-1.2164316370324952	1984.0	1920.0	1.1771919068056407	0.0	54409.0	5660.430908203125	737.0	-0.3565217391304348	1.1636363636363636	-181.0	-0.5289421157684632	-496.0	-0.022228985315913705	20.0	-3.0	0.4816990006098697	0.3652413012600033	-42.0	
1965.0	9.680668173112968	-1.4257139575965758	2168.0	1.2391760481792597	1268.0	9.770692826486817	-15936.0	-1.1771919068056407	1920.0	1792.0	1.0987124463519313	0.0	55049.0	5679.962158203125	737.0	-0.3565217391304348	1.1636363636363636	-181.0	-0.5209580838323354	-500.0	0.368556651198032	49.0	22.0	0.09733031215668149	-0.07973119388840617	-68.0	
1963.0	9.668472390310864	-1.401564116560585	2166.0	1.2633919743037674	1269.0	9.731453096259962	-15872.0	-1.2949110974862048	2112.0	1856.0	1.137952176578786	0.0	55689.0	5699.493408203125	736.0	-0.358695652173913	1.1737373737373737	-176.0	-0.4970059880239522	-512.0	0.14988803545192936	73.0	25.0	0.08217289702450618	-0.4425635191377893	-54.0	
1963.0	9.680663855553851	-1.4018103349148225	2166.0	1.2635114267726548	1268.0	9.731453096259962	-15872.0	-1.2949110974862048	2112.0	1728.0	1.0594727161250765	0.0	56329.0	5719.024658203125	735.0	-0.36086956521739133	1.1636363636363636	-181.0	-0.500998003992016	-510.0	-0.0942857214500335	78.0	12.0	0.29711176432557695	-0.5161674089451955	-38.0	
