Device	Device	Device	Device	Device	Device	Device	Device	Device	Device	Device	Device	Device	Device	Device	Device	Device	Device	Device	Device	Device	Device	Device	Device	Device	Device	Device	
Low Noise Accelerometer X	Low Noise Accelerometer X	Low Noise Accelerometer Z	Low Noise Accelerometer Z	Low Noise Accelerometer Y	Low Noise Accelerometer Y	Wide Range Accelerometer X	Wide Range Accelerometer X	Wide Range Accelerometer Z	Wide Range Accelerometer Z	Wide Range Accelerometer Y	Wide Range Accelerometer Y	Event_Marker	Timestamp	Timestamp	Magnetometer Z	Magnetometer Z	Magnetometer X	Magnetometer X	Magnetometer Y	Magnetometer Y	Gyroscope Y	Gyroscope Y	Gyroscope Z	Gyroscope Z	Gyroscope X	Gyroscope X	
CAL	UNCAL	CAL	UNCAL	CAL	UNCAL	CAL	UNCAL	CAL	UNCAL	UNCAL	CAL	CAL	UNCAL	CAL	CAL	UNCAL	UNCAL	CAL	UNCAL	CAL	UNCAL	CAL	UNCAL	CAL	CAL	UNCAL	
m/(s^2)	no units	m/(s^2)	no units	m/(s^2)	no units	m/(s^2)	no units	m/(s^2)	no units	no units	m/(s^2)	no units	no units	ms	local_flux	no units	no units	local_flux	no units	local_flux	no units	deg/s	no units	deg/s	deg/s	no units	
9.704684551641307	1907.0	-0.7573818292146901	2112.0	1.9448947139712536	1266.0	9.849172286940528	-16064.0	-0.510116492949111	832.0	3008.0	1.8442673206621703	0.0	27685.0	844.879150390625	-0.41956521739130437	708.0	-172.0	1.1818181818181819	-555.0	-0.4111776447105789	-171.0	-0.08234087277385758	-30.0	0.7744826705451642	3.2707853859140505	-36.0	
9.753088398498365	1907.0	-0.7949374416523736	2115.0	1.9450031963154473	1262.0	9.692213366033108	-15808.0	-0.5885959534028203	960.0	3008.0	1.8442673206621703	0.0	28325.0	864.410400390625	-0.4152173913043478	710.0	-180.0	1.1656565656565656	-553.0	-0.41516966067864275	-253.0	-0.28973955435338183	1.0	0.2742640710322597	4.52000766170323	-22.0	
9.691396250155845	1902.0	-0.8070887712182695	2116.0	2.004505725391785	1267.0	9.888412017167381	-16128.0	-0.6670754138565297	1088.0	3072.0	1.883507050889025	0.0	28965.0	883.941650390625	-0.4282608695652174	704.0	-184.0	1.1575757575757575	-540.0	-0.44111776447105794	-293.0	1.756364650246437	-2.0	0.1524981288760338	5.1079116386686385	-155.0	
9.594237336224625	1907.0	-0.8283073420680194	2118.0	1.9430809866885537	1275.0	9.692213366033108	-15808.0	-0.5885959534028203	960.0	3008.0	1.8442673206621703	0.0	29605.0	903.472900390625	-0.4108695652173913	712.0	-173.0	1.1797979797979798	-563.0	-0.3952095808383234	-256.0	1.730985700192633	29.0	-0.28799360668870344	4.545427785583626	-154.0	
9.643009673535254	1910.0	-0.8651476495075997	2121.0	1.907055728674011	1271.0	9.692213366033108	-15808.0	-0.627835683629675	1024.0	2880.0	1.765787860208461	0.0	30245.0	923.004150390625	-0.4217391304347826	707.0	-175.0	1.1757575757575758	-547.0	-0.4271457085828344	-234.0	-0.5168168660410581	65.0	-0.6578926525931212	4.2333050507896886	-8.0	
9.654347804058588	1906.0	-0.9029183468800419	2124.0	1.9549841740898573	1270.0	9.770692826486817	-15936.0	-0.7847946045370937	1280.0	2944.0	1.8050275904353157	0.0	30885.0	942.535400390625	-0.4152173913043478	710.0	-174.0	1.1777777777777778	-543.0	-0.43512974051896214	-222.0	-0.3695420724454075	94.0	-1.0956252066948937	4.04932279715031	-18.0	
9.605581943086635	1906.0	-0.9019334734630918	2124.0	1.9545063642143072	1274.0	9.770692826486817	-15936.0	-0.745554874310239	1216.0	3072.0	1.883507050889025	0.0	31525.0	962.066650390625	-0.4260869565217391	705.0	-178.0	1.1696969696969697	-533.0	-0.45508982035928147	-233.0	0.41619649132789255	81.0	-0.9621020772170037	4.2087657917407135	-69.0	
9.593024146169638	1904.0	-0.9143543714478344	2125.0	1.9783529628074583	1275.0	9.652973635806253	-15744.0	-0.7063151440833844	1152.0	3072.0	1.883507050889025	0.0	32165.0	981.597900390625	-0.40869565217391307	713.0	-178.0	1.1696969696969697	-561.0	-0.3992015968063873	-182.0	-0.7272295730006304	88.0	-0.9564405334070384	3.4445346531444554	5.0	
9.616922232389532	1903.0	-0.9516559821764108	2128.0	1.9902671203334559	1273.0	9.731453096259962	-15872.0	-0.7063151440833844	1152.0	3072.0	1.883507050889025	0.0	32805.0	1001.129150390625	-0.4152173913043478	710.0	-180.0	1.1656565656565656	-544.0	-0.4331337325349302	-82.0	-0.5220075205939702	54.0	-0.40014235891711936	1.9215698850918712	-9.0	
9.617163575132794	1903.0	-0.9272754894959218	2126.0	1.9905133386876934	1273.0	9.692213366033108	-15808.0	-0.7063151440833844	1152.0	3008.0	1.8442673206621703	0.0	33445.0	1020.660400390625	-0.42391304347826086	706.0	-171.0	1.183838383838384	-551.0	-0.4191616766467066	-29.0	1.2818222400666277	42.0	-0.3135355192739812	1.0974479372951513	-127.0	
9.557408645075048	1901.0	-0.7802383116405356	2114.0	2.0154825467078386	1278.0	9.613733905579398	-15680.0	-0.5885959534028203	960.0	3136.0	1.9227467811158798	0.0	34085.0	1040.191650390625	-0.4173913043478261	709.0	-176.0	1.1737373737373737	-562.0	-0.39720558882235535	9.0	1.5888605084395122	3.0	0.272920134146611	0.5164307865505859	-147.0	
9.594224383547276	1901.0	-0.7565964740227592	2112.0	2.016087122468739	1275.0	9.613733905579398	-15680.0	-0.5885959534028203	960.0	3136.0	1.9227467811158798	0.0	34725.0	1059.722900390625	-0.41956521739130437	708.0	-179.0	1.1676767676767676	-541.0	-0.439121756487026	29.0	0.45729756364586616	-39.0	0.9935293729057662	0.22356390649281893	-73.0	
9.656269910886456	1902.0	-0.6600671600726229	2104.0	2.0056246781105473	1270.0	9.692213366033108	-15808.0	-0.47087676272225626	768.0	3200.0	1.9619865113427344	0.0	35365.0	1079.254150390625	-0.4173913043478261	709.0	-174.0	1.1777777777777778	-559.0	-0.40319361277445115	37.0	0.764218402505088	-48.0	1.111967136406389	0.09882169430194533	-93.0	
9.668579888721519	1901.0	-0.6361713207457391	2102.0	2.0180349290532513	1269.0	9.809932556713672	-16000.0	-0.47087676272225626	768.0	3200.0	1.9619865113427344	0.0	36005.0	1098.785400390625	-0.40869565217391307	713.0	-172.0	1.1818181818181819	-565.0	-0.39121756487025955	47.0	0.9337134198282586	-63.0	1.3311414896126994	-0.05496451062413811	-104.0	
9.73002853554122	1905.0	-0.6364486725194556	2102.0	1.9704538709193735	1264.0	9.731453096259962	-15872.0	-0.4316370324954016	704.0	3072.0	1.883507050889025	0.0	36645.0	1118.316650390625	-0.40652173913043477	714.0	-175.0	1.1757575757575758	-539.0	-0.44311377245508987	-40.0	0.9585970424418162	-42.0	0.9616392541141587	1.2679805694995363	-105.0	
9.742586332458215	1907.0	-0.624027774534713	2101.0	1.9466072723262224	1263.0	9.849172286940528	-16064.0	-0.3139178418148375	512.0	2944.0	1.8050275904353157	0.0	37285.0	1137.847900390625	-0.4152173913043478	710.0	-169.0	1.187878787878788	-559.0	-0.40319361277445115	-109.0	1.1784377660460617	-9.0	0.4096085297513603	2.315211820058171	-119.0	
9.69298008944396	1909.0	-0.732278248181228	2110.0	1.9209323196174461	1267.0	9.731453096259962	-15872.0	-0.5493562231759657	896.0	3072.0	1.883507050889025	0.0	37925.0	1157.379150390625	-0.41304347826086957	711.0	-175.0	1.1757575757575758	-554.0	-0.4131736526946108	-148.0	1.2674607131880078	49.0	-0.48987892050246823	2.907477484122873	-125.0	
9.766253869832639	1911.0	-0.745468934648162	2111.0	1.8974367650144948	1261.0	9.809932556713672	-16000.0	-0.627835683629675	1024.0	2816.0	1.7265481299816063	0.0	38565.0	1176.910400390625	-0.4108695652173913	712.0	-179.0	1.1676767676767676	-545.0	-0.43113772455089827	-216.0	1.0837499316738837	113.0	-1.477981711281921	3.943535124257406	-113.0	
9.656155715853501	1905.0	-0.7081128404354975	2108.0	1.9689985010433362	1270.0	9.809932556713672	-16000.0	-0.47087676272225626	768.0	3072.0	1.883507050889025	0.0	39205.0	1196.441650390625	-0.41304347826086957	711.0	-190.0	1.1454545454545455	-527.0	-0.4670658682634731	-218.0	0.7558229726921966	154.0	-2.0710673786479816	3.9772326447977933	-92.0	
9.643363052531912	1906.0	-0.7807696651233593	2114.0	1.9560958133921573	1271.0	9.770692826486817	-15936.0	-0.5493562231759657	896.0	2880.0	1.765787860208461	0.0	39845.0	1215.972900390625	-0.4108695652173913	712.0	-178.0	1.1696969696969697	-557.0	-0.407185628742515	-208.0	0.9336141037145497	186.0	-2.557118111117053	3.8233634787347177	-104.0	
9.533396363822199	1905.0	-0.790982381274834	2115.0	1.9669422121146296	1280.0	9.652973635806253	-15744.0	-0.627835683629675	1024.0	3072.0	1.883507050889025	0.0	40485.0	1235.504150390625	-0.41304347826086957	711.0	-178.0	1.1696969696969697	-545.0	-0.43113772455089827	-195.0	2.098077473915233	181.0	-2.555293497695243	3.6140002138540037	-180.0	
9.50925693485904	1906.0	-0.7780612632267466	2114.0	1.9547818362343947	1282.0	9.613733905579398	-15680.0	-0.5885959534028203	960.0	3008.0	1.8442673206621703	0.0	41125.0	1255.035400390625	-0.4108695652173913	712.0	-169.0	1.187878787878788	-564.0	-0.3932135728542915	-198.0	3.0644456501259865	183.0	-2.6543628253127975	3.6499639085177518	-243.0	
9.48450335513994	1902.0	-0.7663323201754982	2113.0	2.0028443609520536	1284.0	9.613733905579398	-15680.0	-0.5885959534028203	960.0	3136.0	1.9227467811158798	0.0	41765.0	1274.566650390625	-0.4108695652173913	712.0	-173.0	1.1797979797979798	-555.0	-0.4111776447105789	-205.0	1.4424428864979775	165.0	-2.275864920631101	3.7726478144810285	-137.0	
9.484018510873856	1901.0	-0.8031414941955997	2116.0	2.0145196135402763	1284.0	9.613733905579398	-15680.0	-0.5885959534028203	960.0	3136.0	1.9227467811158798	0.0	42405.0	1294.097900390625	-0.40652173913043477	714.0	-174.0	1.1777777777777778	-546.0	-0.42914171656686634	-182.0	0.38712719691202885	123.0	-1.5587373957773671	3.433391085445329	-68.0	
9.618615949151486	1905.0	-0.8048961560947412	2116.0	1.9676552702197236	1273.0	9.692213366033108	-15808.0	-0.6670754138565297	1088.0	3072.0	1.883507050889025	0.0	43045.0	1313.629150390625	-0.4108695652173913	712.0	-174.0	1.1777777777777778	-565.0	-0.39121756487025955	-159.0	0.5702124167794462	107.0	-1.3176076716728622	3.0817503473150953	-80.0	
9.594347213698466	1902.0	-0.7563580390233914	2112.0	2.00404254234916	1275.0	9.731453096259962	-15872.0	-0.5885959534028203	960.0	3136.0	1.9227467811158798	0.0	43685.0	1333.160400390625	-0.40217391304347827	716.0	-177.0	1.1717171717171717	-563.0	-0.3952095808383234	-166.0	0.7293973017154387	75.0	-0.8531853748574572	3.1866223767927315	-90.0	
9.618607314033254	1901.0	-0.7570889107312342	2112.0	2.016326027406514	1273.0	9.692213366033108	-15808.0	-0.627835683629675	1024.0	3136.0	1.9227467811158798	0.0	44325.0	1352.691650390625	-0.4043478260869565	715.0	-176.0	1.1737373737373737	-552.0	-0.4171656686626747	-170.0	1.3451081683883608	64.0	-0.7335547700245528	3.241301770027143	-130.0	
9.60628870107996	1898.0	-0.733177504694611	2110.0	2.0525865336506	1274.0	9.652973635806253	-15744.0	-0.5493562231759657	896.0	3072.0	1.883507050889025	0.0	44965.0	1372.222900390625	-0.40869565217391307	713.0	-170.0	1.185858585858586	-556.0	-0.40918163672654695	-137.0	1.4443569237750582	86.0	-1.0502215202308611	2.7384081417888657	-137.0	
9.631518489946911	1899.0	-0.6602900283622513	2104.0	2.0415195135315085	1272.0	9.731453096259962	-15872.0	-0.47087676272225626	768.0	3264.0	2.001226241569589	0.0	45605.0	1391.754150390625	-0.4043478260869565	715.0	-180.0	1.1656565656565656	-549.0	-0.42315369261477054	-97.0	1.103953884443264	67.0	-0.7173372967185192	2.1334471531707764	-115.0	
9.59495272933618	1903.0	-0.7073586186630455	2108.0	1.9924903989380562	1275.0	9.731453096259962	-15872.0	-0.47087676272225626	768.0	3072.0	1.883507050889025	0.0	46245.0	1411.285400390625	-0.40217391304347827	716.0	-179.0	1.1676767676767676	-549.0	-0.42315369261477054	-73.0	1.4719856844983328	44.0	-0.3835239633391817	1.7647478237633818	-139.0	
9.52204743940107	1904.0	-0.6934526271980082	2107.0	1.9798522131822711	1281.0	9.613733905579398	-15680.0	-0.5885959534028203	960.0	3136.0	1.9227467811158798	0.0	46885.0	1430.816650390625	-0.40652173913043477	714.0	-170.0	1.185858585858586	-564.0	-0.3932135728542915	-96.0	2.1776966194080667	65.0	-0.7614764185568061	2.1075006003458436	-185.0	
9.546061879433479	1901.0	-0.6946603689045865	2107.0	2.016224858478782	1279.0	9.613733905579398	-15680.0	-0.47087676272225626	768.0	3200.0	1.9619865113427344	0.0	47525.0	1450.347900390625	-0.40217391304347827	716.0	-185.0	1.1555555555555554	-543.0	-0.43512974051896214	-174.0	1.7725806417651961	81.0	-1.020612877965767	3.297863547194516	-158.0	
9.533618277549436	1896.0	-0.6590355865264544	2104.0	2.076697634139145	1280.0	9.53525444512569	-15552.0	-0.510116492949111	832.0	3328.0	2.040465971796444	0.0	48165.0	1469.879150390625	-0.4	717.0	-173.0	1.1797979797979798	-546.0	-0.42914171656686634	-212.0	1.1077913108089859	51.0	-0.5476862988098703	3.8824582085649144	-114.0	
9.582390614860065	1899.0	-0.6958758939660347	2107.0	2.0406723761246024	1276.0	9.692213366033108	-15808.0	-0.5493562231759657	896.0	3008.0	1.8442673206621703	0.0	48805.0	1489.410400390625	-0.4043478260869565	715.0	-171.0	1.183838383838384	-565.0	-0.39121756487025955	-221.0	1.2826049646213844	19.0	-0.08556849434628588	4.017592201304357	-125.0	
9.631522807506027	1901.0	-0.6841936510440046	2106.0	2.0171841349381134	1272.0	9.652973635806253	-15744.0	-0.47087676272225626	768.0	3200.0	1.9619865113427344	0.0	49445.0	1508.941650390625	-0.39565217391304347	719.0	-179.0	1.1676767676767676	-559.0	-0.40319361277445115	-232.0	1.506118251836339	-29.0	0.6118231455644727	4.182657448660343	-139.0	
9.63127714720365	1899.0	-0.6846705210427402	2106.0	2.041273295177271	1272.0	9.731453096259962	-15872.0	-0.4316370324954016	704.0	3072.0	1.883507050889025	0.0	50085.0	1528.472900390625	-0.39565217391304347	719.0	-175.0	1.1757575757575758	-551.0	-0.4191616766467066	-198.0	0.8373231788781565	0.0	0.24427308459309788	3.67223513323023	-96.0	
9.63115431705246	1898.0	-0.684908956042108	2106.0	2.05331787529685	1272.0	9.731453096259962	-15872.0	-0.4316370324954016	704.0	3072.0	1.883507050889025	0.0	50725.0	1548.004150390625	-0.40652173913043477	714.0	-168.0	1.1898989898989898	-540.0	-0.44111776447105794	-175.0	1.3719606287187083	-8.0	0.34099474350646536	3.317078872800266	-131.0	
9.668814755126107	1898.0	-0.57593539404262	2097.0	2.0547842152975813	1269.0	9.770692826486817	-15936.0	-0.3139178418148375	512.0	3136.0	1.9227467811158798	0.0	51365.0	1567.535400390625	-0.3978260869565217	718.0	-177.0	1.1717171717171717	-556.0	-0.40918163672654695	-194.0	2.2526859093554994	-33.0	0.6429499223160764	3.597245004024316	-188.0	
9.65614492195571	1900.0	-0.648353783731114	2103.0	2.0298369475268236	1270.0	9.770692826486817	-15936.0	-0.47087676272225626	768.0	3072.0	1.883507050889025	0.0	52005.0	1587.066650390625	-0.40217391304347827	716.0	-175.0	1.1757575757575758	-544.0	-0.4331337325349302	-206.0	1.273169119342467	-35.0	0.7338089181690983	3.7895496776278685	-124.0	
9.69247797494141	1900.0	-0.6734729314743155	2105.0	2.0299490865792484	1267.0	9.770692826486817	-15936.0	-0.47087676272225626	768.0	3136.0	1.9227467811158798	0.0	52645.0	1606.597900390625	-0.39565217391304347	719.0	-170.0	1.185858585858586	-540.0	-0.44111776447105794	-215.0	1.2817296157716924	19.0	-0.08185737995227887	3.9263462019411426	-125.0	
9.705160760789157	1904.0	-0.6727654098310819	2105.0	1.9818902185698213	1266.0	9.809932556713672	-16000.0	-0.4316370324954016	704.0	3136.0	1.9227467811158798	0.0	53285.0	1626.129150390625	-0.3978260869565217	718.0	-170.0	1.185858585858586	-553.0	-0.41516966067864275	-218.0	-0.12308599980828426	83.0	-0.9454275480450065	3.986021734522798	-34.0	
9.486326378391757	1908.0	-0.655189493117091	2104.0	1.9316848628286498	1284.0	9.53525444512569	-15552.0	-0.47087676272225626	768.0	2880.0	1.765787860208461	0.0	53925.0	1645.660400390625	-0.40217391304347827	716.0	-171.0	1.183838383838384	-549.0	-0.42315369261477054	-160.0	-6.791637752918641	211.0	-2.365051654685984	3.1705779744873617	399.0	
9.509618948973936	1906.0	-0.741490524206013	2111.0	1.955151163765751	1282.0	9.613733905579398	-15680.0	-0.510116492949111	832.0	3008.0	1.8442673206621703	0.0	54565.0	1665.191650390625	-0.3978260869565217	718.0	-170.0	1.185858585858586	-566.0	-0.3892215568862276	-96.0	-17.09832741213439	355.0	-3.767691232917973	2.300260840661268	1069.0	
9.64105734379357	1900.0	-0.9406734775427446	2127.0	2.026762874807086	1271.0	9.692213366033108	-15808.0	-0.7063151440833844	1152.0	3200.0	1.9619865113427344	0.0	55205.0	1684.722900390625	-0.4108695652173913	712.0	-178.0	1.1696969696969697	-561.0	-0.3992015968063873	-145.0	-19.54929104028128	383.0	-4.046704155278034	3.0700176252317104	1229.0	
9.725544265774838	1896.0	-0.9799214850406119	2130.0	2.0754080350362574	1264.0	9.849172286940528	-16064.0	-0.8240343347639485	1344.0	3264.0	2.001226241569589	0.0	55845.0	1704.254150390625	-0.40869565217391307	713.0	-175.0	1.1757575757575758	-555.0	-0.4111776447105789	-215.0	-11.674650389953527	406.0	-4.9821922820785405	4.055910001998395	716.0	
9.566925911126125	1892.0	-0.9411036474122618	2127.0	2.122402800950391	1277.0	9.692213366033108	-15808.0	-0.7063151440833844	1152.0	3264.0	2.001226241569589	0.0	56485.0	1723.785400390625	-0.4260869565217391	705.0	-171.0	1.183838383838384	-554.0	-0.4131736526946108	-237.0	-2.866812409352086	398.0	-5.4886618059616445	4.302432382648654	142.0	
9.457073417449365	1888.0	-0.9032706832008618	2124.0	2.169875376740075	1286.0	9.574494175352545	-15616.0	-0.7063151440833844	1152.0	3392.0	2.0797057020232983	0.0	57125.0	1743.316650390625	-0.4152173913043478	710.0	-175.0	1.1757575757575758	-560.0	-0.4011976047904192	-226.0	0.2520317997320739	351.0	-4.994393671542857	4.103943560329676	-61.0	
9.530586381801749	1889.0	-0.88012906564643	2122.0	2.1587937297880586	1280.0	9.574494175352545	-15616.0	-0.745554874310239	1216.0	3328.0	2.040465971796444	0.0	57765.0	1762.847900390625	-0.40869565217391307	713.0	-177.0	1.1717171717171717	-550.0	-0.4211576846307386	-217.0	-0.9164470070131244	259.0	-3.528281916594703	3.978746219119561	16.0	
9.432578450709993	1892.0	-0.9627757381961382	2129.0	2.120842605438391	1288.0	9.53525444512569	-15552.0	-0.7063151440833844	1152.0	3264.0	2.001226241569589	0.0	58405.0	1782.379150390625	-0.41304347826086957	711.0	-180.0	1.1656565656565656	-554.0	-0.4131736526946108	-195.0	-3.227302175800919	204.0	-2.529474660281895	3.6672540103511655	167.0	
9.529011177631869	1886.0	-1.0027468340469785	2132.0	2.1936963783756074	1280.0	9.613733905579398	-15680.0	-0.7847946045370937	1280.0	3456.0	2.118945432250153	0.0	59045.0	1801.910400390625	-0.4108695652173913	712.0	-169.0	1.187878787878788	-571.0	-0.3792415169660679	-219.0	-1.9753628828800431	163.0	-2.0165177418522986	4.0197536288288	86.0	
9.5294830692206	1881.0	-0.8942267919816169	2123.0	2.25502726156757	1280.0	9.652973635806253	-15744.0	-0.6670754138565297	1088.0	3456.0	2.118945432250153	0.0	59685.0	1821.441650390625	-0.4152173913043478	710.0	-171.0	1.183838383838384	-549.0	-0.42315369261477054	-230.0	1.7797019238178269	88.0	-1.1601244864981506	4.149503360989959	-158.0	
9.457678933087081	1889.0	-0.8542712628405159	2120.0	2.158323233328971	1286.0	9.496014714898834	-15488.0	-0.745554874310239	1216.0	3456.0	2.118945432250153	0.0	60325.0	1840.972900390625	-0.41304347826086957	711.0	-170.0	1.185858585858586	-571.0	-0.3792415169660679	-212.0	2.951974766791801	26.0	-0.3012288736431258	3.864016374005086	-234.0	
9.45755826171545	1889.0	-0.8664615091807605	2121.0	2.1582001241518523	1286.0	9.574494175352545	-15616.0	-0.627835683629675	1024.0	3392.0	2.0797057020232983	0.0	60965.0	1860.504150390625	-0.4152173913043478	710.0	-181.0	1.1636363636363636	-557.0	-0.407185628742515	-168.0	0.6197266895792819	-10.0	0.42759378829990113	3.2181373338646635	-82.0	
9.603127498842404	1887.0	-0.9186539847913242	2125.0	2.1832302773091845	1274.0	9.731453096259962	-15872.0	-0.7063151440833844	1152.0	3456.0	2.118945432250153	0.0	61605.0	1880.035400390625	-0.4108695652173913	712.0	-172.0	1.1818181818181819	-559.0	-0.40319361277445115	-140.0	-0.26866025273430966	-45.0	1.0311973712016542	2.8011656899798147	-24.0	
9.529498180677509	1888.0	-0.977889471367754	2130.0	2.1698534364906874	1280.0	9.613733905579398	-15680.0	-0.7847946045370937	1280.0	3328.0	2.040465971796444	0.0	62245.0	1899.566650390625	-0.4152173913043478	710.0	-168.0	1.1898989898989898	-570.0	-0.3812375249500998	-192.0	1.1712580268111632	-85.0	1.4990442278817335	3.577641031899189	-117.0	
9.480969344889703	1886.0	-0.9286204825885614	2126.0	2.19395722356277	1284.0	9.613733905579398	-15680.0	-0.6670754138565297	1088.0	3520.0	2.158185162477008	0.0	62885.0	1919.097900390625	-0.4152173913043478	710.0	-174.0	1.1777777777777778	-562.0	-0.39720558882235535	-229.0	2.9407090045169078	-87.0	1.3833659416262436	4.1226841647076835	-232.0	
9.505707813151897	1883.0	-0.8566867462536727	2120.0	2.2310685239219934	1282.0	9.574494175352545	-15616.0	-0.6670754138565297	1088.0	3648.0	2.2366646229307174	0.0	63525.0	1938.629150390625	-0.4108695652173913	712.0	-168.0	1.1898989898989898	-557.0	-0.407185628742515	-196.0	2.8632544125969686	-114.0	1.813630428050648	3.621557569942472	-227.0	
9.506194816197539	1885.0	-0.8318293835744481	2118.0	2.2072255820370734	1282.0	9.652973635806253	-15744.0	-0.627835683629675	1024.0	3456.0	2.118945432250153	0.0	64165.0	1958.160400390625	-0.40869565217391307	713.0	-180.0	1.1656565656565656	-558.0	-0.4051896207584831	-159.0	2.341042886076765	-145.0	2.3372534721917804	3.0640420426221224	-193.0	
9.603726538141446	1885.0	-0.8337991304083483	2118.0	2.2081812017881735	1274.0	9.652973635806253	-15744.0	-0.6670754138565297	1088.0	3456.0	2.118945432250153	0.0	64805.0	1977.691650390625	-0.4043478260869565	715.0	-167.0	1.1919191919191918	-570.0	-0.3812375249500998	-141.0	0.9113281194020247	-140.0	2.372749671553918	2.8045749317337365	-100.0	
9.62787676100239	1889.0	-0.9064793051608192	2124.0	2.159503131184921	1272.0	9.652973635806253	-15744.0	-0.627835683629675	1024.0	3392.0	2.0797057020232983	0.0	65445.0	1997.222900390625	-0.41304347826086957	711.0	-171.0	1.183838383838384	-548.0	-0.42514970059880247	-145.0	1.475485213988802	-114.0	1.941245780243358	2.85976986268901	-137.0	
9.579600061855638	1892.0	-0.8925888804055213	2123.0	2.1230146901277536	1276.0	9.652973635806253	-15744.0	-0.5885959534028203	960.0	3328.0	2.040465971796444	0.0	549.0	2016.754150390625	-0.40869565217391307	713.0	-169.0	1.187878787878788	-564.0	-0.3932135728542915	-222.0	1.8286835168404552	-42.0	0.7903588020359373	4.027340541257451	-160.0	
9.55472149320579	1886.0	-0.869146561012764	2121.0	2.195289484261689	1278.0	9.692213366033108	-15808.0	-0.7063151440833844	1152.0	3456.0	2.118945432250153	0.0	1189.0	2036.285400390625	-0.3978260869565217	718.0	-175.0	1.1757575757575758	-562.0	-0.39720558882235535	-263.0	1.6154530905801057	-12.0	0.330481561480412	4.653046990006747	-146.0	
9.567165095089829	1891.0	-0.904771343390896	2124.0	2.134816708601326	1277.0	9.613733905579398	-15680.0	-0.7063151440833844	1152.0	3264.0	2.001226241569589	0.0	1829.0	2055.816650390625	-0.4043478260869565	715.0	-175.0	1.1757575757575758	-553.0	-0.41516966067864275	-253.0	0.9695411553331112	-10.0	0.351535674867465	4.507414854606364	-104.0	
9.529739523420771	1888.0	-0.9535089786872649	2128.0	2.170099654844925	1280.0	9.574494175352545	-15616.0	-0.7063151440833844	1152.0	3520.0	2.158185162477008	0.0	2469.0	2075.347900390625	-0.4108695652173913	712.0	-165.0	1.195959595959596	-569.0	-0.38323353293413176	-251.0	0.049030216792691005	-10.0	0.4168199662279011	4.486201713041199	-44.0	
9.5544866268012	1889.0	-0.9293824877158832	2126.0	2.1585401980173584	1278.0	9.652973635806253	-15744.0	-0.745554874310239	1216.0	3456.0	2.118945432250153	0.0	3109.0	2094.879150390625	-0.4108695652173913	712.0	-176.0	1.1737373737373737	-565.0	-0.39121756487025955	-261.0	0.16929006836040747	16.0	0.012561132917399631	4.637090369278374	-52.0	
9.542536504301474	1889.0	-0.9047557766811566	2124.0	2.1586669639027085	1279.0	9.574494175352545	-15616.0	-0.7063151440833844	1152.0	3264.0	2.001226241569589	0.0	3749.0	2114.410400390625	-0.40217391304347827	716.0	-168.0	1.1898989898989898	-554.0	-0.4131736526946108	-270.0	1.7674472974967015	4.0	0.07576414957592215	4.7579909262645765	-156.0	
9.433903677018378	1891.0	-0.8167312171125718	2117.0	2.134364495683395	1288.0	9.496014714898834	-15488.0	-0.7063151440833844	1152.0	3456.0	2.118945432250153	0.0	4389.0	2133.941650390625	-0.4043478260869565	715.0	-167.0	1.1919191919191918	-568.0	-0.38522954091816375	-272.0	1.3243147407064828	-5.0	0.24032197922363197	4.79284050278305	-127.0	
9.531071226067832	1890.0	-0.8433198916263288	2119.0	2.1471184771998364	1280.0	9.652973635806253	-15744.0	-0.5885959534028203	960.0	3328.0	2.040465971796444	0.0	5029.0	2153.472900390625	-0.4	717.0	-168.0	1.1898989898989898	-568.0	-0.38522954091816375	-264.0	-0.23912767450800484	-19.0	0.5638995439484147	4.686801923132913	-25.0	
9.506451270397708	1892.0	-0.8911115702800962	2123.0	2.1222979753144284	1282.0	9.613733905579398	-15680.0	-0.6670754138565297	1088.0	3392.0	2.0797057020232983	0.0	5669.0	2173.004150390625	-0.40869565217391307	713.0	-170.0	1.185858585858586	-548.0	-0.42514970059880247	-275.0	0.2102458394265988	-39.0	0.8257812071319595	4.849608568221703	-54.0	
9.494149927680882	1897.0	-0.9628146549704868	2129.0	2.0612169671849347	1283.0	9.574494175352545	-15616.0	-0.7847946045370937	1280.0	3200.0	1.9619865113427344	0.0	6309.0	2192.535400390625	-0.4108695652173913	712.0	-176.0	1.1737373737373737	-541.0	-0.439121756487026	-305.0	0.95124732552369	-42.0	0.8009340643736375	5.298472317619288	-102.0	
9.53120700889637	1897.0	-0.9147923246722213	2125.0	2.062067761300072	1280.0	9.613733905579398	-15680.0	-0.745554874310239	1216.0	3200.0	1.9619865113427344	0.0	6949.0	2212.066650390625	-0.391304347826087	721.0	-175.0	1.1757575757575758	-560.0	-0.4011976047904192	-341.0	0.2383575843332065	-60.0	1.0985151171423515	5.8531297321414595	-55.0	
9.603618819447163	1891.0	-0.9177002447938531	2125.0	2.1350519568308695	1274.0	9.692213366033108	-15808.0	-0.6670754138565297	1088.0	3264.0	2.001226241569589	0.0	7589.0	2231.597900390625	-0.39565217391304347	719.0	-178.0	1.1696969696969697	-550.0	-0.4211576846307386	-325.0	-0.23717615610668102	-75.0	1.366233662003039	5.614539061941295	-24.0	
9.615577577065123	1895.0	-0.9901342011920866	2131.0	2.0862544337587297	1273.0	9.731453096259962	-15872.0	-0.7847946045370937	1280.0	3200.0	1.9619865113427344	0.0	8229.0	2251.129150390625	-0.40217391304347827	716.0	-178.0	1.1696969696969697	-535.0	-0.4510978043912176	-298.0	0.3622704279260216	-110.0	1.8656756664520786	5.197898208268268	-63.0	
9.579483708043123	1894.0	-0.9286827494275193	2126.0	2.0985562023572397	1276.0	9.692213366033108	-15808.0	-0.6670754138565297	1088.0	3328.0	2.040465971796444	0.0	8869.0	2270.660400390625	-0.4	717.0	-174.0	1.1777777777777778	-555.0	-0.4111776447105789	-274.0	0.928784210273279	-127.0	2.095719631375124	4.827214059037952	-100.0	
9.615814602249268	1893.0	-0.9418500858298441	2127.0	2.110836030706362	1273.0	9.692213366033108	-15808.0	-0.7847946045370937	1280.0	3264.0	2.001226241569589	0.0	9509.0	2290.191650390625	-0.40217391304347827	716.0	-166.0	1.1939393939393939	-551.0	-0.4191616766467066	-261.0	1.1596389142538508	-145.0	2.3574259566914915	4.627186880819439	-115.0	
9.616060262551647	1895.0	-0.9413732158311086	2127.0	2.0867468704672048	1273.0	9.692213366033108	-15808.0	-0.745554874310239	1216.0	3264.0	2.001226241569589	0.0	10149.0	2309.722900390625	-0.4	717.0	-180.0	1.1656565656565656	-560.0	-0.4011976047904192	-254.0	1.679625778054294	-142.0	2.280515914859683	4.515523133854438	-149.0	
9.628738730840276	1897.0	-0.9167620715061213	2125.0	2.0630233810511722	1272.0	9.692213366033108	-15808.0	-0.7847946045370937	1280.0	3200.0	1.9619865113427344	0.0	10789.0	2329.254150390625	-0.40217391304347827	716.0	-176.0	1.1737373737373737	-545.0	-0.43113772455089827	-236.0	1.3398856527061676	-144.0	2.3450974054223694	4.2451562765527875	-127.0	
9.615939591180016	1895.0	-0.9535634621713531	2128.0	2.086623761290086	1273.0	9.731453096259962	-15872.0	-0.8240343347639485	1344.0	3136.0	1.9227467811158798	0.0	11429.0	2348.785400390625	-0.3978260869565217	718.0	-171.0	1.183838383838384	-541.0	-0.439121756487026	-201.0	0.4127626259875916	-132.0	2.2510078987698705	3.7221081151849913	-67.0	
9.615329757983186	1892.0	-0.9786592598499455	2130.0	2.122511283294585	1273.0	9.692213366033108	-15808.0	-0.8632740649908032	1408.0	3264.0	2.001226241569589	0.0	12069.0	2368.316650390625	-0.4043478260869565	715.0	-171.0	1.183838383838384	-556.0	-0.40918163672654695	-160.0	-0.06141801505238732	-78.0	1.4993586347669203	3.1032757771086987	-37.0	
9.628008226271813	1894.0	-0.9540481155249583	2128.0	2.0987877938785524	1272.0	9.652973635806253	-15744.0	-0.8240343347639485	1344.0	3264.0	2.001226241569589	0.0	12709.0	2387.847900390625	-0.40217391304347827	716.0	-181.0	1.1636363636363636	-550.0	-0.4211576846307386	-177.0	0.8573863450184231	-52.0	1.0352625485315237	3.3526428665878387	-97.0	
9.604472154166816	1895.0	-0.8801757657756484	2122.0	2.087242963883911	1274.0	9.692213366033108	-15808.0	-0.627835683629675	1024.0	3328.0	2.040465971796444	0.0	13349.0	2407.379150390625	-0.39565217391304347	719.0	-173.0	1.1797979797979798	-546.0	-0.42914171656686634	-182.0	-2.021642212780774	-76.0	1.592421201014313	3.457478779542257	91.0	
9.701525508183312	1897.0	-0.9548101206522801	2128.0	2.063370768333141	1266.0	9.809932556713672	-16000.0	-0.6670754138565297	1088.0	3264.0	2.001226241569589	0.0	13989.0	2426.910400390625	-0.3978260869565217	718.0	-165.0	1.195959595959596	-562.0	-0.39720558882235535	-139.0	-4.107996216974772	-12.0	0.8042708956436461	2.8243499241469343	226.0	
9.72566277836691	1895.0	-0.9557794273594906	2128.0	2.0876988335100735	1264.0	9.888412017167381	-16128.0	-0.745554874310239	1216.0	3264.0	2.001226241569589	0.0	14629.0	2446.441650390625	-0.3934782608695652	720.0	-175.0	1.1757575757575758	-560.0	-0.4011976047904192	-162.0	-0.2891767505679106	11.0	0.17966107913756954	3.1359716154144244	-23.0	
9.604590666758888	1894.0	-0.8560337080945272	2120.0	2.0995337623577273	1274.0	9.692213366033108	-15808.0	-0.6670754138565297	1088.0	3200.0	1.9619865113427344	0.0	15269.0	2465.972900390625	-0.40217391304347827	716.0	-168.0	1.1898989898989898	-548.0	-0.42514970059880247	-182.0	1.1232457262491573	21.0	-0.08073586311038589	3.426029900151957	-115.0	
9.604840644620385	1898.0	-0.8794604607775451	2122.0	2.0511092235251747	1274.0	9.692213366033108	-15808.0	-0.6670754138565297	1088.0	3200.0	1.9619865113427344	0.0	15909.0	2485.504150390625	-0.40869565217391307	713.0	-168.0	1.1898989898989898	-563.0	-0.3952095808383234	-190.0	-0.3366455613554923	48.0	-0.3887919508445937	3.562301816830285	-20.0	
9.66543811549999	1899.0	-0.9292141029103429	2126.0	2.0391694690415587	1269.0	9.770692826486817	-15936.0	-0.7063151440833844	1152.0	3264.0	2.001226241569589	0.0	16549.0	2505.035400390625	-0.39565217391304347	719.0	-175.0	1.1757575757575758	-554.0	-0.4131736526946108	-224.0	-0.9298277023410771	48.0	-0.3681908844783849	4.085343904399838	19.0	
9.689456873091514	1898.0	-0.9543254672986747	2128.0	2.0512067357446746	1267.0	9.770692826486817	-15936.0	-0.7063151440833844	1152.0	3136.0	1.9227467811158798	0.0	17189.0	2524.566650390625	-0.40217391304347827	716.0	-170.0	1.185858585858586	-540.0	-0.44111776447105794	-252.0	0.7891533726771174	67.0	-0.7897237590463635	4.494009606957641	-93.0	
9.65360218803322	1896.0	-0.8565417115127417	2120.0	2.07592241199412	1270.0	9.770692826486817	-15936.0	-0.627835683629675	1024.0	3200.0	1.9619865113427344	0.0	17829.0	2544.097900390625	-0.40652173913043477	714.0	-169.0	1.187878787878788	-562.0	-0.39720558882235535	-214.0	1.7029298174671659	73.0	-0.920159751370073	3.906925074448903	-153.0	
9.593123229745686	1894.0	-0.7826460116988228	2114.0	2.1001529649515525	1275.0	9.574494175352545	-15616.0	-0.5885959534028203	960.0	3264.0	2.001226241569589	0.0	18469.0	2563.629150390625	-0.4043478260869565	715.0	-177.0	1.1717171717171717	-559.0	-0.40319361277445115	-194.0	2.4405316804106634	44.0	-0.5245469319550601	3.5953665463137643	-201.0	
9.519978755846873	1896.0	-0.8050723242551511	2116.0	2.0751008715448322	1281.0	9.652973635806253	-15744.0	-0.5885959534028203	960.0	3200.0	1.9619865113427344	0.0	19109.0	2583.160400390625	-0.3934782608695652	720.0	-171.0	1.183838383838384	-553.0	-0.41516966067864275	-187.0	2.933290105575717	24.0	-0.2547342882509493	3.4839750837351176	-233.0	
9.470975869690776	1898.0	-0.8523715662004434	2120.0	2.05004146472165	1285.0	9.496014714898834	-15488.0	-0.6670754138565297	1088.0	3136.0	1.9227467811158798	0.0	19749.0	2602.691650390625	-0.3978260869565217	718.0	-167.0	1.1919191919191918	-562.0	-0.39720558882235535	-239.0	2.118222036548196	-13.0	0.3250821070454326	4.2830002891402215	-179.0	
9.5193710814296	1894.0	-0.8421199332746201	2119.0	2.0988207042526335	1281.0	9.574494175352545	-15616.0	-0.5885959534028203	960.0	3200.0	1.9619865113427344	0.0	20389.0	2622.222900390625	-0.39565217391304347	719.0	-173.0	1.1797979797979798	-553.0	-0.41516966067864275	-301.0	2.48496157544305	-46.0	0.7565910276477995	5.222298673218955	-202.0	
9.483042346003016	1896.0	-0.840904408213172	2119.0	2.0743731866068136	1284.0	9.53525444512569	-15552.0	-0.5885959534028203	960.0	3328.0	2.040465971796444	0.0	21029.0	2641.754150390625	-0.391304347826087	721.0	-166.0	1.1939393939393939	-549.0	-0.42315369261477054	-321.0	3.242987054350649	-70.0	1.051485243890625	5.518900927935581	-251.0	
9.409535857989308	1898.0	-0.8999014597902338	2124.0	2.048951765668737	1290.0	9.496014714898834	-15488.0	-0.7847946045370937	1280.0	3136.0	1.9227467811158798	0.0	21669.0	2661.285400390625	-0.4043478260869565	715.0	-169.0	1.187878787878788	-537.0	-0.44710578842315374	-331.0	2.604337316572681	-97.0	1.4946492166492578	5.677378680066212	-209.0	
9.457944022405483	1900.0	-0.9613606949096709	2129.0	2.024724869419536	1286.0	9.53525444512569	-15552.0	-0.745554874310239	1216.0	3136.0	1.9227467811158798	0.0	22309.0	2680.816650390625	-0.3869565217391304	723.0	-174.0	1.1777777777777778	-547.0	-0.4271457085828344	-350.0	2.608157895141201	-104.0	1.5877718952565536	5.966313858310945	-209.0	
9.432832746130604	1898.0	-1.0101061135609095	2133.0	2.0480826880124434	1288.0	9.53525444512569	-15552.0	-0.8632740649908032	1408.0	3200.0	1.9619865113427344	0.0	22949.0	2700.347900390625	-0.3891304347826087	722.0	-170.0	1.185858585858586	-550.0	-0.4211576846307386	-362.0	1.3727061297237853	-138.0	2.1762040853377504	6.161177881668542	-128.0	
9.591442465661084	1898.0	-1.0011167058257526	2132.0	2.0497586792850995	1275.0	9.652973635806253	-15744.0	-0.745554874310239	1216.0	3200.0	1.9619865113427344	0.0	23589.0	2719.879150390625	-0.3782608695652174	727.0	-171.0	1.183838383838384	-559.0	-0.40319361277445115	-371.0	1.0695265213492107	-153.0	2.4167176571314073	6.301091807029854	-108.0	
9.531209167675929	1898.0	-0.926744136013098	2126.0	2.049900072003375	1280.0	9.574494175352545	-15616.0	-0.7847946045370937	1280.0	3328.0	2.040465971796444	0.0	24229.0	2739.410400390625	-0.3869565217391304	723.0	-174.0	1.1777777777777778	-560.0	-0.4011976047904192	-381.0	1.5799522817228295	-172.0	2.659965945233682	6.448078804178969	-141.0	
9.580097858799071	1899.0	-0.9274905744306803	2126.0	2.038333301759346	1276.0	9.731453096259962	-15872.0	-0.7063151440833844	1152.0	3264.0	2.001226241569589	0.0	24869.0	2758.941650390625	-0.3869565217391304	723.0	-172.0	1.1818181818181819	-541.0	-0.439121756487026	-351.0	1.4489846994684592	-146.0	2.297527142077654	5.9931147157429585	-133.0	
9.531454827978306	1900.0	-0.9262672660143625	2126.0	2.0258109117642173	1280.0	9.613733905579398	-15680.0	-0.7063151440833844	1152.0	3072.0	1.883507050889025	0.0	25509.0	2778.472900390625	-0.3847826086956522	724.0	-166.0	1.1939393939393939	-550.0	-0.4211576846307386	-363.0	0.803585872413062	-126.0	2.0352964452500544	6.182078209716934	-91.0	
9.554865911152561	1897.0	-0.9884262394221633	2131.0	2.0615680111751344	1278.0	9.613733905579398	-15680.0	-0.8240343347639485	1344.0	3264.0	2.001226241569589	0.0	26149.0	2798.004150390625	-0.3869565217391304	723.0	-174.0	1.1777777777777778	-546.0	-0.42914171656686634	-366.0	0.6476575717314055	-106.0	1.7444738849579446	6.229264869149607	-81.0	
9.51829583298271	1899.0	-1.0115912070412043	2133.0	2.036874275175077	1281.0	9.652973635806253	-15744.0	-0.7847946045370937	1280.0	3200.0	1.9619865113427344	0.0	26789.0	2817.535400390625	-0.3826086956521739	725.0	-173.0	1.1797979797979798	-546.0	-0.42914171656686634	-349.0	1.5814825871346634	-111.0	1.7647843879497014	5.961371485915726	-142.0	
9.505979378808975	1897.0	-0.9996316123454578	2132.0	2.060967092122466	1282.0	9.574494175352545	-15616.0	-0.8240343347639485	1344.0	3328.0	2.040465971796444	0.0	27429.0	2837.066650390625	-0.3847826086956522	724.0	-168.0	1.1898989898989898	-556.0	-0.40918163672654695	-361.0	0.49910106939819354	-143.0	2.3125778812960527	6.154704806796513	-71.0	
9.603754602275703	1898.0	-0.9891726778397456	2131.0	2.0500012409311057	1274.0	9.731453096259962	-15872.0	-0.7847946045370937	1280.0	3136.0	1.9227467811158798	0.0	28069.0	2856.597900390625	-0.3869565217391304	723.0	-173.0	1.1797979797979798	-530.0	-0.4610778443113773	-334.0	0.11338521512463978	-154.0	2.5207671014961854	5.747915577506549	-46.0	
9.542683081027803	1901.0	-1.035987266431433	2135.0	2.012777801519457	1279.0	9.652973635806253	-15744.0	-0.8240343347639485	1344.0	3200.0	1.9619865113427344	0.0	28709.0	2876.129150390625	-0.3826086956521739	725.0	-170.0	1.185858585858586	-546.0	-0.42914171656686634	-296.0	0.539224420315754	-167.0	2.7091491122629545	5.165710417393801	-74.0	
9.604004580137197	1902.0	-1.0125994305227635	2133.0	2.001576702098553	1274.0	9.692213366033108	-15808.0	-0.745554874310239	1216.0	3200.0	1.9619865113427344	0.0	29349.0	2895.660400390625	-0.3804347826086957	726.0	-171.0	1.183838383838384	-555.0	-0.4111776447105789	-282.0	0.3574824765184203	-196.0	3.1650980705130607	4.954600080177781	-62.0	
9.628631012145995	1903.0	-1.0006631858916264	2132.0	1.9898941360938684	1272.0	9.692213366033108	-15808.0	-0.7847946045370937	1280.0	3008.0	1.8442673206621703	0.0	29989.0	2915.191650390625	-0.3891304347826087	722.0	-175.0	1.1757575757575758	-547.0	-0.4271457085828344	-243.0	0.164003733075548	-171.0	2.8274778330949815	4.363378974076089	-50.0	
9.579985822545673	1903.0	-0.9874880661344316	2131.0	1.9895394353954372	1276.0	9.652973635806253	-15744.0	-0.8240343347639485	1344.0	3072.0	1.883507050889025	0.0	30629.0	2934.722900390625	-0.3869565217391304	723.0	-167.0	1.1919191919191918	-548.0	-0.42514970059880247	-255.0	0.9332029502686511	-175.0	2.826611202342708	4.538196487607579	-100.0	
9.530870900136176	1909.0	-1.0947847997834754	2140.0	1.9156861622083456	1280.0	9.613733905579398	-15680.0	-0.9025137952176578	1472.0	3072.0	1.883507050889025	0.0	31269.0	2954.254150390625	-0.3782608695652174	727.0	-168.0	1.1898989898989898	-547.0	-0.4271457085828344	-265.0	0.17880518664915837	-146.0	2.4382510278048586	4.697831719996627	-51.0	
9.603416334735948	1909.0	-1.1572133416101231	2145.0	1.9157873311360771	1274.0	9.652973635806253	-15744.0	-0.9025137952176578	1472.0	3008.0	1.8442673206621703	0.0	31909.0	2973.785400390625	-0.3934782608695652	720.0	-176.0	1.1737373737373737	-533.0	-0.45508982035928147	-282.0	-0.6047958911224987	-120.0	2.092642360043298	4.964222863854191	0.0	
9.63962871635002	1909.0	-1.1945227356935693	2148.0	1.9157763610113832	1271.0	9.731453096259962	-15872.0	-0.9417535254445125	1536.0	3072.0	1.883507050889025	0.0	32549.0	2993.316650390625	-0.3847826086956522	724.0	-166.0	1.1939393939393939	-541.0	-0.439121756487026	-216.0	-1.7367212053615217	-102.0	1.9417113857028196	3.9717398356277602	73.0	
9.76093353558307	1906.0	-1.2220807169145367	2150.0	1.952858407704757	1261.0	9.809932556713672	-16000.0	-0.9809932556713672	1600.0	3072.0	1.883507050889025	0.0	33189.0	3012.847900390625	-0.3891304347826087	722.0	-169.0	1.187878787878788	-553.0	-0.41516966067864275	-137.0	-2.1991612612261213	-61.0	1.4072653964197337	2.7748433236388776	102.0	
9.688750115098191	1906.0	-1.1230814360671555	2142.0	1.953126566308382	1267.0	9.849172286940528	-16064.0	-0.9809932556713672	1600.0	3072.0	1.883507050889025	0.0	33829.0	3032.379150390625	-0.3760869565217391	728.0	-176.0	1.1737373737373737	-541.0	-0.439121756487026	-46.0	-0.2856697788050424	-23.0	0.7597324635444789	1.371677990563716	-24.0	
9.641186650283435	1904.0	-0.976290476566007	2130.0	1.978215226797415	1271.0	9.731453096259962	-15872.0	-0.8240343347639485	1344.0	3008.0	1.8442673206621703	0.0	34469.0	3051.910400390625	-0.391304347826087	721.0	-183.0	1.1595959595959595	-531.0	-0.4590818363273454	55.0	0.2956403522699902	-9.0	0.5708230928680457	-0.17025678375083678	-63.0	
9.677754569673723	1901.0	-0.9411736976060894	2127.0	2.01507665209417	1268.0	9.809932556713672	-16000.0	-0.745554874310239	1216.0	3072.0	1.883507050889025	0.0	35109.0	3071.441650390625	-0.3782608695652174	727.0	-173.0	1.1797979797979798	-551.0	-0.4191616766467066	99.0	-0.8511088397039444	27.0	0.13767476253339972	-0.827990812743645	11.0	
9.629105062514286	1899.0	-0.9040949551671413	2124.0	2.0390573299891335	1272.0	9.692213366033108	-15808.0	-0.7063151440833844	1152.0	3136.0	1.9227467811158798	0.0	35749.0	3090.972900390625	-0.3804347826086957	726.0	-177.0	1.1717171717171717	-550.0	-0.4211576846307386	81.0	-1.0216838121085872	57.0	-0.31117890217322053	-0.5525208044644655	22.0	
9.654099984976652	1903.0	-0.8914434055379008	2123.0	1.9912410236257123	1270.0	9.731453096259962	-15872.0	-0.6670754138565297	1088.0	3136.0	1.9227467811158798	0.0	36389.0	3110.504150390625	-0.3891304347826087	722.0	-168.0	1.1898989898989898	-546.0	-0.42914171656686634	53.0	-0.2787270220803319	39.0	-0.11005784782523964	-0.13409485905676324	-26.0	
9.70359419173751	1905.0	-0.8431904235951372	2119.0	1.96812210997058	1266.0	9.849172286940528	-16064.0	-0.5885959534028203	960.0	3008.0	1.8442673206621703	0.0	37029.0	3130.035400390625	-0.3826086956521739	725.0	-168.0	1.1898989898989898	-552.0	-0.4171656686626747	20.0	-0.4265334337117589	34.0	-0.04488404846243908	0.3692843457439618	-16.0	
9.667625311646258	1906.0	-0.7934523481720788	2115.0	1.9562116091528134	1269.0	9.731453096259962	-15872.0	-0.5885959534028203	960.0	3136.0	1.9227467811158798	0.0	37669.0	3149.566650390625	-0.3891304347826087	722.0	-171.0	1.183838383838384	-553.0	-0.41516966067864275	-3.0	0.010302432540215622	7.0	0.3155173810085614	0.714725873013001	-44.0	
9.630697536920634	1910.0	-0.8770916774936066	2122.0	1.9068131670280046	1272.0	9.809932556713672	-16000.0	-0.627835683629675	1024.0	2944.0	1.8050275904353157	0.0	38309.0	3169.097900390625	-0.3869565217391304	723.0	-167.0	1.1919191919191918	-545.0	-0.43113772455089827	2.0	0.5935768867093697	-1.0	0.3979033340784528	0.6328475010948834	-82.0	
9.643003197196578	1907.0	-0.8292922154849695	2118.0	1.9435587965641035	1271.0	9.731453096259962	-15872.0	-0.5885959534028203	960.0	3008.0	1.8442673206621703	0.0	38949.0	3188.629150390625	-0.3869565217391304	723.0	-164.0	1.197979797979798	-556.0	-0.40918163672654695	-48.0	0.507051875392902	11.0	0.19359717893799738	1.3941690249723067	-76.0	
9.703962682191078	1908.0	-0.8424751185970338	2119.0	1.9319883696118436	1266.0	9.770692826486817	-15936.0	-0.7063151440833844	1152.0	3072.0	1.883507050889025	0.0	39589.0	3208.160400390625	-0.3847826086956522	724.0	-175.0	1.1757575757575758	-542.0	-0.43712574850299407	-81.0	0.5123157114424207	8.0	0.2181322815659522	1.896017527296222	-76.0	
9.679211261251533	1905.0	-0.8426979868866622	2119.0	1.9678832050328048	1268.0	9.809932556713672	-16000.0	-0.6670754138565297	1088.0	3008.0	1.8442673206621703	0.0	40229.0	3227.691650390625	-0.3934782608695652	720.0	-169.0	1.187878787878788	-538.0	-0.4451097804391218	-130.0	0.5469924439344371	29.0	-0.12893368365769567	2.6409179082602754	-78.0	
9.5937546507381	1907.0	-0.8770683274289974	2122.0	1.9425885499800786	1275.0	9.731453096259962	-15872.0	-0.6670754138565297	1088.0	2944.0	1.8050275904353157	0.0	40869.0	3247.222900390625	-0.3782608695652174	727.0	-174.0	1.1777777777777778	-548.0	-0.42514970059880247	-127.0	1.3487220172422385	-2.0	0.2818586492890196	2.5872732361013417	-130.0	
9.605469906833239	1910.0	-0.9619309651668432	2129.0	1.9057124978503983	1274.0	9.731453096259962	-15872.0	-0.8240343347639485	1344.0	2880.0	1.765787860208461	0.0	41509.0	3266.754150390625	-0.3847826086956522	724.0	-179.0	1.1676767676767676	-544.0	-0.4331337325349302	-143.0	0.9846164823179865	-13.0	0.4623840954449503	2.8342602990551473	-106.0	
9.629363675494014	1907.0	-0.9753289532136662	2130.0	1.941962033969791	1272.0	9.692213366033108	-15808.0	-0.7063151440833844	1152.0	3072.0	1.883507050889025	0.0	42149.0	3286.285400390625	-0.3826086956521739	725.0	-165.0	1.195959595959596	-543.0	-0.43512974051896214	-169.0	1.8913443550337463	0.0	0.18855579628399965	3.2206302826854043	-165.0	
9.568404190499514	1906.0	-0.9621460501016018	2129.0	1.9535324609220508	1277.0	9.652973635806253	-15744.0	-0.8240343347639485	1344.0	3008.0	1.8442673206621703	0.0	42789.0	3305.816650390625	-0.3826086956521739	725.0	-166.0	1.1939393939393939	-557.0	-0.407185628742515	-148.0	1.8291797772348508	-15.0	0.4305456725199314	2.9018602934824047	-161.0	
9.60497858622848	1906.0	-0.9628847051643143	2129.0	1.9538908183287134	1274.0	9.731453096259962	-15872.0	-0.745554874310239	1216.0	3072.0	1.883507050889025	0.0	43429.0	3325.347900390625	-0.3826086956521739	725.0	-172.0	1.1818181818181819	-539.0	-0.44311377245508987	-112.0	0.5029994191600287	-2.0	0.3498464174007125	2.3675935799528864	-75.0	
9.6172907228431	1906.0	-0.9509406771783074	2128.0	1.9541333799747196	1273.0	9.731453096259962	-15872.0	-0.7063151440833844	1152.0	2944.0	1.8050275904353157	0.0	44069.0	3344.879150390625	-0.3891304347826087	722.0	-166.0	1.1939393939393939	-541.0	-0.439121756487026	-105.0	1.1453825587884001	3.0	0.234432587275028	2.2547058702296066	-117.0	
9.55669756952261	1907.0	-0.925090657727263	2126.0	1.941737755864941	1278.0	9.574494175352545	-15616.0	-0.745554874310239	1216.0	3008.0	1.8442673206621703	0.0	44709.0	3364.410400390625	-0.3826086956521739	725.0	-168.0	1.1898989898989898	-552.0	-0.4171656686626747	-121.0	2.006737840064138	2.0	0.17974092314218004	2.489438325021412	-173.0	
9.606545155280129	1905.0	-0.7924596914002591	2115.0	1.9676589269279547	1274.0	9.652973635806253	-15744.0	-0.627835683629675	1024.0	3008.0	1.8442673206621703	0.0	45349.0	3383.941650390625	-0.3782608695652174	727.0	-172.0	1.1818181818181819	-554.0	-0.4131736526946108	-140.0	1.2384659195847454	30.0	-0.19813639150119716	2.7860944282566242	-123.0	
9.594595032780404	1905.0	-0.7678329803655325	2113.0	1.9677856928133048	1275.0	9.692213366033108	-15808.0	-0.5885959534028203	960.0	3008.0	1.8442673206621703	0.0	45989.0	3403.472900390625	-0.3826086956521739	725.0	-170.0	1.185858585858586	-543.0	-0.43512974051896214	-167.0	1.0876868780146356	39.0	-0.3390005594543589	3.1982486065050253	-113.0	
9.520965714615505	1906.0	-0.8270684669419621	2118.0	1.9544088519948073	1281.0	9.574494175352545	-15616.0	-0.5885959534028203	960.0	3008.0	1.8442673206621703	0.0	46629.0	3423.004150390625	-0.3717391304347826	730.0	-167.0	1.1919191919191918	-556.0	-0.40918163672654695	-204.0	1.1813616333450199	64.0	-0.7428424218319241	3.7600495015372726	-119.0	
9.556930277147641	1903.0	-0.852902919683267	2120.0	1.9906547314059686	1278.0	9.652973635806253	-15744.0	-0.6670754138565297	1088.0	3008.0	1.8442673206621703	0.0	47269.0	3442.535400390625	-0.3804347826086957	726.0	-175.0	1.1757575757575758	-547.0	-0.4271457085828344	-262.0	0.36132648727643085	66.0	-0.7510381542644637	4.650379130564498	-65.0	
9.556813923335126	1905.0	-0.8889967887052651	2123.0	1.9661962436354548	1278.0	9.53525444512569	-15552.0	-0.7063151440833844	1152.0	3136.0	1.9227467811158798	0.0	47909.0	3462.066650390625	-0.3826086956521739	725.0	-166.0	1.1939393939393939	-545.0	-0.43113772455089827	-268.0	1.0730961972600717	30.0	-0.2644973812608599	4.734516186316373	-111.0	
9.533030032148188	1903.0	-0.8036494976138141	2116.0	1.9909082631766686	1280.0	9.613733905579398	-15680.0	-0.627835683629675	1024.0	3072.0	1.883507050889025	0.0	48549.0	3481.597900390625	-0.3695652173913044	731.0	-166.0	1.1939393939393939	-560.0	-0.4011976047904192	-309.0	2.22135519010608	-19.0	0.365273510715761	5.346607740874605	-185.0	
9.570337091225172	1907.0	-0.7790539199985664	2114.0	1.9433345184592534	1277.0	9.613733905579398	-15680.0	-0.510116492949111	832.0	3136.0	1.9227467811158798	0.0	49189.0	3501.129150390625	-0.3760869565217391	728.0	-173.0	1.1797979797979798	-538.0	-0.4451097804391218	-297.0	0.7049880304841024	-44.0	0.852925638956736	5.179261906767403	-86.0	
9.5569324359272	1904.0	-0.8648547310241439	2121.0	1.978487042109271	1278.0	9.692213366033108	-15808.0	-0.5885959534028203	960.0	3008.0	1.8442673206621703	0.0	49829.0	3520.660400390625	-0.3804347826086957	726.0	-167.0	1.1919191919191918	-542.0	-0.43712574850299407	-295.0	0.708741003920116	-71.0	1.2586787632430125	5.148806126082473	-86.0	
9.581199012600658	1906.0	-0.9014410367546168	2124.0	1.9542674592765321	1276.0	9.574494175352545	-15616.0	-0.7847946045370937	1280.0	3008.0	1.8442673206621703	0.0	50469.0	3540.191650390625	-0.3760869565217391	728.0	-164.0	1.197979797979798	-554.0	-0.4131736526946108	-318.0	1.7447679618504257	-105.0	1.6823240189700823	5.4882557424347285	-153.0	
9.557180255009136	1907.0	-0.8763296723662849	2122.0	1.942230192573416	1278.0	9.574494175352545	-15616.0	-0.745554874310239	1216.0	3136.0	1.9227467811158798	0.0	51109.0	3559.722900390625	-0.3695652173913044	731.0	-176.0	1.1737373737373737	-538.0	-0.4451097804391218	-326.0	1.8381068150011382	-106.0	1.6859532183868275	5.608995357705503	-159.0	
9.581925199610005	1907.0	-0.8402513700540265	2119.0	1.9428384250425472	1276.0	9.652973635806253	-15744.0	-0.6670754138565297	1088.0	3008.0	1.8442673206621703	0.0	51749.0	3579.254150390625	-0.3760869565217391	728.0	-170.0	1.185858585858586	-535.0	-0.4510978043912176	-324.0	1.7333024406150244	-125.0	1.9793219040965164	5.579625150498793	-152.0	
9.607275659848591	1908.0	-0.7551736473814221	2112.0	1.9318945141005748	1274.0	9.731453096259962	-15872.0	-0.627835683629675	1024.0	2944.0	1.8050275904353157	0.0	52389.0	3598.785400390625	-0.3673913043478261	732.0	-171.0	1.183838383838384	-549.0	-0.42315369261477054	-242.0	3.088727979801641	-141.0	2.1747502780980783	4.318922606133542	-241.0	
9.533413634058663	1913.0	-0.8865968720018478	2123.0	1.8696006977410495	1280.0	9.613733905579398	-15680.0	-0.6670754138565297	1088.0	2880.0	1.765787860208461	0.0	53029.0	3618.316650390625	-0.3782608695652174	727.0	-174.0	1.1777777777777778	-545.0	-0.43113772455089827	-170.0	3.3768172042283986	-189.0	2.9181417293568424	3.2209846796687427	-260.0	
9.556225677933876	1912.0	-1.0336106997926247	2135.0	1.8804068726729783	1278.0	9.574494175352545	-15616.0	-0.7847946045370937	1280.0	2880.0	1.765787860208461	0.0	53669.0	3637.847900390625	-0.3717391304347826	730.0	-178.0	1.1696969696969697	-520.0	-0.48103792415169666	-240.0	2.4961361716086636	-180.0	2.8019190441632436	4.2944302732649025	-202.0	
9.52014044403011	1915.0	-1.0199664933915642	2134.0	1.8440378840846983	1281.0	9.574494175352545	-15616.0	-0.7847946045370937	1280.0	2816.0	1.7265481299816063	0.0	54309.0	3657.379150390625	-0.3652173913043478	733.0	-175.0	1.1757575757575758	-531.0	-0.4590818363273454	-366.0	3.2090272321151416	-209.0	3.110430442652208	6.2036511725457695	-247.0	
9.569992347346744	1915.0	-0.9112391497463137	2125.0	1.845623676554317	1277.0	9.652973635806253	-15744.0	-0.7063151440833844	1152.0	2944.0	1.8050275904353157	0.0	54949.0	3676.910400390625	-0.3673913043478261	732.0	-174.0	1.1777777777777778	-532.0	-0.45708582834331346	-444.0	1.6552851736968959	-204.0	3.0961558996945984	7.405500380202194	-145.0	
9.642533464387402	1913.0	-0.9497640688912079	2128.0	1.8700602240754431	1271.0	9.731453096259962	-15872.0	-0.8240343347639485	1344.0	2944.0	1.8050275904353157	0.0	55589.0	3696.441650390625	-0.3717391304347826	730.0	-169.0	1.187878787878788	-539.0	-0.44311377245508987	-401.0	0.8928555503209817	-173.0	2.7106130811071485	6.759132280998692	-96.0	
9.642533464387402	1913.0	-0.9497640688912079	2128.0	1.8700602240754431	1271.0	9.652973635806253	-15744.0	-0.8240343347639485	1344.0	2944.0	1.8050275904353157	0.0	56229.0	3715.972900390625	-0.3630434782608696	734.0	-170.0	1.185858585858586	-549.0	-0.42315369261477054	-335.0	0.5767866060283361	-175.0	2.802748578380921	5.758490689072796	-76.0	
9.618514706795878	1914.0	-0.9246527045028761	2126.0	1.858022957372327	1273.0	9.692213366033108	-15808.0	-0.7063151440833844	1152.0	2752.0	1.6873083997547516	0.0	56869.0	3735.504150390625	-0.3652173913043478	733.0	-175.0	1.1757575757575758	-538.0	-0.4451097804391218	-318.0	1.294545566331835	-171.0	2.703164745074488	5.492757966389915	-123.0	
9.606568901855269	1916.0	-0.923929616149903	2126.0	1.833814344664282	1274.0	9.652973635806253	-15744.0	-0.745554874310239	1216.0	2752.0	1.6873083997547516	0.0	57509.0	3755.035400390625	-0.3673913043478261	732.0	-166.0	1.1939393939393939	-534.0	-0.45309381237524954	-313.0	1.4453882987173297	-159.0	2.5157978710180036	5.415203911689633	-133.0	
9.631425882709536	1912.0	-0.827853822133893	2118.0	1.8832164434973222	1272.0	9.770692826486817	-15936.0	-0.745554874310239	1216.0	2816.0	1.7265481299816063	0.0	58149.0	3774.566650390625	-0.3565217391304348	737.0	-171.0	1.183838383838384	-549.0	-0.42315369261477054	-352.0	0.6189858756150174	-133.0	2.1597841464732053	6.016623829456778	-79.0	
9.643134662466	1912.0	-0.8768610258491086	2122.0	1.8828434592577348	1271.0	9.731453096259962	-15872.0	-0.7063151440833844	1152.0	2944.0	1.8050275904353157	0.0	58789.0	3794.097900390625	-0.3630434782608696	734.0	-181.0	1.1636363636363636	-522.0	-0.4770459081836328	-364.0	0.7781511889653996	-160.0	2.5462034616352818	6.197541682026697	-89.0	
9.703736450904723	1915.0	-0.9505182906636599	2128.0	1.8465683261807233	1266.0	9.692213366033108	-15808.0	-0.7063151440833844	1152.0	2880.0	1.765787860208461	0.0	59429.0	3813.629150390625	-0.3673913043478261	732.0	-165.0	1.195959595959596	-540.0	-0.44111776447105794	-347.0	0.1312180133937644	-158.0	2.57158720848201	5.945455880702565	-47.0	
9.703977793647985	1915.0	-0.9261377979831709	2126.0	1.8468145445349609	1266.0	9.809932556713672	-16000.0	-0.745554874310239	1216.0	2816.0	1.7265481299816063	0.0	60069.0	3833.160400390625	-0.3630434782608696	734.0	-166.0	1.1939393939393939	-538.0	-0.4451097804391218	-357.0	0.406795199523488	-145.0	2.35142083741163	6.094791363594118	-65.0	
9.680200378799723	1916.0	-0.8766459409143501	2122.0	1.835023496186082	1268.0	9.770692826486817	-15936.0	-0.627835683629675	1024.0	2944.0	1.8050275904353157	0.0	60709.0	3852.691650390625	-0.358695652173913	736.0	-174.0	1.1777777777777778	-526.0	-0.46906187624750506	-358.0	1.1891273732503813	-145.0	2.2963621531012266	6.102177167332135	-116.0	
9.704699663098214	1914.0	-0.8410445086008271	2119.0	1.859720888894371	1266.0	9.849172286940528	-16064.0	-0.6670754138565297	1088.0	2880.0	1.765787860208461	0.0	61349.0	3872.222900390625	-0.3630434782608696	734.0	-166.0	1.1939393939393939	-534.0	-0.45309381237524954	-368.0	0.5285491946947902	-128.0	2.081382180420441	6.260874203870543	-73.0	
9.68007970742809	1916.0	-0.8888361872545947	2123.0	1.8349003870089633	1268.0	9.770692826486817	-15936.0	-0.6670754138565297	1088.0	2688.0	1.648068669527897	0.0	61989.0	3891.754150390625	-0.35	740.0	-169.0	1.187878787878788	-539.0	-0.44311377245508987	-370.0	0.876947674400194	-97.0	1.591149300003018	6.28780847002406	-96.0	
9.69191563489486	1919.0	-0.9615085786521957	2129.0	1.798147444056402	1267.0	9.849172286940528	-16064.0	-0.8240343347639485	1344.0	2816.0	1.7265481299816063	0.0	62629.0	3911.285400390625	-0.3630434782608696	734.0	-176.0	1.1737373737373737	-521.0	-0.4790419161676647	-382.0	0.5973894226999442	-62.0	1.0785685429088108	6.473113558244484	-78.0	
9.667653375780516	1919.0	-0.9488258956034763	2128.0	1.7980316482957457	1269.0	9.770692826486817	-15936.0	-0.7847946045370937	1280.0	2816.0	1.7265481299816063	0.0	63269.0	3930.816650390625	-0.36086956521739133	735.0	-167.0	1.1919191919191918	-546.0	-0.42914171656686634	-418.0	0.2617822921972773	-39.0	0.7351980723004892	7.0239981466597765	-56.0	
9.66777188837259	1918.0	-0.924683837922355	2126.0	1.810322446769562	1269.0	9.770692826486817	-15936.0	-0.6670754138565297	1088.0	2816.0	1.7265481299816063	0.0	63909.0	3950.347900390625	-0.36086956521739133	735.0	-176.0	1.1737373737373737	-528.0	-0.4650698602794412	-415.0	0.11791873591930503	-3.0	0.20730593594193647	6.9798094057967015	-47.0	
9.691676450931157	1920.0	-0.9978408826735615	2132.0	1.7857335364054672	1267.0	9.770692826486817	-15936.0	-0.7847946045370937	1280.0	2752.0	1.6873083997547516	0.0	64549.0	3969.879150390625	-0.35434782608695653	738.0	-174.0	1.1777777777777778	-544.0	-0.4331337325349302	-340.0	0.1517893867411141	5.0	0.13063588508558666	5.838786288642096	-50.0	
9.6307148071571	1918.0	-0.9727061682206205	2130.0	1.8094716526544246	1272.0	9.731453096259962	-15872.0	-0.745554874310239	1216.0	2752.0	1.6873083997547516	0.0	65189.0	3989.410400390625	-0.3630434782608696	734.0	-167.0	1.1919191919191918	-535.0	-0.4510978043912176	-367.0	1.1372955558612865	5.0	0.04561880020151465	6.2395776147835935	-114.0	
9.643143297584233	1916.0	-0.9246682712126155	2126.0	1.8341727020709446	1271.0	9.731453096259962	-15872.0	-0.7847946045370937	1280.0	2816.0	1.7265481299816063	0.0	293.0	4008.941650390625	-0.35434782608695653	738.0	-174.0	1.1777777777777778	-519.0	-0.4830339321357286	-366.0	1.5843191489282227	-11.0	0.2549943831130823	6.219898253377639	-143.0	
9.643386799107054	1917.0	-0.9122395898730031	2125.0	1.8222512311284844	1271.0	9.731453096259962	-15872.0	-0.7063151440833844	1152.0	2880.0	1.765787860208461	0.0	933.0	4028.472900390625	-0.35	740.0	-171.0	1.183838383838384	-523.0	-0.47504990019960086	-314.0	0.8104827190737387	-15.0	0.4004583946120513	5.436762092961354	-93.0	
9.632173657514464	1923.0	-0.88618226884207	2123.0	1.750110516296362	1272.0	9.692213366033108	-15808.0	-0.7063151440833844	1152.0	2688.0	1.648068669527897	0.0	1573.0	4048.004150390625	-0.35434782608695653	738.0	-166.0	1.1939393939393939	-531.0	-0.4590818363273454	-243.0	1.6980587324458511	-71.0	1.2214572303262146	4.348038424082386	-151.0	
9.656560905559557	1925.0	-0.9105783282322983	2125.0	1.726014042640742	1270.0	9.731453096259962	-15872.0	-0.745554874310239	1216.0	2688.0	1.648068669527897	0.0	2213.0	4067.535400390625	-0.35	740.0	-171.0	1.183838383838384	-542.0	-0.43712574850299407	-264.0	1.395131763849953	-76.0	1.304727800681879	4.670459328749334	-131.0	
9.668750212022989	1924.0	-0.8988727352456592	2124.0	1.738301184406327	1269.0	9.770692826486817	-15936.0	-0.6670754138565297	1088.0	2688.0	1.648068669527897	0.0	2853.0	4087.066650390625	-0.3521739130434783	739.0	-176.0	1.1737373737373737	-528.0	-0.4650698602794412	-275.0	1.5179343995657506	-66.0	1.1395636845456747	4.836531682620312	-139.0	
9.68118302000924	1924.0	-0.8747384609194078	2122.0	1.738666855229452	1268.0	9.731453096259962	-15872.0	-0.627835683629675	1024.0	2688.0	1.648068669527897	0.0	3493.0	4106.597900390625	-0.35434782608695653	738.0	-170.0	1.185858585858586	-543.0	-0.43512974051896214	-261.0	1.7751226217464096	-56.0	0.9802554570668012	4.621032043744513	-156.0	
9.718242260004287	1925.0	-0.838667941962019	2119.0	1.727349960047892	1265.0	9.849172286940528	-16064.0	-0.627835683629675	1024.0	2688.0	1.648068669527897	0.0	4133.0	4126.129150390625	-0.3521739130434783	739.0	-172.0	1.1818181818181819	-543.0	-0.43512974051896214	-256.0	1.7106483279924989	-40.0	0.7479046330371155	4.545631159305627	-152.0	
9.705440961564468	1922.0	-0.8635175212863739	2121.0	1.7631180295835034	1266.0	9.731453096259962	-15872.0	-0.7063151440833844	1152.0	2688.0	1.648068669527897	0.0	4773.0	4145.660400390625	-0.3456521739130435	742.0	-175.0	1.1757575757575758	-545.0	-0.43113772455089827	-228.0	2.3469716308055326	-15.0	0.3458381579904994	4.113412412969511	-194.0	
9.607549384285226	1923.0	-0.9100703248140839	2125.0	1.7496253930043495	1274.0	9.731453096259962	-15872.0	-0.7063151440833844	1152.0	2560.0	1.5695892090741874	0.0	5413.0	4165.191650390625	-0.35434782608695653	738.0	-164.0	1.197979797979798	-535.0	-0.4510978043912176	-257.0	3.702355303032519	-25.0	0.3837859063334296	4.540923215030512	-282.0	
9.595357919042238	1923.0	-0.9098241064598465	2125.0	1.749505940535462	1275.0	9.692213366033108	-15808.0	-0.7063151440833844	1152.0	2752.0	1.6873083997547516	0.0	6053.0	4184.722900390625	-0.35	740.0	-166.0	1.1939393939393939	-533.0	-0.45508982035928147	-269.0	1.3614421045699097	-51.0	0.9292181821695646	4.7468418527185605	-129.0	
9.668631699430914	1925.0	-0.9230147929267805	2126.0	1.7260103859325107	1269.0	9.652973635806253	-15744.0	-0.745554874310239	1216.0	2560.0	1.5695892090741874	0.0	6693.0	4204.254150390625	-0.341304347826087	744.0	-171.0	1.183838383838384	-531.0	-0.4590818363273454	-286.0	0.2879363521152947	-35.0	0.753711917247197	5.016132043322954	-59.0	
9.693128824949849	1922.0	-0.8754615492723808	2122.0	1.7628754679374972	1267.0	9.770692826486817	-15936.0	-0.745554874310239	1216.0	2688.0	1.648068669527897	0.0	7333.0	4223.785400390625	-0.35	740.0	-166.0	1.1939393939393939	-531.0	-0.4590818363273454	-256.0	1.3407629962514402	-28.0	0.593738607148782	4.549330012623038	-128.0	
9.619490871666718	1919.0	-0.8868897904853037	2123.0	1.7981693843057895	1273.0	9.652973635806253	-15744.0	-0.6670754138565297	1088.0	2688.0	1.648068669527897	0.0	7973.0	4243.316650390625	-0.34347826086956523	743.0	-169.0	1.187878787878788	-541.0	-0.439121756487026	-219.0	1.6870670474435443	-21.0	0.487197824652352	3.9831293295255645	-151.0	
9.582319595418273	1922.0	-0.9829578011464437	2131.0	1.7606924131234407	1276.0	9.652973635806253	-15744.0	-0.6670754138565297	1088.0	2752.0	1.6873083997547516	0.0	8613.0	4262.847900390625	-0.34347826086956523	743.0	-173.0	1.1797979797979798	-525.0	-0.471057884231537	-218.0	0.6587438757242287	-17.0	0.49940746743052405	3.978203435767473	-84.0	
9.606334035450681	1919.0	-0.9841655428530222	2131.0	1.7970650584199521	1274.0	9.652973635806253	-15744.0	-0.8240343347639485	1344.0	2752.0	1.6873083997547516	0.0	9253.0	4282.379150390625	-0.34347826086956523	743.0	-167.0	1.1919191919191918	-541.0	-0.439121756487026	-255.0	1.3781821430647647	-74.0	1.2813977719633791	4.5337466956796195	-130.0	
9.631197492643624	1918.0	-0.9239451828596424	2126.0	1.8099640893628994	1272.0	9.692213366033108	-15808.0	-0.745554874310239	1216.0	2752.0	1.6873083997547516	0.0	9893.0	4301.910400390625	-0.35	740.0	-172.0	1.1818181818181819	-530.0	-0.4610778443113773	-212.0	1.8222242158173427	-111.0	1.8313747781979495	3.875313879514831	-159.0	
9.791143232380279	1922.0	-0.8286703107453028	2118.0	1.7643235243970723	1259.0	9.888412017167381	-16128.0	-0.6670754138565297	1088.0	2752.0	1.6873083997547516	0.0	10533.0	4321.441650390625	-0.34347826086956523	743.0	-171.0	1.183838383838384	-531.0	-0.4590818363273454	-138.0	1.445587671315993	-126.0	2.1274952493239767	2.7536049597887415	-135.0	
9.766874496927258	1919.0	-0.7801321936739533	2114.0	1.8007107965265083	1261.0	9.888412017167381	-16128.0	-0.510116492949111	832.0	2816.0	1.7265481299816063	0.0	11173.0	4340.972900390625	-0.3521739130434783	739.0	-176.0	1.1737373737373737	-511.0	-0.4990019960079841	-70.0	1.632501169598893	-109.0	1.9009823274181217	1.7175152924865205	-148.0	
9.71727257147212	1923.0	-0.9122862900022215	2125.0	1.750700465224337	1265.0	9.849172286940528	-16064.0	-0.6670754138565297	1088.0	2624.0	1.6088289393010422	0.0	11813.0	4360.504150390625	-0.3391304347826087	745.0	-165.0	1.195959595959596	-537.0	-0.44710578842315374	-102.0	1.9679919323293287	-65.0	1.1984943248061772	2.200852400068342	-170.0	
9.742011039734315	1920.0	-0.840352553667333	2119.0	1.787811765583561	1263.0	9.849172286940528	-16064.0	-0.6670754138565297	1088.0	2688.0	1.648068669527897	0.0	12453.0	4380.035400390625	-0.3456521739130435	742.0	-171.0	1.183838383838384	-520.0	-0.48103792415169666	-172.0	2.312621910117512	-45.0	0.8320724520588025	3.2620448835604225	-192.0	
9.743338424822259	1920.0	-0.7062598439246434	2108.0	1.7891659665318673	1263.0	9.809932556713672	-16000.0	-0.5493562231759657	896.0	2624.0	1.6088289393010422	0.0	13093.0	4399.566650390625	-0.35	740.0	-166.0	1.1939393939393939	-527.0	-0.4670658682634731	-188.0	1.925838905455284	-7.0	0.2795435664503255	3.5092587212116073	-167.0	
9.718714151593021	1920.0	-0.7301478998966573	2110.0	1.7886808432398547	1265.0	9.731453096259962	-15872.0	-0.510116492949111	832.0	2752.0	1.6873083997547516	0.0	13733.0	4419.097900390625	-0.33695652173913043	746.0	-166.0	1.1939393939393939	-543.0	-0.43512974051896214	-179.0	1.7054637112395714	22.0	-0.13442564355681041	3.3745803438761977	-153.0	
9.584123189654067	1919.0	-0.764248672020146	2113.0	1.7990421186703145	1276.0	9.652973635806253	-15744.0	-0.510116492949111	832.0	2752.0	1.6873083997547516	0.0	14373.0	4438.629150390625	-0.3391304347826087	745.0	-174.0	1.1777777777777778	-523.0	-0.47504990019960086	-180.0	2.1182101648095477	32.0	-0.3136861992255516	3.385662004815783	-180.0	
9.535844331727755	1921.0	-0.7384064359239713	2111.0	1.7747213669098445	1280.0	9.574494175352545	-15616.0	-0.745554874310239	1216.0	2624.0	1.6088289393010422	0.0	15013.0	4458.160400390625	-0.3347826086956522	747.0	-166.0	1.1939393939393939	-541.0	-0.439121756487026	-203.0	2.80193586380637	-5.0	0.17945673536766693	3.7286346337573737	-224.0	
9.426127620879535	1924.0	-0.7720459047584639	2114.0	1.7371432267997644	1289.0	9.53525444512569	-15552.0	-0.5493562231759657	896.0	2688.0	1.648068669527897	0.0	15653.0	4477.691650390625	-0.33043478260869563	749.0	-169.0	1.187878787878788	-535.0	-0.4510978043912176	-249.0	1.8150385138564988	-27.0	0.5499950825084237	4.4381233791199906	-159.0	
9.511944086728302	1921.0	-0.6891530138545183	2107.0	1.7749748986805447	1282.0	9.574494175352545	-15616.0	-0.47087676272225626	768.0	2816.0	1.7265481299816063	0.0	16293.0	4497.222900390625	-0.3347826086956522	747.0	-171.0	1.183838383838384	-527.0	-0.4670658682634731	-293.0	1.135038516863118	-52.0	0.9453676151658097	5.114124900002472	-114.0	
9.512310418402313	1923.0	-0.6764858975155381	2106.0	1.751008847618506	1282.0	9.613733905579398	-15680.0	-0.4316370324954016	704.0	2688.0	1.648068669527897	0.0	16933.0	4516.754150390625	-0.33043478260869563	749.0	-167.0	1.1919191919191918	-531.0	-0.4590818363273454	-291.0	1.6654922145229047	-114.0	1.839200000230519	5.078402112075303	-148.0	
9.500131905836676	1929.0	-0.7479505472065611	2112.0	1.677883259369433	1283.0	9.613733905579398	-15680.0	-0.47087676272225626	768.0	2560.0	1.5695892090741874	0.0	17573.0	4536.285400390625	-0.34347826086956523	743.0	-168.0	1.1898989898989898	-520.0	-0.48103792415169666	-285.0	1.8898210740892887	-184.0	2.876712164087583	4.9849040706279295	-162.0	
9.56085220686747	1931.0	-0.7974657543399911	2116.0	1.6538989247662383	1278.0	9.613733905579398	-15680.0	-0.6670754138565297	1088.0	2496.0	1.5303494788473329	0.0	18213.0	4555.816650390625	-0.33695652173913043	746.0	-170.0	1.185858585858586	-519.0	-0.4830339321357286	-311.0	1.1736747486444694	-190.0	3.0006934803330014	5.387502796239792	-115.0	
9.755911333196165	1929.0	-0.7775016253260378	2114.0	1.6801455428618333	1262.0	9.888412017167381	-16128.0	-0.627835683629675	1024.0	2496.0	1.5303494788473329	0.0	18853.0	4575.347900390625	-0.3347826086956522	747.0	-164.0	1.197979797979798	-526.0	-0.46906187624750506	-376.0	0.8161186728244196	-197.0	3.090983183211217	6.3796715128915285	-91.0	
9.708128113433729	1937.0	-0.7746092719141455	2114.0	1.5833110920296531	1266.0	9.809932556713672	-16000.0	-0.510116492949111	832.0	2368.0	1.4518700183936235	0.0	19493.0	4594.879150390625	-0.3282608695652174	750.0	-170.0	1.185858585858586	-535.0	-0.4510978043912176	-389.0	1.3878806339527072	-213.0	3.2831598654395546	6.571672524458953	-128.0	
9.780177909869627	1931.0	-0.8140879310565108	2117.0	1.6559259600290945	1260.0	9.888412017167381	-16128.0	-0.627835683629675	1024.0	2432.0	1.491109748620478	0.0	20133.0	4614.410400390625	-0.3347826086956522	747.0	-173.0	1.1797979797979798	-525.0	-0.471057884231537	-411.0	0.1730267091483465	-170.0	2.7096520070182724	6.91842182416327	-49.0	
9.853331018886673	1933.0	-0.8394688638636894	2119.0	1.6323072962490246	1254.0	9.966891477621092	-16256.0	-0.6670754138565297	1088.0	2432.0	1.491109748620478	0.0	20773.0	4633.941650390625	-0.3391304347826087	745.0	-169.0	1.187878787878788	-534.0	-0.45309381237524954	-406.0	0.9178173304896994	-130.0	2.0611562549429334	6.83492829057343	-98.0	
9.767870090814124	1933.0	-0.8499355817242713	2120.0	1.6313480197896932	1261.0	9.888412017167381	-16128.0	-0.6670754138565297	1088.0	2560.0	1.5695892090741874	0.0	21413.0	4653.472900390625	-0.32173913043478264	753.0	-168.0	1.1898989898989898	-538.0	-0.4451097804391218	-440.0	1.9020976530534508	-115.0	1.7470783776242194	7.342195753507489	-162.0	
9.767268892735526	1934.0	-0.9228386247663706	2126.0	1.6185647846074018	1261.0	9.849172286940528	-16064.0	-0.7847946045370937	1280.0	2368.0	1.4518700183936235	0.0	22053.0	4673.004150390625	-0.33260869565217394	748.0	-173.0	1.1797979797979798	-524.0	-0.4730538922155689	-429.0	1.9453053582719755	-107.0	1.6308231065651282	7.174463296227167	-165.0	
9.730683703108772	1929.0	-0.8623409129992744	2121.0	1.679044873684227	1264.0	9.849172286940528	-16064.0	-0.7063151440833844	1152.0	2496.0	1.5303494788473329	0.0	22693.0	4692.535400390625	-0.33043478260869563	749.0	-169.0	1.187878787878788	-524.0	-0.4730538922155689	-434.0	1.1727438702622395	-64.0	1.0368738998661335	7.2582345384836895	-115.0	
9.791158343837186	1929.0	-0.9123329901314399	2125.0	1.6791496993201895	1259.0	9.888412017167381	-16128.0	-0.7063151440833844	1152.0	2624.0	1.6088289393010422	0.0	23333.0	4712.066650390625	-0.3282608695652174	750.0	-173.0	1.1797979797979798	-534.0	-0.45309381237524954	-380.0	1.7045065480921608	-83.0	1.3175724997301796	6.431624136039991	-150.0	
9.742635984388054	1930.0	-0.8989194353748776	2124.0	1.6667504185021795	1263.0	9.849172286940528	-16064.0	-0.627835683629675	1024.0	2496.0	1.5303494788473329	0.0	23973.0	4731.597900390625	-0.3239130434782609	752.0	-172.0	1.1818181818181819	-517.0	-0.48702594810379246	-336.0	2.729560330864343	-109.0	1.662801914737012	5.752172077299722	-217.0	
9.743243658805326	1932.0	-0.8618718263554086	2121.0	1.6430305857943783	1263.0	9.770692826486817	-15936.0	-0.7063151440833844	1152.0	2496.0	1.5303494788473329	0.0	24613.0	4751.129150390625	-0.33260869565217394	748.0	-166.0	1.1939393939393939	-522.0	-0.4770459081836328	-311.0	3.399242366836302	-99.0	1.4814761330273896	5.365247120057873	-261.0	
9.743237182466652	1929.0	-0.8260163923327783	2118.0	1.679533653684471	1263.0	9.849172286940528	-16064.0	-0.627835683629675	1024.0	2496.0	1.5303494788473329	0.0	25253.0	4770.660400390625	-0.3173913043478261	755.0	-167.0	1.1919191919191918	-531.0	-0.4590818363273454	-284.0	2.8431718036583735	-99.0	1.5366044997378814	4.960161437856953	-225.0	
9.767626589291304	1932.0	-0.8623642630638836	2121.0	1.6432694907321532	1261.0	9.809932556713672	-16000.0	-0.6670754138565297	1088.0	2496.0	1.5303494788473329	0.0	25893.0	4790.191650390625	-0.3173913043478261	755.0	-172.0	1.1818181818181819	-524.0	-0.4730538922155689	-275.0	2.10238772848586	-77.0	1.2638032740822205	4.83068714933111	-177.0	
9.68228201503127	1930.0	-0.8367371119024676	2119.0	1.6667687020433357	1268.0	9.731453096259962	-15872.0	-0.6670754138565297	1088.0	2368.0	1.4518700183936235	0.0	26533.0	4809.722900390625	-0.31521739130434784	756.0	-166.0	1.1939393939393939	-529.0	-0.46307385229540926	-227.0	2.4424429938993346	-39.0	0.6996218060932046	4.097248573863288	-200.0	
9.634367329999408	1933.0	-0.7862759481264361	2115.0	1.6306495885175243	1272.0	9.770692826486817	-15936.0	-0.5885959534028203	960.0	2368.0	1.4518700183936235	0.0	27173.0	4829.254150390625	-0.31521739130434784	756.0	-170.0	1.185858585858586	-526.0	-0.46906187624750506	-162.0	3.0748663700599748	-24.0	0.47026130912627645	3.1023311842081456	-242.0	
9.706664945517247	1930.0	-0.8372295486109426	2119.0	1.6670076069811108	1266.0	9.731453096259962	-15872.0	-0.627835683629675	1024.0	2432.0	1.491109748620478	0.0	27813.0	4848.785400390625	-0.31521739130434784	756.0	-172.0	1.1818181818181819	-516.0	-0.4890219560878244	-155.0	4.591757319083484	-21.0	0.32396674296294214	2.980698396390914	-341.0	
9.597672262898813	1933.0	-0.797727539403968	2116.0	1.6301681219337434	1275.0	9.652973635806253	-15744.0	-0.5493562231759657	896.0	2496.0	1.5303494788473329	0.0	28453.0	4868.316650390625	-0.3282608695652174	750.0	-165.0	1.195959595959596	-521.0	-0.4790419161676647	-206.0	5.4033125073354356	-65.0	0.8961260508085659	3.7482482437479385	-393.0	
9.526090040492532	1932.0	-0.6258252155144877	2102.0	1.6432195157196594	1281.0	9.574494175352545	-15616.0	-0.5885959534028203	960.0	2432.0	1.491109748620478	0.0	29093.0	4887.847900390625	-0.30869565217391304	759.0	-172.0	1.1818181818181819	-524.0	-0.4730538922155689	-221.0	4.153560653584639	-103.0	1.5436984469732358	3.988882644414724	-311.0	
9.477078519218201	1930.0	-0.6253172120962731	2102.0	1.666830866083267	1285.0	9.53525444512569	-15552.0	-0.47087676272225626	768.0	2496.0	1.5303494788473329	0.0	29733.0	4907.379150390625	-0.3173913043478261	755.0	-172.0	1.1818181818181819	-517.0	-0.48702594810379246	-224.0	3.020559427368548	-113.0	1.7706552747421007	4.045840033102741	-237.0	
9.611068283078556	1932.0	-0.6641194830148838	2105.0	1.643686355470516	1274.0	9.731453096259962	-15872.0	-0.4316370324954016	704.0	2432.0	1.491109748620478	0.0	30373.0	4926.910400390625	-0.31521739130434784	756.0	-166.0	1.1939393939393939	-518.0	-0.4850299401197605	-207.0	2.056193526894424	-142.0	2.2828999554339457	3.7969285590276343	-174.0	
9.684473528736655	1939.0	-0.724878979845957	2110.0	1.5594754635611956	1268.0	9.770692826486817	-15936.0	-0.510116492949111	832.0	2368.0	1.4518700183936235	0.0	31013.0	4946.441650390625	-0.3108695652173913	758.0	-164.0	1.197979797979798	-534.0	-0.45309381237524954	-203.0	2.1168080989085936	-141.0	2.2661221375496794	3.735485911406352	-178.0	
9.647787096754293	1943.0	-0.7841378164869957	2115.0	1.510323239790624	1271.0	9.652973635806253	-15744.0	-0.5885959534028203	960.0	2240.0	1.3733905579399142	0.0	31653.0	4965.972900390625	-0.30869565217391304	759.0	-172.0	1.1818181818181819	-528.0	-0.4650698602794412	-240.0	3.30600030987221	-160.0	2.4457024251775823	4.286331631882267	-255.0	
9.599501762489307	1942.0	-0.7224401463681909	2110.0	1.5225055559202467	1275.0	9.770692826486817	-15936.0	-0.5885959534028203	960.0	2304.0	1.4126302881667687	0.0	32293.0	4985.504150390625	-0.30869565217391304	759.0	-179.0	1.1676767676767676	-526.0	-0.46906187624750506	-214.0	4.268437244893594	-160.0	2.394534304994391	3.8812700001746387	-318.0	
9.61133337239696	1943.0	-0.7712089150840387	2114.0	1.5100879915610805	1274.0	9.652973635806253	-15744.0	-0.5493562231759657	896.0	2112.0	1.2949110974862048	0.0	32933.0	5005.035400390625	-0.29782608695652174	764.0	-168.0	1.1898989898989898	-532.0	-0.45708582834331346	-165.0	2.9707346579133147	-145.0	2.2897767347578877	3.1489998777554677	-234.0	
9.599383249897235	1943.0	-0.7465822040493122	2112.0	1.5102147574464306	1275.0	9.770692826486817	-15936.0	-0.510116492949111	832.0	2304.0	1.4126302881667687	0.0	33573.0	5024.566650390625	-0.30434782608695654	761.0	-172.0	1.1818181818181819	-510.0	-0.500998003992016	-116.0	2.964934227769467	-154.0	2.4549228643605923	2.4038107337679326	-234.0	
9.745676515253976	1941.0	-0.7256332016184088	2110.0	1.5359835656664758	1263.0	9.692213366033108	-15808.0	-0.47087676272225626	768.0	2304.0	1.4126302881667687	0.0	34213.0	5044.097900390625	-0.30869565217391304	759.0	-160.0	1.206060606060606	-517.0	-0.48702594810379246	-124.0	2.8453529474539065	-167.0	2.653281350044101	2.5266795503733697	-226.0	
9.709830465313916	1943.0	-0.6756566911959827	2106.0	1.5120284847291308	1266.0	9.888412017167381	-16128.0	-0.4316370324954016	704.0	2304.0	1.4126302881667687	0.0	34853.0	5063.629150390625	-0.3	763.0	-174.0	1.1777777777777778	-506.0	-0.5089820359281437	-128.0	4.521113512560778	-190.0	2.8790425408435136	2.570758446623442	-335.0	
9.600236584616885	1947.0	-0.7090577250311074	2109.0	1.462405764499472	1275.0	9.770692826486817	-15936.0	-0.510116492949111	832.0	2240.0	1.3733905579399142	0.0	35493.0	5083.160400390625	-0.30217391304347824	762.0	-178.0	1.1696969696969697	-514.0	-0.4930139720558883	-185.0	3.3805036342733366	-199.0	3.0586847160218027	3.4490846974975713	-260.0	
9.856968430272076	1941.0	-0.5693759643833679	2097.0	1.538659057189007	1254.0	9.849172286940528	-16064.0	-0.39239730226854685	640.0	2368.0	1.4518700183936235	0.0	36133.0	5102.691650390625	-0.30217391304347824	762.0	-168.0	1.1898989898989898	-530.0	-0.4610778443113773	-218.0	1.6448981594396903	-150.0	2.4247741277846777	3.9683418929303182	-147.0	
9.87013174282679	1944.0	-0.5079556460382795	2092.0	1.5032603151847521	1253.0	9.927651747394236	-16192.0	-0.23543838136112813	384.0	2304.0	1.4126302881667687	0.0	36773.0	5122.222900390625	-0.3	763.0	-171.0	1.183838383838384	-530.0	-0.4610778443113773	-179.0	2.7348756533419953	-195.0	3.047300598616189	3.3642862244551734	-218.0	
9.785754698319366	1943.0	-0.3967583354957841	2083.0	1.515576710616187	1260.0	9.888412017167381	-16128.0	-0.27467811158798283	448.0	2304.0	1.4126302881667687	0.0	37413.0	5141.754150390625	-0.29347826086956524	766.0	-176.0	1.1737373737373737	-526.0	-0.46906187624750506	-163.0	4.353018695230264	-160.0	2.41967405202054	3.104758786431728	-324.0	
9.698964226379312	1942.0	-0.5293659517581789	2094.0	1.5254309225052471	1267.0	9.731453096259962	-15872.0	-0.3531575720416922	576.0	2304.0	1.4126302881667687	0.0	38053.0	5161.285400390625	-0.3065217391304348	760.0	-165.0	1.195959595959596	-518.0	-0.4850299401197605	-159.0	3.64154076819652	-124.0	1.9318962408856006	3.0510370638009245	-278.0	
9.857817447432613	1943.0	-0.5079478626834097	2092.0	1.5151854428354434	1254.0	9.927651747394236	-16192.0	-0.3531575720416922	576.0	2304.0	1.4126302881667687	0.0	38693.0	5180.816650390625	-0.2956521739130435	765.0	-175.0	1.1757575757575758	-501.0	-0.5189620758483035	-206.0	2.0999613121100102	-128.0	2.0705670301281893	3.781281755700193	-177.0	
9.833678018469456	1944.0	-0.4950267446353225	2091.0	1.5030250669552085	1256.0	9.927651747394236	-16192.0	-0.19619865113427343	320.0	2304.0	1.4126302881667687	0.0	39333.0	5200.347900390625	-0.29130434782608694	767.0	-173.0	1.1797979797979798	-510.0	-0.500998003992016	-260.0	2.8143894449211357	-135.0	2.0929386472948006	4.595430250037481	-223.0	
9.797465636855383	1944.0	-0.4577173505518764	2088.0	1.503036037079902	1259.0	9.849172286940528	-16064.0	-0.3139178418148375	512.0	2112.0	1.2949110974862048	0.0	39973.0	5219.879150390625	-0.29347826086956524	766.0	-166.0	1.1939393939393939	-513.0	-0.49500998003992025	-296.0	3.26426432409597	-134.0	2.0247337112716957	5.138460018355999	-252.0	
9.870245937859746	1941.0	-0.4599099656754049	2088.0	1.5398864922519633	1253.0	9.927651747394236	-16192.0	-0.27467811158798283	448.0	2240.0	1.3733905579399142	0.0	40613.0	5239.410400390625	-0.29130434782608694	767.0	-170.0	1.185858585858586	-527.0	-0.4670658682634731	-324.0	1.9287883070657978	-99.0	1.5759109903402684	5.577670291834285	-165.0	
9.98056816434568	1939.0	-0.3772710764805665	2081.0	1.56591248895094	1244.0	10.123850398528509	-16512.0	-0.23543838136112813	384.0	2240.0	1.3733905579399142	0.0	41253.0	5258.941650390625	-0.29347826086956524	766.0	-177.0	1.1717171717171717	-506.0	-0.5089820359281437	-368.0	1.8220062045872185	-60.0	0.9718673176593642	6.247939633771619	-158.0	
9.98105732617088	1942.0	-0.36436552514221865	2080.0	1.5299018577693224	1244.0	10.006131207847945	-16320.0	-0.15695892090741875	256.0	2304.0	1.4126302881667687	0.0	41893.0	5278.472900390625	-0.29130434782608694	767.0	-169.0	1.187878787878788	-523.0	-0.47504990019960086	-386.0	1.62890356823667	18.0	-0.19505860154666602	6.523634918690258	-146.0	
10.016901217331384	1939.0	-0.402390224223768	2083.0	1.5660246280033647	1241.0	10.123850398528509	-16512.0	-0.27467811158798283	448.0	2368.0	1.4518700183936235	0.0	42533.0	5298.004150390625	-0.28695652173913044	769.0	-175.0	1.1757575757575758	-499.0	-0.5229540918163673	-447.0	0.16236317276550657	141.0	-1.974175617201059	7.466056976637365	-51.0	
10.01653704443693	1938.0	-0.4270091519036249	2085.0	1.577822989768706	1241.0	10.084610668301655	-16448.0	-0.19619865113427343	320.0	2368.0	1.4518700183936235	0.0	43173.0	5317.535400390625	-0.29130434782608694	767.0	-167.0	1.1919191919191918	-510.0	-0.500998003992016	-473.0	0.4777466501259013	211.0	-3.0614190600884545	7.858340404221175	-72.0	
9.942172904144456	1934.0	-0.49962705981713795	2091.0	1.6245459403709837	1247.0	10.123850398528509	-16512.0	-0.19619865113427343	320.0	2496.0	1.5303494788473329	0.0	43813.0	5337.066650390625	-0.29347826086956524	766.0	-176.0	1.1737373737373737	-518.0	-0.4850299401197605	-510.0	0.5530883036883613	256.0	-3.7638350135454908	8.420324630271102	-77.0	
9.868063059272593	1936.0	-0.6195753430954224	2101.0	1.5985089735473132	1253.0	10.0453709380748	-16384.0	-0.3531575720416922	576.0	2368.0	1.4518700183936235	0.0	44453.0	5356.597900390625	-0.2782608695652174	773.0	-169.0	1.187878787878788	-518.0	-0.4850299401197605	-540.0	0.9628749320124523	314.0	-4.680172330838493	8.872500528246414	-104.0	
9.868172936746431	1931.0	-0.5476260400507943	2095.0	1.6594705292079197	1253.0	9.888412017167381	-16128.0	-0.39239730226854685	640.0	2560.0	1.5695892090741874	0.0	45093.0	5376.129150390625	-0.2847826086956522	770.0	-171.0	1.183838383838384	-509.0	-0.502994011976048	-560.0	1.7296459419954462	334.0	-5.045556968476057	9.16901532765229	-154.0	
9.831475710866279	1930.0	-0.5471258199874496	2095.0	1.6711567519208361	1256.0	9.927651747394236	-16192.0	-0.3139178418148375	512.0	2560.0	1.5695892090741874	0.0	45733.0	5395.660400390625	-0.2891304347826087	768.0	-165.0	1.195959595959596	-517.0	-0.48702594810379246	-574.0	1.2467472988872088	295.0	-4.4357566870049725	9.386772070737363	-122.0	
9.781513930075805	1935.0	-0.7278024666773282	2110.0	1.6086094037906107	1260.0	9.888412017167381	-16128.0	-0.5493562231759657	896.0	2432.0	1.491109748620478	0.0	46373.0	5415.191650390625	-0.2739130434782609	775.0	-165.0	1.195959595959596	-519.0	-0.4830339321357286	-495.0	2.5167306344145204	238.0	-3.6215139770125937	8.172551324834561	-205.0	
9.658881725754808	1938.0	-0.8343371951990503	2119.0	1.5701731561489307	1270.0	9.731453096259962	-15872.0	-0.745554874310239	1216.0	2368.0	1.4518700183936235	0.0	47013.0	5434.722900390625	-0.27608695652173915	774.0	-171.0	1.183838383838384	-516.0	-0.4890219560878244	-429.0	5.0599325273036095	192.0	-3.068713565089128	7.1433170245368505	-371.0	
9.670834007034093	1939.0	-0.8709157175746535	2122.0	1.557878700966883	1269.0	9.809932556713672	-16000.0	-0.6670754138565297	1088.0	2240.0	1.3733905579399142	0.0	47653.0	5454.254150390625	-0.27608695652173915	774.0	-170.0	1.185858585858586	-507.0	-0.5069860279441119	-415.0	6.07911946532815	132.0	-2.2315816408219202	6.920197398502613	-437.0	
9.58707327206217	1944.0	-0.7704780433761959	2114.0	1.4978045065037267	1276.0	9.613733905579398	-15680.0	-0.6670754138565297	1088.0	2304.0	1.4126302881667687	0.0	48293.0	5473.785400390625	-0.27608695652173915	774.0	-170.0	1.185858585858586	-506.0	-0.5089820359281437	-439.0	5.796611136637801	96.0	-1.6867896866688121	7.28804149319636	-418.0	
9.550988038158408	1947.0	-0.7568338369751354	2113.0	1.4614355179154466	1279.0	9.613733905579398	-15680.0	-0.627835683629675	1024.0	2240.0	1.3733905579399142	0.0	48933.0	5493.316650390625	-0.27608695652173915	774.0	-170.0	1.185858585858586	-513.0	-0.49500998003992025	-381.0	5.23541871456818	100.0	-1.6724155379826087	6.411524139850517	-382.0	
9.57596353160475	1942.0	-0.6366159852780043	2103.0	1.5231284152223032	1277.0	9.652973635806253	-15744.0	-0.5493562231759657	896.0	2304.0	1.4126302881667687	0.0	49573.0	5512.847900390625	-0.26956521739130435	777.0	-175.0	1.1757575757575758	-521.0	-0.4790419161676647	-295.0	4.095781785483919	150.0	-2.29040260348966	5.1149357182668345	-309.0	
9.466007636792824	1946.0	-0.7065877581338627	2109.0	1.473136367461288	1286.0	9.574494175352545	-15616.0	-0.510116492949111	832.0	2176.0	1.3341508277130594	0.0	50213.0	5532.379150390625	-0.26521739130434785	779.0	-162.0	1.202020202020202	-521.0	-0.4790419161676647	-213.0	3.6608815227902167	209.0	-3.094805334786673	3.8721364319203873	-282.0	
9.36798675302372	1943.0	-0.7175235626383103	2110.0	1.5081913788918053	1294.0	9.45677498467198	-15424.0	-0.5493562231759657	896.0	2240.0	1.3733905579399142	0.0	50853.0	5551.910400390625	-0.26521739130434785	779.0	-168.0	1.1898989898989898	-512.0	-0.4970059880239522	-149.0	2.354848526210806	265.0	-3.8045502869030687	2.91181273146793	-198.0	
9.380525120924695	1936.0	-0.5975363625856772	2100.0	1.5938539839689319	1293.0	9.53525444512569	-15552.0	-0.510116492949111	832.0	2432.0	1.491109748620478	0.0	51493.0	5571.441650390625	-0.2717391304347826	776.0	-162.0	1.202020202020202	-519.0	-0.4830339321357286	-143.0	-0.0012744053348243065	323.0	-4.506479158144729	2.8441192079316755	-45.0	
9.332481129402971	1935.0	-0.5114581997863834	2093.0	1.606282518452792	1297.0	9.417535254445125	-15360.0	-0.3531575720416922	576.0	2368.0	1.4518700183936235	0.0	52133.0	5590.972900390625	-0.26521739130434785	779.0	-166.0	1.1939393939393939	-533.0	-0.45508982035928147	-142.0	0.3842514382340065	308.0	-4.307815835616219	2.8250548240207025	-70.0	
9.2098424487433	1935.0	-0.5821374942854753	2099.0	1.6043493387012042	1307.0	9.339055793991415	-15232.0	-0.3531575720416922	576.0	2560.0	1.5695892090741874	0.0	52773.0	5610.504150390625	-0.2673913043478261	778.0	-170.0	1.185858585858586	-514.0	-0.4930139720558883	-133.0	-0.596980820624311	297.0	-4.069129243999192	2.6979850173317184	-6.0	
9.111948712684502	1935.0	-0.6167384864723088	2102.0	1.6030243914187479	1315.0	9.182096873083998	-14976.0	-0.47087676272225626	768.0	2304.0	1.4126302881667687	0.0	53413.0	5630.035400390625	-0.2673913043478261	778.0	-164.0	1.197979797979798	-507.0	-0.5069860279441119	-140.0	-0.9879799537457122	252.0	-3.371511590801355	2.8083588869899287	20.0	
9.027093300249666	1936.0	-0.5782057839725447	2099.0	1.5905129715483128	1322.0	9.142857142857142	-14912.0	-0.4316370324954016	704.0	2432.0	1.491109748620478	0.0	54053.0	5649.566650390625	-0.2608695652173913	781.0	-165.0	1.195959595959596	-534.0	-0.45309381237524954	-140.0	-2.031607810187168	52.0	-0.30037434236784255	2.8187951655543433	90.0	
8.880666410843942	1932.0	-0.5396341646984323	2096.0	1.6376271899313342	1334.0	8.86817903126916	-14464.0	-0.4316370324954016	704.0	2432.0	1.491109748620478	0.0	54693.0	5669.097900390625	-0.26956521739130435	777.0	-164.0	1.197979797979798	-523.0	-0.47504990019960086	-127.0	-3.4429160360228144	-61.0	1.4999143789356975	2.6351896166339928	183.0	
8.759236602680144	1933.0	-0.5003628071359558	2093.0	1.6247574126542366	1344.0	8.907418761496015	-14528.0	-0.3139178418148375	512.0	2496.0	1.5303494788473329	0.0	55333.0	5688.629150390625	-0.27608695652173915	774.0	-162.0	1.202020202020202	-530.0	-0.4610778443113773	-62.0	-3.04740229967357	-205.0	3.670850888851666	1.6426413233769641	158.0	
8.367915953865555	1939.0	-0.6860971512480607	2109.0	1.5466977060984637	1376.0	8.436541998773757	-13760.0	-0.39239730226854685	640.0	2368.0	1.4518700183936235	0.0	55973.0	5708.160400390625	-0.26956521739130435	777.0	-171.0	1.183838383838384	-522.0	-0.4770459081836328	33.0	-2.9437730895826104	-375.0	6.2701586098168285	0.19673811112396297	152.0	
8.465811848703913	1940.0	-0.663447970402104	2107.0	1.5358549640842225	1368.0	8.436541998773757	-13760.0	-0.5493562231759657	896.0	2432.0	1.491109748620478	0.0	56613.0	5727.691650390625	-0.26304347826086955	780.0	-167.0	1.1919191919191918	-521.0	-0.4790419161676647	116.0	-4.731940118115456	-600.0	9.818422674908996	-1.047737633039378	270.0	
8.358271540104171	1945.0	-0.5015666277939489	2094.0	1.4761574105688848	1377.0	8.475781729000612	-13824.0	-0.23543838136112813	384.0	2240.0	1.3733905579399142	0.0	57253.0	5747.222900390625	-0.2782608695652174	773.0	-157.0	1.2121212121212122	-524.0	-0.4730538922155689	230.0	-4.578480433417882	-814.0	13.085491295120296	-2.7831125340688634	261.0	
7.919534003201159	1961.0	-0.6717415021551814	2109.0	1.277297202118893	1413.0	8.004904966278357	-13056.0	-0.39239730226854685	640.0	1984.0	1.2164316370324952	0.0	57893.0	5766.754150390625	-0.2739130434782609	775.0	-168.0	1.1898989898989898	-523.0	-0.47504990019960086	388.0	-2.880756531327891	-1039.0	16.43676472786697	-5.203131598184821	151.0	
7.393075163857974	1992.0	-1.2632749449547922	2159.0	0.8926233033938508	1456.0	7.416309012875536	-12096.0	-0.9809932556713672	1600.0	1408.0	0.8632740649908032	0.0	58533.0	5786.285400390625	-0.28043478260869564	772.0	-169.0	1.187878787878788	-512.0	-0.4970059880239522	402.0	6.632852943487617	-1391.0	21.0604959380263	-5.5111954495869675	-466.0	
