Device	Device	Device	Device	Device	Device	Device	Device	Device	Device	Device	Device	Device	Device	Device	Device	Device	Device	Device	Device	Device	Device	Device	Device	Device	Device	Device	
Low Noise Accelerometer X	Low Noise Accelerometer X	Low Noise Accelerometer Z	Low Noise Accelerometer Z	Low Noise Accelerometer Y	Low Noise Accelerometer Y	Wide Range Accelerometer X	Wide Range Accelerometer X	Wide Range Accelerometer Z	Wide Range Accelerometer Z	Wide Range Accelerometer Y	Wide Range Accelerometer Y	Event_Marker	Timestamp	Timestamp	Magnetometer Z	Magnetometer Z	Magnetometer X	Magnetometer X	Magnetometer Y	Magnetometer Y	Gyroscope Y	Gyroscope Y	Gyroscope Z	Gyroscope Z	Gyroscope X	Gyroscope X	
CAL	UNCAL	UNCAL	CAL	CAL	UNCAL	CAL	UNCAL	CAL	UNCAL	UNCAL	CAL	CAL	UNCAL	CAL	UNCAL	CAL	CAL	UNCAL	CAL	UNCAL	CAL	UNCAL	CAL	UNCAL	UNCAL	CAL	
m/(s^2)	no units	no units	m/(s^2)	m/(s^2)	no units	m/(s^2)	no units	m/(s^2)	no units	no units	m/(s^2)	no units	no units	ms	no units	local_flux	local_flux	no units	local_flux	no units	deg/s	no units	deg/s	no units	no units	deg/s	
9.786646891071063	1965.0	2098.0	-0.5743664606133605	1.2487493103286729	1260.0	9.849172286940528	-16064.0	-0.510116492949111	832.0	1728.0	1.0594727161250765	0.0	31956.0	975.2197265625	730.0	-0.3717391304347826	1.1373737373737374	-194.0	-0.5389221556886228	-491.0	3.5167239850054455	-103.0	1.0451166976765303	-62.0	-271.0	2.2005742050168657	
9.640467820747276	1964.0	2096.0	-0.547269782681389	1.2596066791758391	1272.0	9.849172286940528	-16064.0	-0.39239730226854685	640.0	1920.0	1.1771919068056407	0.0	32596.0	994.7509765625	729.0	-0.3739130434782609	1.1373737373737374	-194.0	-0.5369261477045909	-492.0	2.358626701309772	-35.0	1.3769841423882878	-76.0	-196.0	1.1779346455344308	
9.738234409095773	1961.0	2091.0	-0.48900360281217	1.2973115851712693	1264.0	9.849172286940528	-16064.0	-0.27467811158798283	448.0	1856.0	1.137952176578786	0.0	33236.0	1014.2822265625	732.0	-0.3673913043478261	1.1454545454545455	-190.0	-0.5249500998003993	-498.0	1.28598336422477	39.0	1.1368390401012258	-52.0	-127.0	0.06318579373417815	
9.775308760547727	1969.0	2095.0	-0.5365957632409183	1.2008208649128267	1261.0	9.888412017167381	-16128.0	-0.3531575720416922	576.0	1792.0	1.0987124463519313	0.0	33876.0	1033.8134765625	731.0	-0.3695652173913044	1.1616161616161615	-182.0	-0.48103792415169666	-520.0	1.2804562071866397	43.0	0.6449045666189692	-19.0	-127.0	0.002404563403418774	
9.798726320060654	1969.0	2103.0	-0.6346101706713494	1.2000748964336518	1259.0	9.927651747394236	-16192.0	-0.47087676272225626	768.0	1664.0	1.020232985898222	0.0	34516.0	1053.3447265625	734.0	-0.3630434782608696	1.1575757575757575	-184.0	-0.530938123752495	-495.0	2.996298256251443	-7.0	1.1097563627266522	-60.0	-238.0	0.7457024166770294	
9.775302284209053	1966.0	2092.0	-0.5007403292182881	1.2373239328029193	1261.0	9.849172286940528	-16064.0	-0.4316370324954016	704.0	1792.0	1.0987124463519313	0.0	35156.0	1072.8759765625	736.0	-0.358695652173913	1.1515151515151516	-187.0	-0.5189620758483035	-501.0	3.849611125348106	-73.0	1.0252061995308974	-61.0	-293.0	1.740971569354884	
9.739333404117803	1967.0	2088.0	-0.45100225379522974	1.2254134319851528	1264.0	9.809932556713672	-16000.0	-0.4316370324954016	704.0	1728.0	1.0594727161250765	0.0	35796.0	1092.4072265625	735.0	-0.36086956521739133	1.1575757575757575	-184.0	-0.4970059880239522	-512.0	3.393925134819488	-29.0	0.6339148928644129	-31.0	-264.0	1.0763269083476226	
9.641549545532841	1962.0	2085.0	-0.413653942937435	1.285050040363303	1272.0	9.849172286940528	-16064.0	-0.27467811158798283	448.0	1856.0	1.137952176578786	0.0	36436.0	1111.9384765625	737.0	-0.3565217391304348	1.1353535353535353	-195.0	-0.48103792415169666	-520.0	3.2693716726170248	56.0	0.2145347205096441	1.0	-257.0	-0.21520322242959233	
9.667143507294247	1964.0	2077.0	-0.3161475389252184	1.2621846584788707	1270.0	9.692213366033108	-15808.0	-0.27467811158798283	448.0	1856.0	1.137952176578786	0.0	37076.0	1131.4697265625	738.0	-0.35434782608695653	1.1414141414141414	-192.0	-0.5169660678642716	-502.0	1.90003032355458	217.0	-0.7466351421404703	78.0	-170.0	-2.6501790104598806	
9.740665106764864	1969.0	2079.0	-0.3408131667342936	1.2024322543400643	1264.0	9.809932556713672	-16000.0	-0.19619865113427343	320.0	1856.0	1.137952176578786	0.0	37716.0	1151.0009765625	735.0	-0.36086956521739133	1.1636363636363636	-181.0	-0.5049900199600799	-508.0	-0.519136577744042	311.0	-1.8104301363618445	164.0	-14.0	-4.0556451361237	
9.764446839172239	1970.0	2085.0	-0.4142086464848679	1.189887924095548	1262.0	9.927651747394236	-16192.0	-0.3139178418148375	512.0	1664.0	1.020232985898222	0.0	38356.0	1170.5322265625	738.0	-0.35434782608695653	1.1515151515151516	-187.0	-0.48103792415169666	-520.0	-1.3217895334484315	340.0	-1.8268779275822435	170.0	38.0	-4.488683245349927	
9.739581223199739	1970.0	2089.0	-0.4624771951373709	1.1891565824492978	1264.0	9.849172286940528	-16064.0	-0.39239730226854685	640.0	1664.0	1.020232985898222	0.0	38996.0	1190.0634765625	737.0	-0.3565217391304348	1.1434343434343435	-191.0	-0.5249500998003993	-498.0	-0.9177640633096862	307.0	-1.830096634686899	167.0	12.0	-3.9908223593669034	
9.812846368470183	1968.0	2086.0	-0.42786063624079806	1.2143317850331368	1258.0	9.849172286940528	-16064.0	-0.4316370324954016	704.0	1536.0	0.9417535254445125	0.0	39636.0	1209.5947265625	735.0	-0.36086956521739133	1.1494949494949496	-188.0	-0.48702594810379246	-517.0	1.3866992808002214	336.0	-2.6924848777956627	215.0	-139.0	-4.454931631591273	
9.765651394108994	1969.0	2074.0	-0.2803543717415461	1.203286705163433	1262.0	9.849172286940528	-16064.0	-0.19619865113427343	320.0	1728.0	1.0594727161250765	0.0	40276.0	1229.1259765625	741.0	-0.34782608695652173	1.1616161616161615	-182.0	-0.46906187624750506	-526.0	2.9518677172826475	410.0	-3.131214183271144	240.0	-242.0	-5.5960586011272	
9.789426650177699	1967.0	2077.0	-0.3178944174694902	1.2272454428090094	1260.0	9.770692826486817	-15936.0	-0.03923973022685469	64.0	1664.0	1.020232985898222	0.0	40916.0	1248.6572265625	734.0	-0.3630434782608696	1.1575757575757575	-184.0	-0.5129740518962077	-504.0	0.2616032080893681	472.0	-4.165623457095164	324.0	-68.0	-6.512121735502947	
9.91061079803912	1964.0	2080.0	-0.35764264503070226	1.2642043803252645	1250.0	9.927651747394236	-16192.0	-0.19619865113427343	320.0	1792.0	1.0987124463519313	0.0	41556.0	1268.1884765625	732.0	-0.3673913043478261	1.1676767676767676	-179.0	-0.46906187624750506	-526.0	-1.0337482674945306	409.0	-4.203749013080998	330.0	17.0	-5.540993315804142	
9.860636064571294	1963.0	2089.0	-0.46660842367532057	1.2746631679752243	1254.0	9.966891477621092	-16256.0	-0.23543838136112813	384.0	1856.0	1.137952176578786	0.0	42196.0	1287.7197265625	737.0	-0.3565217391304348	1.1515151515151516	-187.0	-0.4730538922155689	-524.0	-0.46747001955418493	225.0	-2.556000692860633	210.0	-17.0	-2.7481770108310744	
9.76346851552184	1964.0	2087.0	-0.4400197491615636	1.261909186458783	1262.0	9.927651747394236	-16192.0	-0.3139178418148375	512.0	1728.0	1.0594727161250765	0.0	42836.0	1307.2509765625	734.0	-0.3630434782608696	1.1393939393939394	-193.0	-0.49500998003992025	-513.0	1.6305525788472994	1.0	-1.8188065750953673	142.0	-151.0	0.6376868696487894	
9.703222264859336	1958.0	2075.0	-0.29393631130364867	1.3350567149572432	1267.0	9.731453096259962	-15872.0	-0.19619865113427343	320.0	1920.0	1.1771919068056407	0.0	43476.0	1326.7822265625	737.0	-0.3565217391304348	1.1656565656565656	-180.0	-0.4830339321357286	-519.0	2.4616325483109267	-90.0	-1.4372583340119178	109.0	-204.0	2.0134064882051037	
9.727853014427252	1961.0	2076.0	-0.3059036893542648	1.2990387703591633	1265.0	9.809932556713672	-16000.0	-0.15695892090741875	256.0	1920.0	1.1771919068056407	0.0	44116.0	1346.3134765625	734.0	-0.3630434782608696	1.1454545454545455	-190.0	-0.502994011976048	-509.0	2.725259566974938	-115.0	-1.545778418726848	114.0	-221.0	2.390998354900593	
9.715777902996779	1959.0	2073.0	-0.2695636019780294	1.3233778056607894	1266.0	9.849172286940528	-16064.0	-0.15695892090741875	256.0	1856.0	1.137952176578786	0.0	44756.0	1365.8447265625	734.0	-0.3630434782608696	1.1595959595959595	-183.0	-0.5069860279441119	-507.0	1.458668755059804	-131.0	-1.062559937322337	87.0	-138.0	2.6470102706243073	
9.715306011408044	1964.0	2082.0	-0.378083644043391	1.2620469224688269	1266.0	9.927651747394236	-16192.0	-0.19619865113427343	320.0	1792.0	1.0987124463519313	0.0	45396.0	1385.3759765625	737.0	-0.3565217391304348	1.1717171717171717	-177.0	-0.4650698602794412	-528.0	1.590901327041816	-144.0	-0.3150543784250105	36.0	-146.0	2.843406576083194	
9.78905815972413	1964.0	2077.0	-0.31860972246759356	1.2633791831677457	1260.0	9.849172286940528	-16064.0	-0.23543838136112813	384.0	1856.0	1.137952176578786	0.0	46036.0	1404.9072265625	739.0	-0.3521739130434783	1.1555555555555554	-185.0	-0.45708582834331346	-532.0	2.8233003102698078	-194.0	0.9180777387230852	-54.0	-225.0	3.591538860015173	
9.778075566977012	1965.0	2068.0	-0.2084128520517877	1.2523231331733482	1261.0	9.849172286940528	-16064.0	-0.07847946045370938	128.0	1856.0	1.137952176578786	0.0	46676.0	1424.4384765625	734.0	-0.3630434782608696	1.1676767676767676	-179.0	-0.4990019960079841	-511.0	5.019989760205173	-242.0	1.9203944281969854	-133.0	-367.0	4.299609988329507	
9.742113163224438	1969.0	2067.0	-0.1945302106513595	1.2039095644654894	1264.0	9.770692826486817	-15936.0	-0.03923973022685469	64.0	1664.0	1.020232985898222	0.0	47316.0	1443.9697265625	736.0	-0.358695652173913	1.1535353535353536	-186.0	-0.5209580838323354	-500.0	4.919893056188638	-262.0	2.3499764671119596	-162.0	-360.0	4.604793464875376	
9.669453533591707	1972.0	2066.0	-0.18014734918758657	1.167182218470547	1270.0	9.849172286940528	-16064.0	-0.03923973022685469	64.0	1728.0	1.0594727161250765	0.0	47956.0	1463.5009765625	742.0	-0.3456521739130435	1.1636363636363636	-181.0	-0.4670658682634731	-527.0	3.170618030726872	-290.0	1.9599391646636235	-129.0	-246.0	5.048141728437979	
9.742352347188143	1968.0	2064.0	-0.15819790662999378	1.2163234721164244	1264.0	9.809932556713672	-16000.0	0.0	0.0	1792.0	1.0987124463519313	0.0	48596.0	1483.0322265625	737.0	-0.3565217391304348	1.1636363636363636	-181.0	-0.5069860279441119	-507.0	0.27947477535555315	-290.0	1.381552540334919	-77.0	-58.0	5.077053160991692	
9.778073408197454	1964.0	2067.0	-0.19646104071091097	1.2644908224700457	1261.0	9.927651747394236	-16192.0	0.0	0.0	1728.0	1.0594727161250765	0.0	49236.0	1502.5634765625	738.0	-0.35434782608695653	1.1676767676767676	-179.0	-0.48103792415169666	-520.0	-1.8408813043954284	-217.0	0.7189672562302415	-20.0	79.0	3.987990562093384	
9.863301628644974	1968.0	2072.0	-0.258182060894325	1.2165331233883494	1254.0	9.966891477621092	-16256.0	-0.07847946045370938	128.0	1792.0	1.0987124463519313	0.0	49876.0	1522.0947265625	740.0	-0.35	1.1393939393939394	-193.0	-0.49500998003992025	-513.0	-2.2710139914340077	-242.0	0.2989127570771893	9.0	107.0	4.3725200258458985	
9.80211375358456	1973.0	2079.0	-0.34109051850801003	1.154851196206187	1259.0	9.927651747394236	-16192.0	-0.27467811158798283	448.0	1536.0	0.9417535254445125	0.0	50516.0	1541.6259765625	738.0	-0.35434782608695653	1.1575757575757575	-184.0	-0.5069860279441119	-507.0	-1.234829399077383	-263.0	0.7687412827305883	-28.0	40.0	4.681549814903322	
9.74054659417279	1970.0	2081.0	-0.36495522441541484	1.190141455866248	1264.0	9.809932556713672	-16000.0	-0.27467811158798283	448.0	1728.0	1.0594727161250765	0.0	51156.0	1561.1572265625	738.0	-0.35434782608695653	1.1676767676767676	-179.0	-0.46906187624750506	-526.0	-1.7137761676692087	-339.0	0.8308027551203421	-33.0	72.0	5.842232818710913	
9.764694658254177	1973.0	2086.0	-0.42568358782700905	1.153631074559693	1262.0	9.849172286940528	-16064.0	-0.27467811158798283	448.0	1664.0	1.020232985898222	0.0	51796.0	1580.6884765625	741.0	-0.34782608695652173	1.1515151515151516	-187.0	-0.5109780439121757	-505.0	-3.5399378764196077	-342.0	0.8061534775110761	-23.0	191.0	5.9061218122242725	
9.788101423869314	1968.0	2089.0	-0.46393893855305657	1.2137235525640053	1260.0	9.770692826486817	-15936.0	-0.4316370324954016	704.0	1728.0	1.0594727161250765	0.0	52436.0	1600.2197265625	736.0	-0.358695652173913	1.1676767676767676	-179.0	-0.4970059880239522	-512.0	-6.614396567275718	-309.0	0.815324291800149	-8.0	391.0	5.434965258448423	
9.88527544925744	1970.0	2094.0	-0.5263830470894436	1.1899744661903544	1252.0	9.888412017167381	-16128.0	-0.3531575720416922	576.0	1728.0	1.0594727161250765	0.0	53076.0	1619.7509765625	735.0	-0.36086956521739133	1.1555555555555554	-185.0	-0.46906187624750506	-526.0	-9.241693602224188	-278.0	1.0020509772737904	-7.0	562.0	4.989755339064067	
9.981955995261254	1967.0	2098.0	-0.5778290842824252	1.2265713895917156	1244.0	10.123850398528509	-16512.0	-0.4316370324954016	704.0	1664.0	1.020232985898222	0.0	53716.0	1639.2822265625	736.0	-0.358695652173913	1.1515151515151516	-187.0	-0.46906187624750506	-526.0	-8.281622245338962	-244.0	0.8359743914959588	1.0	499.0	4.463044359335519	
9.982789900964882	1962.0	2086.0	-0.43273830319633	1.2882716003150345	1244.0	10.0453709380748	-16384.0	-0.3139178418148375	512.0	1792.0	1.0987124463519313	0.0	54356.0	1658.8134765625	731.0	-0.3695652173913044	1.1595959595959595	-183.0	-0.5069860279441119	-507.0	-1.9919129857442144	-232.0	0.7353460897150719	-21.0	89.0	4.2176377610361495	
9.679214301165604	1964.0	2078.0	-0.32858400361970047	1.2621810017706394	1269.0	9.770692826486817	-15936.0	-0.15695892090741875	256.0	1856.0	1.137952176578786	0.0	54996.0	1678.3447265625	732.0	-0.3673913043478261	1.1636363636363636	-181.0	0.013972055888223554	-768.0	6.555475212363677	-221.0	0.7768250437571773	-63.0	-468.0	3.9648634988269333	
9.606429682602126	1965.0	2076.0	-0.30248776581441855	1.2496659251919733	1275.0	9.731453096259962	-15872.0	-0.15695892090741875	256.0	1728.0	1.0594727161250765	0.0	55636.0	1697.8759765625	741.0	-0.34782608695652173	1.1575757575757575	-184.0	-0.48103792415169666	-520.0	9.217242121302238	-177.0	0.5733566164871775	-60.0	-642.0	3.2690443088250007	
9.643374727564218	1969.0	2077.0	-0.31446292721990443	1.2017228529432018	1272.0	9.770692826486817	-15936.0	-0.15695892090741875	256.0	1728.0	1.0594727161250765	0.0	56276.0	1717.4072265625	738.0	-0.35434782608695653	1.1575757575757575	-184.0	-0.5089820359281437	-506.0	7.556578707035997	-196.0	-0.02726782140302786	-13.0	-534.0	3.5746243269980815	
9.618157891374615	1974.0	2089.0	-0.45906127159752463	1.1397837372821078	1274.0	9.692213366033108	-15808.0	-0.3531575720416922	576.0	1536.0	0.9417535254445125	0.0	56916.0	1736.9384765625	742.0	-0.3456521739130435	1.1494949494949496	-188.0	-0.532934131736527	-494.0	5.719598862552658	-293.0	0.5063421851208101	-44.0	-413.0	5.068279296545577	
9.569872557109628	1973.0	2084.0	-0.39736360147871974	1.1519660534117304	1278.0	9.652973635806253	-15744.0	-0.19619865113427343	320.0	1728.0	1.0594727161250765	0.0	57556.0	1756.4697265625	741.0	-0.34782608695652173	1.1595959595959595	-183.0	-0.4890219560878244	-516.0	4.388411941534564	-574.0	-0.2915979554285808	4.0	-324.0	9.35535542431089	
9.496835801905098	1969.0	2079.0	-0.3358887996495433	1.2000432049623142	1284.0	9.53525444512569	-15552.0	-0.23543838136112813	384.0	1600.0	0.9809932556713672	0.0	58196.0	1776.0009765625	740.0	-0.35	1.1656565656565656	-180.0	-0.4990019960079841	-511.0	3.208466755673854	-624.0	-0.869577178864535	46.0	-247.0	10.127611149933758	
9.508546740441117	1970.0	2084.0	-0.39684781470563557	1.187502531426029	1283.0	9.574494175352545	-15616.0	-0.27467811158798283	448.0	1664.0	1.020232985898222	0.0	58836.0	1795.5322265625	746.0	-0.33695652173913043	1.1676767676767676	-179.0	-0.46307385229540926	-529.0	1.3032349675691457	-624.0	-1.081800632619344	69.0	-123.0	10.146663467814804	
9.593033662422384	1966.0	2087.0	-0.43609582220350285	1.2361476916552003	1276.0	9.731453096259962	-15872.0	-0.27467811158798283	448.0	1792.0	1.0987124463519313	0.0	59476.0	1815.0634765625	748.0	-0.33260869565217394	1.1616161616161615	-182.0	-0.48702594810379246	-517.0	1.0116863434905314	-623.0	-1.0609004833644609	69.0	-104.0	10.134369828580304	
9.616920954744486	1960.0	2085.0	-0.4136383762276956	1.3089002956646856	1274.0	9.731453096259962	-15872.0	-0.27467811158798283	448.0	1920.0	1.1771919068056407	0.0	60116.0	1834.5947265625	744.0	-0.341304347826087	1.1636363636363636	-181.0	-0.5169660678642716	-502.0	1.564763643402735	-611.0	-0.8222292157439465	51.0	-140.0	9.94632954987776	
9.580340082676846	1957.0	2082.0	-0.37704428714235283	1.3450450061481156	1277.0	9.652973635806253	-15744.0	-0.27467811158798283	448.0	1984.0	1.2164316370324952	0.0	60756.0	1854.1259765625	747.0	-0.3347826086956522	1.1636363636363636	-181.0	-0.4730538922155689	-524.0	1.541895230005886	-607.0	0.021376095799572226	-5.0	-138.0	9.88572173211059	
9.66579669319028	1955.0	2079.0	-0.34267394660001754	1.370339661200842	1270.0	9.770692826486817	-15936.0	-0.19619865113427343	320.0	1920.0	1.1771919068056407	0.0	61396.0	1873.6572265625	746.0	-0.33695652173913043	1.1535353535353536	-186.0	-0.4970059880239522	-512.0	1.4416006866503837	-601.0	0.8266094847818581	-58.0	-131.0	9.795469924692432	
9.72638984651077	1954.0	2081.0	-0.36852396605106186	1.3827352853106207	1265.0	9.731453096259962	-15872.0	-0.23543838136112813	384.0	1920.0	1.1771919068056407	0.0	62036.0	1893.1884765625	748.0	-0.33260869565217394	1.1636363636363636	-181.0	-0.502994011976048	-509.0	1.479946068435987	-593.0	1.7133652875011018	-117.0	-133.0	9.673413467072294	
9.702487442731758	1953.0	2076.0	-0.30731873264073206	1.3951565063780185	1267.0	9.809932556713672	-16000.0	-0.15695892090741875	256.0	1984.0	1.2164316370324952	0.0	62676.0	1912.7197265625	742.0	-0.3456521739130435	1.1595959595959595	-183.0	-0.5229540918163673	-499.0	0.8840859330373078	-584.0	2.120132528050975	-141.0	-94.0	9.542489939148714	
9.726874690776853	1955.0	2078.0	-0.3317147920309606	1.3710600327223983	1265.0	9.770692826486817	-15936.0	-0.15695892090741875	256.0	2048.0	1.25567136725935	0.0	63316.0	1932.2509765625	745.0	-0.3391304347826087	1.1535353535353536	-186.0	-0.4730538922155689	-524.0	0.8507848528937828	-528.0	2.7112413629742624	-178.0	-92.0	8.69111192333418	
9.752104479643807	1956.0	2072.0	-0.2588273156986008	1.359993012603307	1263.0	9.849172286940528	-16064.0	-0.15695892090741875	256.0	2048.0	1.25567136725935	0.0	63956.0	1951.7822265625	744.0	-0.341304347826087	1.1656565656565656	-180.0	-0.5049900199600799	-508.0	1.5621051455012114	-534.0	3.152835904182873	-211.0	-138.0	8.775253473259818	
9.75223162735411	1959.0	2074.0	-0.28249250338098647	1.3236130538903332	1263.0	9.849172286940528	-16064.0	-0.15695892090741875	256.0	1920.0	1.1771919068056407	0.0	64596.0	1971.3134765625	744.0	-0.341304347826087	1.1717171717171717	-177.0	-0.4770459081836328	-522.0	1.7701835888616049	-570.0	3.461280090047475	-234.0	-151.0	9.32070120593648	
9.78892453567515	1958.0	2072.0	-0.2590891007625778	1.336262209770812	1260.0	9.888412017167381	-16128.0	-0.19619865113427343	320.0	2048.0	1.25567136725935	0.0	65236.0	1990.8447265625	752.0	-0.3239130434782609	1.1535353535353536	-186.0	-0.5089820359281437	-506.0	1.1339748629865427	-607.0	3.7379232753830984	-251.0	-109.0	9.889800935780784	
9.850972221793889	1960.0	2065.0	-0.1745115981533182	1.3136320761159235	1255.0	9.966891477621092	-16256.0	-0.07847946045370938	128.0	1856.0	1.137952176578786	0.0	340.0	2010.3759765625	747.0	-0.3347826086956522	1.1414141414141414	-192.0	-0.5229540918163673	-499.0	2.337375009506869	-588.0	4.655230807922813	-317.0	-187.0	9.58879355028516	
9.828295960747216	1968.0	2059.0	-0.09897020340843384	1.2177751852842307	1257.0	9.888412017167381	-16128.0	0.0	0.0	1792.0	1.0987124463519313	0.0	980.0	2029.9072265625	751.0	-0.32608695652173914	1.1656565656565656	-180.0	-0.4970059880239522	-512.0	2.6901715958806034	-538.0	5.3957271001199425	-366.0	-210.0	8.824809310657166	
9.889858802599871	1969.0	2055.0	-0.0512018748192756	1.2068203042175647	1252.0	10.006131207847945	-16320.0	0.03923973022685469	-64.0	1664.0	1.020232985898222	0.0	1620.0	2049.4384765625	750.0	-0.3282608695652174	1.1474747474747475	-189.0	-0.4850299401197605	-518.0	1.2188852447487504	-534.0	5.66547963146415	-377.0	-114.0	8.778685672267342	
9.524134274326247	1978.0	2064.0	-0.15138162626004062	1.0937275264806618	1282.0	9.574494175352545	-15616.0	-0.07847946045370938	128.0	1472.0	0.9025137952176578	0.0	2260.0	2068.9697265625	747.0	-0.3347826086956522	1.1717171717171717	-177.0	-0.5049900199600799	-508.0	0.19082930833516792	-503.0	6.160689241427289	-404.0	-47.0	8.317483341897637	
9.764951112454348	1980.0	2091.0	-0.4849657745326571	1.068703467837048	1262.0	9.849172286940528	-16064.0	-0.3531575720416922	576.0	1600.0	0.9809932556713672	0.0	2900.0	2088.5009765625	749.0	-0.33043478260869563	1.1555555555555554	-185.0	-0.530938123752495	-495.0	-9.511688186939665	-568.0	4.892392756850682	-277.0	585.0	9.403101672743922	
10.142528838431204	1982.0	2096.0	-0.5530729052165071	1.0477017882478095	1231.0	10.280809319435928	-16768.0	-0.3531575720416922	576.0	1536.0	0.9417535254445125	0.0	3540.0	2108.0322265625	747.0	-0.3347826086956522	1.1535353535353536	-186.0	-0.5109780439121757	-505.0	-9.087328068389194	-702.0	3.8518011476682323	-215.0	558.0	11.43688088524663	
10.094491323248157	1984.0	2092.0	-0.5028501764398434	1.023627254841577	1235.0	10.163090128755364	-16576.0	-0.3531575720416922	576.0	1344.0	0.8240343347639485	0.0	4180.0	2127.5634765625	749.0	-0.33043478260869563	1.1636363636363636	-181.0	-0.5169660678642716	-502.0	1.9938344673989987	-823.0	3.5616627065576534	-252.0	-163.0	13.166373442398255	
9.668397714160841	1986.0	2089.0	-0.4571849250220612	0.9957265857227129	1270.0	9.809932556713672	-16000.0	-0.3139178418148375	512.0	1536.0	0.9417535254445125	0.0	4820.0	2147.0947265625	750.0	-0.3282608695652174	1.1676767676767676	-179.0	-0.4910179640718563	-515.0	7.992235999742441	-825.0	3.277889763601661	-261.0	-554.0	13.136807678025392	
9.790071023847462	1986.0	2091.0	-0.4840276012449254	0.9966748920573504	1260.0	9.888412017167381	-16128.0	-0.3139178418148375	512.0	1344.0	0.8240343347639485	0.0	5460.0	2166.6259765625	752.0	-0.3239130434782609	1.1494949494949496	-188.0	-0.5349301397205589	-493.0	5.76213573999685	-687.0	1.837898694513423	-149.0	-411.0	11.06024936503349	
9.690602083618778	1983.0	2104.0	-0.6412463618323072	1.030252593362443	1268.0	9.849172286940528	-16064.0	-0.47087676272225626	768.0	1472.0	0.9025137952176578	0.0	6100.0	2186.1572265625	746.0	-0.33695652173913043	1.1616161616161615	-182.0	-0.5269461077844312	-497.0	3.130256164039427	-540.0	1.795664592084092	-128.0	-241.0	8.850826715926146	
9.78837514830595	1983.0	2102.0	-0.6188356159857183	1.0314544314677803	1260.0	9.849172286940528	-16064.0	-0.510116492949111	832.0	1408.0	0.8632740649908032	0.0	6740.0	2205.6884765625	754.0	-0.31956521739130433	1.1575757575757575	-184.0	-0.4910179640718563	-515.0	3.2071651427020793	-459.0	1.5097542112503248	-106.0	-247.0	7.618118462641421	
9.777392555558832	1984.0	2093.0	-0.5086387455699125	1.020398381473383	1261.0	9.849172286940528	-16064.0	-0.39239730226854685	640.0	1344.0	0.8240343347639485	0.0	7380.0	2225.2197265625	758.0	-0.3108695652173913	1.1595959595959595	-183.0	-0.500998003992016	-510.0	4.569085340553189	-440.0	1.3965384933448526	-104.0	-336.0	7.315525876632491	
9.766539269301576	1989.0	2087.0	-0.434058874177369	0.9607946834693142	1262.0	9.927651747394236	-16192.0	-0.27467811158798283	448.0	1408.0	0.8632740649908032	0.0	8020.0	2244.7509765625	753.0	-0.32173913043478264	1.1696969696969697	-178.0	-0.5109780439121757	-505.0	3.7718812555444874	-435.0	1.5600132489933967	-111.0	-284.0	7.247452290106152	
9.6679107111152	1984.0	2091.0	-0.4820422877012858	1.0195695276076329	1270.0	9.809932556713672	-16000.0	-0.3531575720416922	576.0	1408.0	0.8632740649908032	0.0	8660.0	2264.2822265625	753.0	-0.32173913043478264	1.1717171717171717	-177.0	-0.5129740518962077	-504.0	2.395654073679904	-435.0	0.5313608797417265	-36.0	-195.0	7.261214561924799	
9.777498115473554	1977.0	2085.0	-0.4127858198435309	1.105695315727384	1261.0	9.888412017167381	-16128.0	-0.23543838136112813	384.0	1472.0	0.9025137952176578	0.0	9300.0	2283.8134765625	753.0	-0.32173913043478264	1.1535353535353536	-186.0	-0.5129740518962077	-504.0	2.08012563779871	-384.0	0.4494157411155059	-27.0	-175.0	6.488704447044066	
9.67996423475009	1976.0	2084.0	-0.3988642616687541	1.1169073852729816	1269.0	9.849172286940528	-16064.0	-0.15695892090741875	256.0	1664.0	1.020232985898222	0.0	9940.0	2303.3447265625	755.0	-0.3173913043478261	1.1656565656565656	-180.0	-0.5209580838323354	-500.0	3.9493127409098734	-278.0	0.20389696577666694	-15.0	-298.0	4.857845275632727	
9.66861746910852	1976.0	2077.0	-0.313286318932805	1.1176496970439256	1270.0	9.809932556713672	-16000.0	-0.19619865113427343	320.0	1536.0	0.9417535254445125	0.0	10580.0	2322.8759765625	758.0	-0.3108695652173913	1.1696969696969697	-178.0	-0.4970059880239522	-512.0	4.7073722581428585	-189.0	0.6250706150167926	-43.0	-348.0	3.4966525131600164	
9.680315454967193	1971.0	2076.0	-0.3025344659436369	1.1781151592878256	1269.0	9.809932556713672	-16000.0	-0.15695892090741875	256.0	1664.0	1.020232985898222	0.0	11220.0	2342.4072265625	755.0	-0.3173913043478261	1.1454545454545455	-190.0	-0.5369261477045909	-492.0	3.9542215747123746	-48.0	1.123089460219185	-67.0	-300.0	1.359697327979112	
9.76723307461755	1975.0	2067.0	-0.1935920373636278	1.131880988685792	1262.0	9.888412017167381	-16128.0	-0.07847946045370938	128.0	1536.0	0.9417535254445125	0.0	11860.0	2361.9384765625	753.0	-0.32173913043478264	1.1414141414141414	-192.0	-0.5469061876247505	-487.0	2.0345818882291273	-2.0	1.70447127822047	-95.0	-175.0	0.6792739529808266	
9.828315389763238	1977.0	2068.0	-0.20653650547632432	1.108265981613953	1257.0	9.927651747394236	-16192.0	-0.07847946045370938	128.0	1536.0	0.9417535254445125	0.0	12500.0	2381.4697265625	759.0	-0.30869565217391304	1.1616161616161615	-182.0	-0.500998003992016	-510.0	1.8801427550925032	31.0	2.110108881217304	-120.0	-165.0	0.17891720362778224	
9.766754706690142	1977.0	2073.0	-0.2662566454063593	1.1070531733839217	1262.0	9.849172286940528	-16064.0	-0.19619865113427343	320.0	1472.0	0.9025137952176578	0.0	13140.0	2401.0009765625	759.0	-0.30869565217391304	1.1535353535353536	-186.0	-0.5089820359281437	-506.0	2.0647662377932803	26.0	2.079224757978147	-119.0	-177.0	0.2531165961772003	
9.88891933698152	1981.0	2075.0	-0.2921455816317523	1.0598231592402443	1252.0	9.966891477621092	-16256.0	-0.15695892090741875	256.0	1472.0	0.9025137952176578	0.0	13780.0	2420.5322265625	754.0	-0.31956521739130433	1.1737373737373737	-176.0	-0.5129740518962077	-504.0	1.8686978671841437	-8.0	1.9072691646967694	-108.0	-164.0	0.7721875460429876	
9.951456184925458	1986.0	2067.0	-0.19466252768414488	1.0011823944037381	1247.0	10.0453709380748	-16384.0	-0.03923973022685469	64.0	1344.0	0.8240343347639485	0.0	14420.0	2440.0634765625	759.0	-0.30869565217391304	1.1616161616161615	-182.0	-0.5169660678642716	-502.0	2.132976056880456	-58.0	1.4836445580401874	-83.0	-181.0	1.530001037910283	
9.817339273354797	1981.0	2062.0	-0.13219506908314865	1.060706863729463	1258.0	9.888412017167381	-16128.0	-0.03923973022685469	64.0	1600.0	0.9809932556713672	0.0	15060.0	2459.5947265625	761.0	-0.30434782608695654	1.1616161616161615	-182.0	-0.532934131736527	-494.0	1.7617671494422067	-152.0	1.302369348729558	-73.0	-156.0	2.963370921661472	
9.806029206965716	1998.0	2072.0	-0.24979791914210384	0.854598457456549	1259.0	9.888412017167381	-16128.0	-0.03923973022685469	64.0	1024.0	0.627835683629675	0.0	15700.0	2479.1259765625	758.0	-0.3108695652173913	1.1616161616161615	-182.0	-0.5209580838323354	-500.0	0.8949994168535923	-203.0	1.3316697669481439	-73.0	-99.0	3.7477039982269016	
9.929023425401605	1995.0	2060.0	-0.10669245159964824	0.8934040326295857	1249.0	10.006131207847945	-16320.0	0.07847946045370938	-128.0	1216.0	0.745554874310239	0.0	16340.0	2498.6572265625	760.0	-0.3065217391304348	1.1696969696969697	-178.0	-0.502994011976048	-509.0	-0.1428631632240746	-290.0	0.5863595547131344	-22.0	-31.0	5.081276540377488	
9.79344550469402	1984.0	2061.0	-0.11879708103632575	1.0244573276100706	1260.0	9.888412017167381	-16128.0	0.07847946045370938	-128.0	1472.0	0.9025137952176578	0.0	16980.0	2518.1884765625	757.0	-0.3130434782608696	1.1575757575757575	-184.0	-0.5369261477045909	-492.0	-0.8238061141996547	-307.0	1.298073647443508	-67.0	14.0	5.346641102967093	
9.746379836822696	1989.0	2052.0	-0.006907815560336178	0.9648645997306956	1264.0	9.927651747394236	-16192.0	0.11771919068056406	-192.0	1216.0	0.745554874310239	0.0	17620.0	2537.7197265625	753.0	-0.32173913043478264	1.1696969696969697	-178.0	-0.532934131736527	-494.0	-0.9668429554803776	-461.0	-5.200492931117795E-5	14.0	24.0	7.6902767945738155	
9.977901322626956	1991.0	2055.0	-0.04767983331284692	0.9426757088690445	1245.0	10.006131207847945	-16320.0	0.07847946045370938	-128.0	1216.0	0.745554874310239	0.0	18260.0	2557.2509765625	756.0	-0.31521739130434784	1.1696969696969697	-178.0	-0.5189620758483035	-501.0	1.7012848499609403	-662.0	1.3111553357882815	-94.0	-147.0	10.720629737051722	
9.635574924850237	1991.0	2063.0	-0.13830769011615257	0.9383461663232442	1273.0	9.652973635806253	-15744.0	-0.03923973022685469	64.0	1216.0	0.745554874310239	0.0	18900.0	2576.7822265625	759.0	-0.30869565217391304	1.1595959595959595	-183.0	-0.5249500998003993	-498.0	2.0895827603410777	-742.0	2.0900333133480897	-151.0	-171.0	11.933476795970735	
9.745168805547268	1987.0	2060.0	-0.1049066562810278	0.9879688865529032	1264.0	9.770692826486817	-15936.0	0.03923973022685469	-64.0	1280.0	0.7847946045370937	0.0	19540.0	2596.3134765625	759.0	-0.30869565217391304	1.1676767676767676	-179.0	-0.5149700598802396	-503.0	1.722067049840579	-811.0	2.6583428666640487	-190.0	-146.0	12.986581610870417	
9.733093694116793	1985.0	2057.0	-0.06856656890479235	1.0123079218545294	1265.0	9.849172286940528	-16064.0	0.0	0.0	1408.0	0.8632740649908032	0.0	20180.0	2615.8447265625	762.0	-0.30217391304347824	1.1616161616161615	-182.0	-0.5129740518962077	-504.0	2.3756151661660603	-822.0	3.3857740974612183	-242.0	-188.0	13.1473465099353	
9.805895582916735	1992.0	2067.0	-0.190277297437088	0.9274814840596155	1259.0	9.927651747394236	-16192.0	-0.11771919068056406	192.0	1152.0	0.7063151440833844	0.0	20820.0	2635.3759765625	761.0	-0.30434782608695654	1.1616161616161615	-182.0	-0.530938123752495	-495.0	2.2188535123816235	-770.0	3.8481097945007345	-270.0	-178.0	12.358039601758314	
9.6952221362137	1999.0	2082.0	-0.36924598235704353	0.8402477133457953	1268.0	9.809932556713672	-16000.0	-0.23543838136112813	384.0	1088.0	0.6670754138565297	0.0	21460.0	2654.9072265625	756.0	-0.31521739130434784	1.1515151515151516	-187.0	-0.5289421157684632	-496.0	1.5174723499148846	-789.0	4.020299521780336	-279.0	-132.0	12.6540267974134	
9.889559393092165	1998.0	2087.0	-0.4343751427254341	0.8535879870819804	1252.0	10.084610668301655	-16448.0	-0.3531575720416922	576.0	1088.0	0.6670754138565297	0.0	22100.0	2674.4384765625	763.0	-0.3	1.1696969696969697	-178.0	-0.5169660678642716	-502.0	0.9995837001575815	-772.0	3.13715154474283	-217.0	-99.0	12.400650550831125	
9.791669974592484	2000.0	2092.0	-0.4928797575940209	0.8279276612061289	1260.0	9.888412017167381	-16128.0	-0.3139178418148375	512.0	1152.0	0.7063151440833844	0.0	22740.0	2693.9697265625	761.0	-0.30434782608695654	1.1515151515151516	-187.0	-0.5508982035928145	-485.0	2.7725661972703586	-725.0	3.117307637577947	-222.0	-215.0	11.668091828521593	
9.828474919166917	1995.0	2085.0	-0.4094788632718608	0.8893706834505166	1257.0	9.966891477621092	-16256.0	-0.27467811158798283	448.0	1216.0	0.745554874310239	0.0	23380.0	2713.5009765625	760.0	-0.3065217391304348	1.1676767676767676	-179.0	-0.5389221556886228	-491.0	2.766895872545689	-619.0	2.6274663455133336	-185.0	-216.0	10.055981231388614	
9.853950368336251	1998.0	2079.0	-0.33611451694076544	0.8542145030922678	1255.0	9.927651747394236	-16192.0	-0.27467811158798283	448.0	1088.0	0.6670754138565297	0.0	24020.0	2733.0322265625	767.0	-0.29130434782608694	1.1636363636363636	-181.0	-0.5169660678642716	-502.0	3.26357141489132	-444.0	2.7743241248337034	-190.0	-250.0	7.389417517790251	
9.79117433642861	1994.0	2090.0	-0.4699298749097386	0.900441360277839	1260.0	9.927651747394236	-16192.0	-0.3531575720416922	576.0	1216.0	0.745554874310239	0.0	24660.0	2752.5634765625	770.0	-0.2847826086956522	1.1535353535353536	-186.0	-0.5469061876247505	-487.0	1.37213928283391	-392.0	1.6632399636227877	-105.0	-128.0	6.617457314395996	
9.815197411579247	1995.0	2094.0	-0.5189448619798239	0.8881432483875603	1258.0	9.927651747394236	-16192.0	-0.4316370324954016	704.0	1152.0	0.7063151440833844	0.0	25300.0	2772.0947265625	763.0	-0.3	1.1636363636363636	-181.0	-0.5169660678642716	-502.0	0.9825295397079475	-403.0	0.9040545916326808	-53.0	-103.0	6.788653792055392	
9.889074548826082	1997.0	2090.0	-0.47118431674553535	0.8652632396702028	1252.0	10.006131207847945	-16320.0	-0.3139178418148375	512.0	1216.0	0.745554874310239	0.0	25940.0	2791.6259765625	765.0	-0.2956521739130435	1.1494949494949496	-188.0	-0.5249500998003993	-498.0	1.2660161800218765	-459.0	0.7752929616615627	-48.0	-121.0	7.637529952268223	
9.876872289685302	1992.0	2085.0	-0.41117904168691427	0.9259822336848029	1253.0	10.006131207847945	-16320.0	-0.27467811158798283	448.0	1216.0	0.745554874310239	0.0	26580.0	2811.1572265625	766.0	-0.29347826086956524	1.1636363636363636	-181.0	-0.5429141716566867	-489.0	1.7145908406149704	-521.0	0.18161590292116842	-13.0	-150.0	8.576009985129975	
9.840778420663305	1991.0	2080.0	-0.3497275899223469	0.938284002283313	1256.0	9.927651747394236	-16192.0	-0.19619865113427343	320.0	1280.0	0.7847946045370937	0.0	27220.0	2830.6884765625	763.0	-0.3	1.1737373737373737	-176.0	-0.5369261477045909	-492.0	1.9610047887179003	-504.0	-1.0096000986455504	66.0	-167.0	8.314990712569097	
9.927204719708904	1991.0	2071.0	-0.24173890133980896	0.9402281521595943	1249.0	10.006131207847945	-16320.0	-0.07847946045370938	128.0	1280.0	0.7847946045370937	0.0	27860.0	2850.2197265625	768.0	-0.2891304347826087	1.1636363636363636	-181.0	-0.5249500998003993	-498.0	1.3408036625999773	-499.0	-1.5630924250977234	106.0	-127.0	8.245147096453849	
9.902104237331816	1994.0	2080.0	-0.35024337669543115	0.9027475242690143	1251.0	10.006131207847945	-16320.0	-0.19619865113427343	320.0	1280.0	0.7847946045370937	0.0	28500.0	2869.7509765625	765.0	-0.2956521739130435	1.1595959595959595	-183.0	-0.5628742514970061	-479.0	1.7064122315034902	-520.0	-2.156037085573307	143.0	-151.0	8.560882645745801	
9.816149829874949	1989.0	2080.0	-0.3497120232126075	0.9621342575846955	1258.0	9.849172286940528	-16064.0	-0.27467811158798283	448.0	1280.0	0.7847946045370937	0.0	29140.0	2889.2822265625	765.0	-0.2956521739130435	1.1777777777777778	-174.0	-0.5449101796407186	-488.0	1.4118361770464838	-527.0	-2.5595832522637054	171.0	-132.0	8.67029228461737	
9.717157098794118	1983.0	2086.0	-0.42231436441638115	1.0327074634883553	1266.0	9.731453096259962	-15872.0	-0.19619865113427343	320.0	1472.0	0.9025137952176578	0.0	29780.0	2908.8134765625	767.0	-0.29130434782608694	1.1737373737373737	-176.0	-0.5289421157684632	-496.0	-0.19717075993429034	-496.0	-3.373264789992424	234.0	-28.0	8.214899464253335	
9.827722826802873	1982.0	2078.0	-0.32724679388193045	1.046811989244872	1257.0	9.888412017167381	-16128.0	-0.15695892090741875	256.0	1536.0	0.9417535254445125	0.0	30420.0	2928.3447265625	769.0	-0.28695652173913044	1.1575757575757575	-184.0	-0.5429141716566867	-489.0	-0.6948141902681296	-426.0	-4.495443555760465	314.0	3.0	7.155237115286712	
9.854030022896277	1979.0	2059.0	-0.09683985512386324	1.0855237089066394	1255.0	9.927651747394236	-16192.0	0.0	0.0	1472.0	0.9025137952176578	0.0	31060.0	2947.8759765625	770.0	-0.2847826086956522	1.1757575757575758	-175.0	-0.5169660678642716	-502.0	1.5487143369164251	-368.0	-4.87118053386799	331.0	-144.0	6.250672552448326	
9.68286034766924	1976.0	2060.0	-0.10629834950288589	1.1198620055238317	1269.0	9.692213366033108	-15808.0	-0.03923973022685469	64.0	1472.0	0.9025137952176578	0.0	31700.0	2967.4072265625	770.0	-0.2847826086956522	1.1636363636363636	-181.0	-0.5289421157684632	-496.0	3.111998988917316	-316.0	-5.832907885798089	390.0	-247.0	5.444165181213489	
9.742738107878177	1979.0	2072.0	-0.2530970923589042	1.082848217384108	1264.0	9.849172286940528	-16064.0	-0.23543838136112813	384.0	1472.0	0.9025137952176578	0.0	32340.0	2986.9384765625	769.0	-0.28695652173913044	1.1696969696969697	-178.0	-0.5369261477045909	-492.0	2.6208273853640263	-171.0	-2.097316011135775	149.0	-214.0	3.2437537033326715	
9.839537166474061	1975.0	2074.0	-0.28040107187076446	1.1317359392592854	1256.0	9.927651747394236	-16192.0	-0.15695892090741875	256.0	1600.0	0.9809932556713672	0.0	32980.0	3006.4697265625	770.0	-0.2847826086956522	1.1777777777777778	-174.0	-0.5229540918163673	-499.0	-0.1342763820296683	-221.0	-3.645124467162101	263.0	-35.0	4.031761014770867	
9.777495956693995	1976.0	2084.0	-0.40083400850265416	1.1178630050240816	1261.0	9.770692826486817	-15936.0	-0.3139178418148375	512.0	1600.0	0.9809932556713672	0.0	33620.0	3026.0009765625	769.0	-0.28695652173913044	1.1636363636363636	-181.0	-0.532934131736527	-494.0	0.7742717131395239	-265.0	-2.4757571605798	179.0	-93.0	4.691877054731723	
9.619127579906781	1976.0	2083.0	-0.385442923557322	1.116433232105663	1274.0	9.692213366033108	-15808.0	-0.15695892090741875	256.0	1472.0	0.9025137952176578	0.0	34260.0	3045.5322265625	770.0	-0.2847826086956522	1.1676767676767676	-179.0	-0.5588822355289422	-481.0	2.3111672423337506	-314.0	-1.4731046904857061	103.0	-192.0	5.421755247728754	
9.950710568900089	1976.0	2063.0	-0.14828589231684475	1.1221206323080009	1247.0	10.084610668301655	-16448.0	-0.11771919068056406	192.0	1600.0	0.9809932556713672	0.0	34900.0	3065.0634765625	775.0	-0.2739130434782609	1.185858585858586	-170.0	-0.500998003992016	-510.0	0.44786549381440904	-347.0	-1.0636448594536174	83.0	-70.0	5.942289405898358	
9.925222167053407	1967.0	2063.0	-0.1499393706026798	1.2302829484464346	1249.0	10.006131207847945	-16320.0	0.07847946045370938	-128.0	1728.0	1.0594727161250765	0.0	35540.0	3084.5947265625	771.0	-0.2826086956521739	1.1777777777777778	-174.0	-0.5189620758483035	-501.0	1.2437595369115446	-366.0	-0.036145246601201664	10.0	-121.0	6.223303849497806	
9.865006139304718	1975.0	2065.0	-0.17118129151703895	1.1330828267911295	1254.0	10.006131207847945	-16320.0	0.0	0.0	1664.0	1.020232985898222	0.0	36180.0	3104.1259765625	771.0	-0.2826086956521739	1.1575757575757575	-184.0	-0.5409181636726548	-490.0	3.460562910322482	-318.0	1.36800214183079	-92.0	-265.0	5.471097792950008	
9.791736676475159	1975.0	2066.0	-0.18189422773185834	1.1322430028006856	1260.0	9.809932556713672	-16000.0	-0.11771919068056406	192.0	1600.0	0.9809932556713672	0.0	36820.0	3123.6572265625	772.0	-0.28043478260869564	1.1757575757575758	-175.0	-0.5169660678642716	-502.0	4.263183489748464	-317.0	1.8374857457061609	-127.0	-317.0	5.4478624616804625	
9.914750323927073	1981.0	2063.0	-0.14635506225729328	1.0615393743034447	1250.0	10.0453709380748	-16384.0	-0.11771919068056406	192.0	1536.0	0.9417535254445125	0.0	37460.0	3143.1884765625	776.0	-0.2717391304347826	1.1717171717171717	-177.0	-0.5169660678642716	-502.0	3.24205988642422	-352.0	2.0221957065652627	-136.0	-250.0	5.990393089348686	
9.756144921955707	1983.0	2066.0	-0.17924809267420352	1.0355280044373931	1263.0	9.849172286940528	-16064.0	-0.03923973022685469	64.0	1408.0	0.8632740649908032	0.0	38100.0	3162.7197265625	774.0	-0.27608695652173915	1.1454545454545455	-190.0	-0.5389221556886228	-491.0	4.479566004229565	-413.0	2.0638725558356996	-147.0	-330.0	6.905774682163028	
9.720915181551154	1991.0	2063.0	-0.14003121859581513	0.9391823336054568	1266.0	9.809932556713672	-16000.0	0.0	0.0	1280.0	0.7847946045370937	0.0	38740.0	3182.2509765625	769.0	-0.28695652173913044	1.1555555555555554	-185.0	-0.5788423153692616	-471.0	4.508856495099847	-422.0	1.7864935850337587	-129.0	-332.0	7.042363906531891	
9.636292476741351	1988.0	2054.0	-0.02931077805205537	0.9755878892760493	1273.0	9.770692826486817	-15936.0	0.19619865113427343	-320.0	1216.0	0.745554874310239	0.0	39380.0	3201.7822265625	778.0	-0.2673913043478261	1.1535353535353536	-186.0	-0.5429141716566867	-489.0	3.2013972176239207	-502.0	1.8138310454770448	-128.0	-246.0	8.272168537329465	
9.574727476109135	1986.0	2057.0	-0.06512729530033684	0.998710459639413	1278.0	9.731453096259962	-15872.0	0.0	0.0	1344.0	0.8240343347639485	0.0	40020.0	3221.3134765625	774.0	-0.27608695652173915	1.1696969696969697	-178.0	-0.5608782435129741	-480.0	1.621196254070399	-551.0	1.1293854554543885	-77.0	-143.0	9.033217695253974	
9.574962342513723	1983.0	2052.0	-0.0048913685972176435	1.0354597458837431	1278.0	9.652973635806253	-15744.0	0.11771919068056406	-192.0	1408.0	0.8632740649908032	0.0	40660.0	3240.8447265625	775.0	-0.2739130434782609	1.183838383838384	-171.0	-0.5169660678642716	-502.0	0.5731448854363389	-624.0	1.1129416730791082	-74.0	-74.0	10.153964368636133	
9.660429746924947	1986.0	2054.0	-0.03028008475926594	0.9999159544529819	1271.0	9.731453096259962	-15872.0	0.11771919068056406	-192.0	1344.0	0.8240343347639485	0.0	41300.0	3260.3759765625	775.0	-0.2739130434782609	1.1515151515151516	-187.0	-0.56686626746507	-477.0	0.6194477549530442	-688.0	1.700468789565305	-116.0	-76.0	11.126885370359217	
9.611185518025586	1988.0	2060.0	-0.10195981938504736	0.9746103292755618	1275.0	9.613733905579398	-15680.0	-0.03923973022685469	64.0	1408.0	0.8632740649908032	0.0	41940.0	3279.9072265625	777.0	-0.26956521739130435	1.1636363636363636	-181.0	-0.5429141716566867	-489.0	1.218185643725327	-751.0	2.2951323049747026	-161.0	-114.0	12.07907289641446	
9.586074241750705	1986.0	2064.0	-0.1507052380362859	0.9979681478684692	1277.0	9.652973635806253	-15744.0	-0.15695892090741875	256.0	1280.0	0.7847946045370937	0.0	42580.0	3299.4384765625	778.0	-0.2673913043478261	1.1676767676767676	-179.0	-0.5748502994011977	-473.0	1.3687641221680604	-799.0	2.8101731606432	-198.0	-123.0	12.807605134443719	
9.768957014293319	1991.0	2069.0	-0.21415757005423225	0.9389214884182943	1262.0	9.927651747394236	-16192.0	-0.03923973022685469	64.0	1280.0	0.7847946045370937	0.0	43220.0	3318.9697265625	782.0	-0.25869565217391305	1.1797979797979798	-173.0	-0.5189620758483035	-501.0	0.03661123278329967	-820.0	2.8001603138563844	-192.0	-36.0	13.140318298318556	
9.658632629027826	1992.0	2075.0	-0.28484464790819386	0.9250631810160154	1271.0	9.770692826486817	-15936.0	-0.15695892090741875	256.0	1280.0	0.7847946045370937	0.0	43860.0	3338.5009765625	781.0	-0.2608695652173913	1.1696969696969697	-178.0	-0.5489021956087825	-486.0	0.6065264291184105	-769.0	3.781026079537354	-258.0	-73.0	12.358953747115661	
9.743479406344429	1987.0	2074.0	-0.2755701050444509	0.9862453580732405	1264.0	9.770692826486817	-15936.0	-0.19619865113427343	320.0	1216.0	0.745554874310239	0.0	44500.0	3358.0322265625	776.0	-0.2717391304347826	1.185858585858586	-170.0	-0.5449101796407186	-488.0	1.7133936385203596	-654.0	4.178747700148691	-285.0	-146.0	10.598835645363847	
9.816524796667192	1995.0	2083.0	-0.3848521522371343	0.8894974493358666	1258.0	9.888412017167381	-16128.0	-0.23543838136112813	384.0	1088.0	0.6670754138565297	0.0	45140.0	3377.5634765625	783.0	-0.2565217391304348	1.1696969696969697	-178.0	-0.5409181636726548	-490.0	2.2053354295925525	-626.0	4.686280403206793	-320.0	-178.0	10.168060714145138	
9.889781306819403	1989.0	2076.0	-0.30242834797705453	0.9633434091064955	1252.0	9.966891477621092	-16256.0	-0.27467811158798283	448.0	1344.0	0.8240343347639485	0.0	45780.0	3397.0947265625	782.0	-0.25869565217391305	1.1676767676767676	-179.0	-0.564870259481038	-478.0	3.0236483399230427	-587.0	4.2332619554417095	-292.0	-232.0	9.566721691505712	
9.914774070502212	1992.0	2074.0	-0.2778249870069372	0.9276947920397718	1250.0	10.0453709380748	-16384.0	-0.19619865113427343	320.0	1344.0	0.8240343347639485	0.0	46420.0	3416.6259765625	774.0	-0.27608695652173915	1.1474747474747475	-189.0	-0.5848303393213574	-468.0	3.0475916035555293	-484.0	3.5896094250891446	-245.0	-235.0	7.9999423349150165	
9.92660999796898	1995.0	2080.0	-0.35049737840453843	0.8909418490872105	1249.0	10.0453709380748	-16384.0	-0.23543838136112813	384.0	1152.0	0.7063151440833844	0.0	47060.0	3436.1572265625	778.0	-0.2673913043478261	1.1737373737373737	-176.0	-0.5828343313373254	-469.0	3.1651185314831602	-403.0	2.7611419000540014	-187.0	-244.0	6.76682790213764	
9.828964080992117	1998.0	2084.0	-0.396573311933513	0.8533600522688991	1257.0	9.849172286940528	-16064.0	-0.19619865113427343	320.0	1216.0	0.745554874310239	0.0	47700.0	3455.6884765625	782.0	-0.25869565217391305	1.1696969696969697	-178.0	-0.5808383233532934	-470.0	1.77415631064876	-302.0	1.7949599564347822	-112.0	-155.0	5.244615851342182	
10.035841864551116	1991.0	2080.0	-0.3536670835901472	0.9401952417855131	1240.0	10.084610668301655	-16448.0	-0.3139178418148375	512.0	1280.0	0.7847946045370937	0.0	48340.0	3475.2197265625	782.0	-0.25869565217391305	1.1696969696969697	-178.0	-0.5389221556886228	-491.0	1.4301225746658865	-209.0	1.0359024413321989	-56.0	-134.0	3.8336075195004895	
10.036927906895798	1991.0	2071.0	-0.24395486652794662	0.9413032243795818	1240.0	10.0453709380748	-16384.0	-0.19619865113427343	320.0	1216.0	0.745554874310239	0.0	48980.0	3494.7509765625	786.0	-0.25	1.1676767676767676	-179.0	-0.5449101796407186	-488.0	5.09635133477628	-124.0	0.607556390022596	-41.0	-374.0	2.5041695665001464	
9.928159296784163	1986.0	2058.0	-0.08445787391346932	1.002051472060032	1249.0	10.006131207847945	-16320.0	0.0	0.0	1408.0	0.8632740649908032	0.0	49620.0	3514.2822265625	785.0	-0.25217391304347825	1.1656565656565656	-180.0	-0.5548902195608784	-483.0	8.385470775893658	-33.0	0.9287475173390203	-74.0	-589.0	1.0872479538380215	
9.514142957906879	1991.0	2059.0	-0.08708452121279935	0.9376440783428442	1283.0	9.53525444512569	-15552.0	0.03923973022685469	-64.0	1280.0	0.7847946045370937	0.0	50260.0	3533.8134765625	784.0	-0.25434782608695655	1.1797979797979798	-173.0	-0.5548902195608784	-483.0	6.027576513321602	18.0	0.7340784765323427	-48.0	-436.0	0.33516149722419847	
9.65910667939612	1988.0	2067.0	-0.18827641718370897	0.9742263749112805	1271.0	9.731453096259962	-15872.0	-0.07847946045370938	128.0	1216.0	0.745554874310239	0.0	50900.0	3553.3447265625	788.0	-0.24565217391304348	1.1636363636363636	-181.0	-0.5588822355289422	-481.0	-0.6994639399653646	-21.0	-0.3356886222210486	53.0	2.0	0.9955877952931899	
9.892556748366923	1989.0	2053.0	-0.022052682151430858	0.966174920180227	1252.0	9.927651747394236	-16192.0	0.03923973022685469	-64.0	1280.0	0.7847946045370937	0.0	51540.0	3572.8759765625	788.0	-0.24565217391304348	1.1696969696969697	-178.0	-0.56686626746507	-477.0	-1.1641832014148707	-36.0	0.5421030767338443	-4.0	33.0	1.2283718700369626	
9.831355920629163	1988.0	2054.0	-0.03325027171985559	0.9774991287782495	1257.0	9.927651747394236	-16192.0	0.07847946045370938	-128.0	1216.0	0.745554874310239	0.0	52180.0	3592.4072265625	786.0	-0.25	1.1797979797979798	-173.0	-0.532934131736527	-494.0	1.352407256758463	-42.0	0.4082757019752896	-7.0	-131.0	1.29446071830694	
9.64860245457641	1987.0	2052.0	-0.0054149387251715975	0.9879981402187531	1272.0	9.731453096259962	-15872.0	0.07847946045370938	-128.0	1280.0	0.7847946045370937	0.0	52820.0	3611.9384765625	791.0	-0.2391304347826087	1.1797979797979798	-173.0	-0.5409181636726548	-490.0	1.841920840620547	-22.0	0.5512903981481019	-18.0	-163.0	0.985383072962616	
9.771243294015639	1988.0	2047.0	0.053312544433043535	0.9777636306736432	1262.0	9.770692826486817	-15936.0	0.19619865113427343	-320.0	1408.0	0.8632740649908032	0.0	53460.0	3631.4697265625	786.0	-0.25	1.1717171717171717	-177.0	-0.5728542914171657	-474.0	1.4401463716799854	12.0	0.79484086055839	-31.0	-137.0	0.4722905514923256	
9.771637689823905	2003.0	2059.0	-0.08939388665937374	0.7956176187545367	1262.0	9.849172286940528	-16064.0	0.07847946045370938	-128.0	1088.0	0.6670754138565297	0.0	54100.0	3651.0009765625	782.0	-0.25869565217391305	1.1535353535353536	-186.0	-0.5528942115768464	-484.0	1.3928889340169968	38.0	1.0688200324321715	-48.0	-134.0	0.07732586351154108	
9.612553919925135	2007.0	2068.0	-0.19495152511901548	0.7447784335866152	1275.0	9.692213366033108	-15808.0	-0.07847946045370938	128.0	832.0	0.510116492949111	0.0	54740.0	3670.5322265625	788.0	-0.24565217391304348	1.1555555555555554	-185.0	-0.5808383233532934	-470.0	0.2652426348856635	-13.0	1.1012850951340047	-47.0	-60.0	0.8642677257423981	
9.502339412133482	2003.0	2068.0	-0.193689299928349	0.7918816818449427	1284.0	9.53525444512569	-15552.0	-0.15695892090741875	256.0	1024.0	0.627835683629675	0.0	55380.0	3690.0634765625	788.0	-0.24565217391304348	1.1656565656565656	-180.0	-0.5588822355289422	-481.0	-2.6148911547319975	-109.0	0.1638790952012315	25.0	128.0	2.3531451092659514	
9.73419700669794	1993.0	2056.0	-0.05446884256960555	0.916074390075018	1265.0	9.809932556713672	-16000.0	0.07847946045370938	-128.0	1280.0	0.7847946045370937	0.0	56020.0	3709.5947265625	785.0	-0.25217391304347825	1.1777777777777778	-174.0	-0.5588822355289422	-481.0	-4.2560660783820925	-139.0	-0.18992119312684216	55.0	235.0	2.8258306227610075	
10.003365977898499	1989.0	2044.0	0.08544356972263206	0.9683579749942833	1243.0	10.123850398528509	-16512.0	0.15695892090741875	-256.0	1216.0	0.745554874310239	0.0	56660.0	3729.1259765625	789.0	-0.24347826086956523	1.1656565656565656	-180.0	-0.5489021956087825	-486.0	-3.490108849916269	-99.0	0.27585540822054866	22.0	185.0	2.209806031464942	
9.869255542666512	1987.0	2042.0	0.11205559430099821	0.9913793764299158	1254.0	9.927651747394236	-16192.0	0.27467811158798283	-448.0	1344.0	0.8240343347639485	0.0	57300.0	3748.6572265625	782.0	-0.25869565217391305	1.1656565656565656	-180.0	-0.5808383233532934	-470.0	0.0701748712741258	-21.0	1.424837470039921	-68.0	-47.0	0.9878914071807949	
10.02811092249937	1989.0	2041.0	0.12152187203489054	0.9689662074634147	1241.0	10.0453709380748	-16384.0	0.19619865113427343	-320.0	1280.0	0.7847946045370937	0.0	57940.0	3768.1884765625	785.0	-0.25217391304347825	1.1818181818181819	-172.0	-0.5389221556886228	-491.0	3.1838844167737963	56.0	2.409390180742719	-145.0	-250.0	-0.21434834987116003	
9.7715105421136	2000.0	2057.0	-0.06572869897698808	0.8319975774675105	1262.0	9.849172286940528	-16064.0	0.15695892090741875	-256.0	1088.0	0.6670754138565297	0.0	58580.0	3787.7197265625	781.0	-0.2608695652173913	1.1696969696969697	-178.0	-0.6027944111776448	-459.0	5.6425646358244785	48.0	2.593219207299723	-169.0	-410.0	-0.11726214825938547	
9.601051942439002	1991.0	2046.0	0.06966515273071663	0.9400806649276006	1276.0	9.692213366033108	-15808.0	0.15695892090741875	-256.0	1280.0	0.7847946045370937	0.0	59220.0	3807.2509765625	785.0	-0.25217391304347825	1.1757575757575758	-175.0	-0.5808383233532934	-470.0	3.3894056092463334	-83.0	2.4304631980890528	-153.0	-262.0	1.8976648792687536	
9.822545412571404	1989.0	2027.0	0.2963710328203514	0.9686590439719897	1258.0	9.927651747394236	-16192.0	0.3531575720416922	-576.0	1280.0	0.7847946045370937	0.0	59860.0	3826.7822265625	786.0	-0.25	1.1757575757575758	-175.0	-0.5409181636726548	-490.0	-1.0185921757656835	-181.0	2.1529024408783637	-118.0	26.0	3.4322391536968206	
9.95702649703652	1995.0	2030.0	0.258522501899212	0.8973362128809234	1247.0	10.006131207847945	-16320.0	0.3139178418148375	-512.0	1280.0	0.7847946045370937	0.0	60500.0	3846.3134765625	791.0	-0.2391304347826087	1.1676767676767676	-179.0	-0.5449101796407186	-488.0	-0.5474233078356083	-226.0	2.542507774258695	-148.0	-4.0	4.111938111405352	
9.748454996715568	2000.0	2046.0	0.06885644747417652	0.8331128734780419	1264.0	9.849172286940528	-16064.0	0.19619865113427343	-320.0	1216.0	0.745554874310239	0.0	61140.0	3865.8447265625	787.0	-0.24782608695652175	1.1656565656565656	-180.0	-0.56686626746507	-477.0	1.2518850076302936	-242.0	2.6624146389162267	-165.0	-121.0	4.337291035855256	
9.772958598573174	2000.0	2045.0	0.08055425710594602	0.8334748875929355	1262.0	9.888412017167381	-16128.0	0.15695892090741875	-256.0	1216.0	0.745554874310239	0.0	61780.0	3885.3759765625	789.0	-0.24347826086956523	1.1737373737373737	-176.0	-0.5608782435129741	-480.0	0.7677537510728225	-303.0	2.434112351991042	-150.0	-89.0	5.269889002413226	
9.883170947585269	2003.0	2044.0	0.09124384325615623	0.7985393286313056	1253.0	9.927651747394236	-16192.0	0.23543838136112813	-384.0	960.0	0.5885959534028203	0.0	62420.0	3904.9072265625	789.0	-0.24347826086956523	1.1636363636363636	-181.0	-0.5429141716566867	-489.0	-0.08656742486840197	-327.0	2.5839198716171587	-157.0	-33.0	5.643451225579483	
9.894985287256455	1996.0	2040.0	0.13808956526732225	0.8834632786457195	1252.0	9.966891477621092	-16256.0	0.27467811158798283	-448.0	1152.0	0.7063151440833844	0.0	63060.0	3924.4384765625	786.0	-0.25	1.1696969696969697	-178.0	-0.5868263473053893	-467.0	0.005640715865532914	-418.0	2.747028524513928	-172.0	-38.0	7.026559562423094	
9.736394996742002	2005.0	2050.0	0.021533855464274915	0.7722780837027854	1265.0	9.849172286940528	-16064.0	0.23543838136112813	-384.0	896.0	0.5493562231759657	0.0	63700.0	3943.9697265625	784.0	-0.25434782608695655	1.1797979797979798	-173.0	-0.5469061876247505	-487.0	1.9543406776016867	-417.0	2.7169548984329843	-179.0	-165.0	6.991863437330448	
9.772122534089988	2004.0	2056.0	-0.05258471263927242	0.7839423661663142	1262.0	9.849172286940528	-16064.0	0.07847946045370938	-128.0	1088.0	0.6670754138565297	0.0	64340.0	3963.5009765625	791.0	-0.2391304347826087	1.1797979797979798	-173.0	-0.5489021956087825	-486.0	-0.023312811083645853	-476.0	2.039095850221262	-127.0	-36.0	7.908978375259126	
9.82076556491075	2003.0	2056.0	-0.053808021055590294	0.796464756161443	1258.0	9.809932556713672	-16000.0	0.03923973022685469	-64.0	960.0	0.5885959534028203	0.0	64980.0	3983.0322265625	786.0	-0.25	1.1737373737373737	-176.0	-0.5868263473053893	-467.0	-0.951432401695417	-528.0	2.0570654889911224	-126.0	25.0	8.70913409588007	
9.870973006003606	2000.0	2041.0	0.1273454956330239	0.8349229440525107	1254.0	9.966891477621092	-16256.0	0.23543838136112813	-384.0	1024.0	0.627835683629675	0.0	84.0	4002.5634765625	788.0	-0.24565217391304348	1.1797979797979798	-173.0	-0.5489021956087825	-486.0	0.5606286001735798	-554.0	2.460746183951151	-161.0	-73.0	9.089450748218797	
9.918911437610605	2008.0	2056.0	-0.05458559289265147	0.7371974753146492	1250.0	10.006131207847945	-16320.0	0.11771919068056406	-192.0	896.0	0.5493562231759657	0.0	724.0	4022.0947265625	792.0	-0.23695652173913043	1.1616161616161615	-182.0	-0.5728542914171657	-474.0	1.4990309229526746	-492.0	2.088324427257537	-138.0	-135.0	8.137100945523326	
9.820166525611713	2005.0	2063.0	-0.1386628754385663	0.7715138316824541	1258.0	9.966891477621092	-16256.0	-0.03923973022685469	64.0	1024.0	0.627835683629675	0.0	1364.0	4041.6259765625	792.0	-0.23695652173913043	1.1696969696969697	-178.0	-0.5768463073852296	-472.0	2.030198163144153	-375.0	1.7327287971132703	-112.0	-171.0	6.352321592513046	
9.758603683759056	2004.0	2067.0	-0.1864312040277245	0.7824687127491203	1263.0	9.770692826486817	-15936.0	-0.07847946045370938	128.0	1024.0	0.627835683629675	0.0	2004.0	4061.1572265625	792.0	-0.23695652173913043	1.187878787878788	-169.0	-0.5508982035928145	-485.0	1.5526671230261893	-410.0	1.0250320019300365	-64.0	-140.0	6.889416294549206	
9.88063900756057	2004.0	2066.0	-0.17670314122985517	0.7837863466151143	1253.0	10.006131207847945	-16320.0	-0.07847946045370938	128.0	1024.0	0.627835683629675	0.0	2644.0	4080.6884765625	788.0	-0.24565217391304348	1.1737373737373737	-176.0	-0.5708582834331338	-475.0	1.972864723028483	-421.0	1.4388693462045294	-94.0	-167.0	7.052514698777321	
9.796020620309882	2003.0	2059.0	-0.08988632336784878	0.7958565236923117	1260.0	9.888412017167381	-16128.0	0.03923973022685469	-64.0	1024.0	0.627835683629675	0.0	3284.0	4100.2197265625	792.0	-0.23695652173913043	1.1696969696969697	-178.0	-0.5988023952095809	-461.0	2.4192226783233424	-499.0	1.915072999713777	-131.0	-195.0	8.234362906296615	
9.771637689823905	2003.0	2059.0	-0.08939388665937374	0.7956176187545367	1262.0	9.809932556713672	-16000.0	0.03923973022685469	-64.0	1024.0	0.627835683629675	0.0	3924.0	4119.7509765625	790.0	-0.24130434782608695	1.1818181818181819	-172.0	-0.5588822355289422	-481.0	1.766005616906261	-542.0	1.9343772113709152	-131.0	-152.0	8.894887472348048	
9.893910038809565	2001.0	2054.0	-0.031381708499261945	0.8215168495681631	1252.0	9.927651747394236	-16192.0	0.03923973022685469	-64.0	1024.0	0.627835683629675	0.0	4564.0	4139.2822265625	796.0	-0.2282608695652174	1.1797979797979798	-173.0	-0.5568862275449102	-482.0	0.06735017113683449	-517.0	1.2732100572210783	-78.0	-42.0	8.531645889923613	
9.992532120657268	2003.0	2047.0	0.05245713904728505	0.7992450733199369	1244.0	10.084610668301655	-16448.0	0.07847946045370938	-128.0	1088.0	0.6670754138565297	0.0	5204.0	4158.8134765625	793.0	-0.23478260869565218	1.1737373737373737	-176.0	-0.6027944111776448	-459.0	3.723240465686045	-480.0	2.1507148757851944	-152.0	-280.0	7.93234934439257	
9.894640543378028	2004.0	2051.0	0.005904335519574977	0.785752436740783	1252.0	9.966891477621092	-16256.0	0.15695892090741875	-256.0	1024.0	0.627835683629675	0.0	5844.0	4178.3447265625	794.0	-0.2326086956521739	1.183838383838384	-171.0	-0.5768463073852296	-472.0	6.339055260389194	-483.0	2.7764242734156213	-206.0	-450.0	7.951818572871394	
9.698844436142195	2000.0	2053.0	-0.015490403490584975	0.8317732993626605	1268.0	9.731453096259962	-15872.0	0.15695892090741875	-256.0	960.0	0.5885959534028203	0.0	6484.0	4197.8759765625	799.0	-0.2217391304347826	1.1676767676767676	-179.0	-0.5828343313373254	-469.0	4.90814596169501	-464.0	2.7076644509884424	-194.0	-357.0	7.677154281827917	
9.73566449217354	2002.0	2053.0	-0.015752188554561952	0.8080424965301655	1265.0	9.849172286940528	-16064.0	0.15695892090741875	-256.0	1024.0	0.627835683629675	0.0	7124.0	4217.4072265625	800.0	-0.21956521739130436	1.1656565656565656	-180.0	-0.5988023952095809	-461.0	1.2431301146609584	-445.0	3.3041435717619994	-216.0	-118.0	7.4248310562678395	
9.916706971227871	1993.0	2059.0	-0.0947328569039018	0.9174968495769744	1250.0	9.966891477621092	-16256.0	0.0	0.0	1216.0	0.745554874310239	0.0	7764.0	4236.9384765625	797.0	-0.22608695652173913	1.1595959595959595	-183.0	-0.5608782435129741	-480.0	2.541035184390155	-404.0	4.797972734493412	-320.0	-202.0	6.788277861083857	
10.186119443951249	1990.0	2046.0	0.0576082367279481	0.9578589635537798	1228.0	10.20232985898222	-16640.0	0.11771919068056406	-192.0	1408.0	0.8632740649908032	0.0	8404.0	4256.4697265625	797.0	-0.22608695652173913	1.1595959595959595	-183.0	-0.5988023952095809	-461.0	7.583838567634848	-254.0	7.956539226444005	-548.0	-530.0	4.456481005958632	
10.139443854329075	2008.0	2047.0	0.05069469379327379	0.7404556023486932	1232.0	10.20232985898222	-16640.0	0.15695892090741875	-256.0	832.0	0.510116492949111	0.0	9044.0	4276.0009765625	798.0	-0.22391304347826088	1.1656565656565656	-180.0	-0.6067864271457086	-457.0	14.026387655431844	-95.0	11.562888837461395	-812.0	-949.0	1.9738045645103206	
9.995956253433667	2024.0	2040.0	0.1427959984157201	0.5471706550486143	1244.0	10.123850398528509	-16512.0	0.23543838136112813	-384.0	576.0	0.3531575720416922	0.0	9684.0	4295.5322265625	801.0	-0.21739130434782608	1.1656565656565656	-180.0	-0.5908183632734532	-465.0	15.53817904093768	49.0	11.455317697279076	-806.0	-1049.0	-0.23142741778580264	
9.849906489599745	2027.0	2041.0	0.13427567732442913	0.5094803758861091	1256.0	9.966891477621092	-16256.0	0.19619865113427343	-320.0	448.0	0.27467811158798283	0.0	10324.0	4315.0634765625	806.0	-0.20652173913043478	1.1717171717171717	-177.0	-0.5768463073852296	-472.0	11.73299303842473	5.0	9.35455999750983	-650.0	-802.0	0.4758259631518744	
9.996925941965834	2026.0	2034.0	0.21641434645592275	0.5238201498721693	1244.0	10.084610668301655	-16448.0	0.3139178418148375	-512.0	512.0	0.3139178418148375	0.0	10964.0	4334.5947265625	800.0	-0.21956521739130436	1.1696969696969697	-178.0	-0.6127744510978045	-454.0	8.726285001023797	-63.0	6.928754907194373	-477.0	-607.0	1.5401135758452753	
9.984852989314918	2025.0	2032.0	0.24080262249128148	0.5359914958770979	1245.0	10.123850398528509	-16512.0	0.3531575720416922	-576.0	576.0	0.3531575720416922	0.0	11604.0	4354.1259765625	805.0	-0.20869565217391306	1.1717171717171717	-177.0	-0.5848303393213574	-468.0	9.336671397268827	-64.0	5.026593184229091	-353.0	-648.0	1.5492188373581104	
9.81441813621546	2027.0	2032.0	0.24472654944934225	0.5102300010735153	1259.0	9.888412017167381	-16128.0	0.27467811158798283	-448.0	384.0	0.23543838136112813	0.0	12244.0	4373.6572265625	811.0	-0.1956521739130435	1.1515151515151516	-187.0	-0.6007984031936129	-460.0	8.157684693871524	-75.0	3.602708268763824	-253.0	-572.0	1.7283090846202205	
10.01141448082893	2028.0	2017.0	0.42387918588457746	0.5019432981129182	1243.0	10.084610668301655	-16448.0	0.47087676272225626	-768.0	512.0	0.3139178418148375	0.0	12884.0	4393.1884765625	808.0	-0.20217391304347826	1.1555555555555554	-185.0	-0.6107784431137725	-455.0	6.703046561106458	-157.0	2.694544911365278	-189.0	-477.0	2.990003754921255	
9.645655412082377	2021.0	2010.0	0.51492841589784	0.5835335491231756	1273.0	9.692213366033108	-15808.0	0.47087676272225626	-768.0	640.0	0.39239730226854685	0.0	13524.0	4412.7197265625	813.0	-0.19130434782608696	1.1676767676767676	-179.0	-0.5908183632734532	-465.0	7.4912830607052365	-257.0	1.7242744354488835	-132.0	-528.0	4.503033937453784	
9.668945823884997	2018.0	2016.0	0.44057919614979446	0.6191675393569742	1271.0	9.692213366033108	-15808.0	0.627835683629675	-1024.0	704.0	0.4316370324954016	0.0	14164.0	4432.2509765625	806.0	-0.20652173913043478	1.1575757575757575	-184.0	-0.6227544910179642	-449.0	6.417810617483179	-280.0	-0.0740747427077395	-8.0	-459.0	4.863578547817564	
9.900712969991638	2022.0	2019.0	0.4002840483960194	0.5728894882561657	1252.0	9.966891477621092	-16256.0	0.5493562231759657	-896.0	576.0	0.3531575720416922	0.0	14804.0	4451.7822265625	812.0	-0.1934782608695652	1.1737373737373737	-176.0	-0.6167664670658684	-452.0	9.256159658684876	-329.0	-0.9161263755801	33.0	-644.0	5.580442205694521	
9.632983420132422	2022.0	2015.0	0.45446183755022274	0.5707539706491155	1274.0	9.652973635806253	-15744.0	0.47087676272225626	-768.0	576.0	0.3531575720416922	0.0	15444.0	4471.3134765625	817.0	-0.1826086956521739	1.1737373737373737	-176.0	-0.5848303393213574	-468.0	12.323128188724729	-424.0	-1.082434535840076	26.0	-843.0	6.994639440546214	
9.43670894496918	2020.0	2023.0	0.3604024904973313	0.5919470179691227	1290.0	9.574494175352545	-15616.0	0.47087676272225626	-768.0	640.0	0.39239730226854685	0.0	16084.0	4490.8447265625	818.0	-0.18043478260869567	1.1737373737373737	-176.0	-0.5908183632734532	-465.0	10.103958304223486	-488.0	-1.4316832892874236	57.0	-698.0	7.990215169809477	
9.508530351339166	2020.0	2034.0	0.22483247062921666	0.5913095318341416	1284.0	9.45677498467198	-15424.0	0.27467811158798283	-448.0	704.0	0.4316370324954016	0.0	16724.0	4510.3759765625	816.0	-0.1847826086956522	1.1656565656565656	-180.0	-0.6327345309381238	-444.0	0.7885860542689774	-521.0	-1.8678771924349074	128.0	-91.0	8.585270032993433	
10.033724410201597	2018.0	2024.0	0.335670674800713	0.6217662400066494	1241.0	10.084610668301655	-16448.0	0.39239730226854685	-640.0	704.0	0.4316370324954016	0.0	17364.0	4529.9072265625	819.0	-0.1782608695652174	1.1777777777777778	-174.0	-0.5868263473053893	-467.0	-3.745665937476449	-533.0	-1.1847810403344143	103.0	205.0	8.81312205861431	
9.888780117728377	2030.0	2025.0	0.3292962687037321	0.47567473976793545	1253.0	10.006131207847945	-16320.0	0.47087676272225626	-768.0	448.0	0.27467811158798283	0.0	18004.0	4549.4384765625	820.0	-0.17608695652173914	1.1555555555555554	-185.0	-0.6067864271457086	-457.0	-0.786082304669596	-372.0	-2.0574389842713576	154.0	10.0	6.3348570207653285	
9.702988279589263	2019.0	2038.0	0.17189355660107056	0.6047729147474453	1268.0	9.849172286940528	-16064.0	0.23543838136112813	-384.0	704.0	0.4316370324954016	0.0	18644.0	4568.9697265625	822.0	-0.17173913043478262	1.1656565656565656	-180.0	-0.6207584830339322	-450.0	0.04736298535562326	-347.0	-2.744915312151243	197.0	-45.0	5.946294430982946	
9.569004992067581	2020.0	2038.0	0.17484039349705102	0.591414357470104	1279.0	9.692213366033108	-15808.0	0.23543838136112813	-384.0	576.0	0.3531575720416922	0.0	19284.0	4588.5009765625	819.0	-0.1782608695652174	1.1737373737373737	-176.0	-0.5868263473053893	-467.0	-1.1844897843095352	-234.0	-2.965245705937407	222.0	34.0	4.239981779972373	
9.726744106641943	2008.0	2032.0	0.24191981294101694	0.7382408560632993	1266.0	9.770692826486817	-15936.0	0.3139178418148375	-512.0	896.0	0.5493562231759657	0.0	19924.0	4608.0322265625	819.0	-0.1782608695652174	1.1656565656565656	-180.0	-0.5908183632734532	-465.0	-2.8111492033972545	-268.0	-1.9281868848833557	159.0	141.0	4.773358640322947	
9.728325787150498	2014.0	2025.0	0.3286821473189352	0.666835139585658	1266.0	9.809932556713672	-16000.0	0.4316370324954016	-704.0	704.0	0.4316370324954016	0.0	20564.0	4627.5634765625	815.0	-0.18695652173913044	1.183838383838384	-171.0	-0.6147704590818364	-453.0	-0.39407221598926373	-145.0	0.6920566325422455	-22.0	-16.0	2.8784654369887908	
9.730877156191221	2022.0	2012.0	0.4890628297370561	0.5720789179315717	1266.0	9.849172286940528	-16064.0	0.5885959534028203	-960.0	640.0	0.39239730226854685	0.0	21204.0	4647.0947265625	818.0	-0.18043478260869567	1.1717171717171717	-177.0	-0.6387225548902197	-441.0	1.2353992709610928	-129.0	2.732307293336692	-165.0	-121.0	2.618824714514724	
9.668939347546322	2015.0	2013.0	0.4764346301724246	0.6556706072470668	1271.0	9.809932556713672	-16000.0	0.5885959534028203	-960.0	832.0	0.510116492949111	0.0	21844.0	4666.6259765625	820.0	-0.17608695652173914	1.1737373737373737	-176.0	-0.5888223552894213	-466.0	2.298224950523472	-209.0	3.4342531306651645	-220.0	-189.0	3.824926495741914	
9.840111181552917	2019.0	2013.0	0.47394131321057054	0.609164621333177	1257.0	9.927651747394236	-16192.0	0.627835683629675	-1024.0	640.0	0.39239730226854685	0.0	22484.0	4686.1572265625	818.0	-0.18043478260869567	1.1737373737373737	-176.0	-0.62874251497006	-446.0	0.675702311811053	-234.0	3.4869940695998856	-217.0	-83.0	4.221379859011168	
9.7310107802402	2028.0	2017.0	0.42954220803204035	0.4991958913285054	1266.0	9.809932556713672	-16000.0	0.5885959534028203	-960.0	512.0	0.3139178418148375	0.0	23124.0	4705.6884765625	816.0	-0.1847826086956522	1.1696969696969697	-178.0	-0.5908183632734532	-465.0	-0.23857052216067293	-284.0	3.385276674160614	-208.0	-23.0	4.990978861115144	
9.680895946384723	2018.0	2018.0	0.41595248511506794	0.6190407734716242	1270.0	9.770692826486817	-15936.0	0.510116492949111	-832.0	576.0	0.3531575720416922	0.0	23764.0	4725.2197265625	815.0	-0.18695652173913044	1.1494949494949496	-188.0	-0.6427145708582835	-439.0	-1.9608166103729943	-425.0	2.4448527905913973	-143.0	90.0	7.152688014012476	
9.875843036460019	2020.0	2021.0	0.3759191224252698	0.5964935252033107	1254.0	9.927651747394236	-16192.0	0.5493562231759657	-896.0	704.0	0.4316370324954016	0.0	24404.0	4744.7509765625	819.0	-0.1782608695652174	1.1636363636363636	-181.0	-0.6167664670658684	-452.0	-2.9689962061267394	-459.0	2.4043826573207148	-137.0	156.0	7.6798800761297095	
9.741866225277015	2024.0	2024.0	0.3430105252986201	0.5466319000358767	1265.0	9.849172286940528	-16064.0	0.47087676272225626	-768.0	512.0	0.3139178418148375	0.0	25044.0	4764.2822265625	819.0	-0.1782608695652174	1.1737373737373737	-176.0	-0.6007984031936129	-460.0	0.25094816654724594	-363.0	3.5580179006427826	-225.0	-54.0	6.187604586775593	
9.729549771103278	2022.0	2023.0	0.3549701199943665	0.5707247169832654	1266.0	9.731453096259962	-15872.0	0.3139178418148375	-512.0	576.0	0.3531575720416922	0.0	25684.0	4783.8134765625	822.0	-0.17173913043478262	1.1575757575757575	-184.0	-0.6207584830339322	-450.0	2.314240765276701	-351.0	4.411218363375661	-291.0	-188.0	5.984462155084875	
9.705886551287971	2020.0	2015.0	0.4525076574260621	0.595559845701598	1268.0	9.770692826486817	-15936.0	0.5493562231759657	-896.0	704.0	0.4316370324954016	0.0	26324.0	4803.3447265625	818.0	-0.18043478260869567	1.1737373737373737	-176.0	-0.6227544910179642	-449.0	3.4043809984511557	-409.0	5.109654634442858	-345.0	-258.0	6.855690030319671	
9.526059421068187	2033.0	2003.0	0.6055835438143401	0.43866582723918657	1283.0	9.45677498467198	-15424.0	0.5493562231759657	-896.0	384.0	0.23543838136112813	0.0	26964.0	4822.8759765625	816.0	-0.1847826086956522	1.1494949494949496	-188.0	-0.6646706586826349	-428.0	2.6549825593638574	-381.0	4.264304257699971	-284.0	-210.0	6.437328501402559	
9.633114885401843	2027.0	2019.0	0.4068930271860836	0.5100386333427467	1274.0	9.692213366033108	-15808.0	0.4316370324954016	-704.0	512.0	0.3139178418148375	0.0	27604.0	4842.4072265625	822.0	-0.17173913043478262	1.1595959595959595	-183.0	-0.62874251497006	-446.0	-3.878972705675309	-483.0	3.1277789298986884	-182.0	216.0	8.05399885253204	
10.024825612465582	2034.0	2013.0	0.4738245628875246	0.43028770657280807	1242.0	10.084610668301655	-16448.0	0.627835683629675	-1024.0	384.0	0.23543838136112813	0.0	28244.0	4861.9384765625	818.0	-0.18043478260869567	1.1676767676767676	-179.0	-0.6327345309381238	-444.0	-7.125835352977889	-476.0	2.383506381655842	-117.0	427.0	7.980003600678069	
10.012513475850962	2034.0	2014.0	0.46188053490151765	0.43004514492680185	1243.0	10.123850398528509	-16512.0	0.47087676272225626	-768.0	384.0	0.23543838136112813	0.0	28884.0	4881.4697265625	819.0	-0.1782608695652174	1.1636363636363636	-181.0	-0.6007984031936129	-460.0	-5.35873237651827	-486.0	3.978570295338621	-232.0	313.0	8.114423825666323	
9.791741875168787	2035.0	2026.0	0.32026794419422666	0.41437311024182283	1261.0	9.849172286940528	-16064.0	0.39239730226854685	-640.0	384.0	0.23543838136112813	0.0	29524.0	4901.0009765625	822.0	-0.17173913043478262	1.1515151515151516	-187.0	-0.6087824351297406	-456.0	-1.8086509776698947	-474.0	4.638335235094467	-292.0	82.0	7.896413505974419	
9.82819559952612	2035.0	2027.0	0.30733904279126956	0.41460835847136657	1258.0	9.927651747394236	-16192.0	0.3531575720416922	-576.0	384.0	0.23543838136112813	0.0	30164.0	4920.5322265625	816.0	-0.1847826086956522	1.1595959595959595	-183.0	-0.6407185628742516	-440.0	-4.2919159368428215	-494.0	3.104850252334444	-179.0	243.0	8.225428665071853	
10.096644860056008	2033.0	2023.0	0.3502063543602867	0.4418179097345243	1236.0	10.123850398528509	-16512.0	0.39239730226854685	-640.0	320.0	0.19619865113427343	0.0	30804.0	4940.0634765625	819.0	-0.1782608695652174	1.1737373737373737	-176.0	-0.6147704590818364	-453.0	-6.03256783680141	-515.0	2.1487561930553807	-108.0	356.0	8.562226819052425	
10.133221414564533	2034.0	2024.0	0.33751588795669746	0.4300085778444893	1233.0	10.241569589209073	-16704.0	0.4316370324954016	-704.0	384.0	0.23543838136112813	0.0	31444.0	4959.5947265625	820.0	-0.17608695652173914	1.1616161616161615	-182.0	-0.6307385229540919	-445.0	-5.768654011246054	-505.0	2.6012390571787463	-139.0	339.0	8.40749642604402	
9.938037299305087	2034.0	2025.0	0.32926513528425316	0.4279742291651704	1249.0	10.0453709380748	-16384.0	0.4316370324954016	-704.0	384.0	0.23543838136112813	0.0	32084.0	4979.1259765625	816.0	-0.1847826086956522	1.1757575757575758	-175.0	-0.6367265469061877	-442.0	-1.1252357002544313	-476.0	3.884905125586409	-245.0	37.0	7.919997604150834	
9.889639928786703	2037.0	2025.0	0.3309653136993066	0.3913626789308841	1253.0	10.0453709380748	-16384.0	0.5493562231759657	-896.0	256.0	0.15695892090741875	0.0	32724.0	4998.6572265625	816.0	-0.1847826086956522	1.1717171717171717	-177.0	-0.6087824351297406	-456.0	-1.9267635199061428	-504.0	3.1140620389030484	-191.0	89.0	8.353868395655336	
9.766270743558572	2034.0	2034.0	0.22299997518137782	0.42519391200667656	1263.0	9.849172286940528	-16064.0	0.3139178418148375	-512.0	320.0	0.19619865113427343	0.0	33364.0	5018.1884765625	818.0	-0.18043478260869567	1.1656565656565656	-180.0	-0.6546906187624751	-433.0	-2.629063088710917	-528.0	3.118356320939335	-189.0	135.0	8.725910402750227	
9.90122371961242	2035.0	2028.0	0.29367148632560003	0.4152019641075729	1252.0	9.927651747394236	-16192.0	0.39239730226854685	-640.0	384.0	0.23543838136112813	0.0	34004.0	5037.7197265625	814.0	-0.1891304347826087	1.1434343434343435	-191.0	-0.6546906187624751	-433.0	-3.087453283343771	-548.0	3.018152948120546	-181.0	165.0	9.03467681420226	
10.084337041000506	2035.0	2026.0	0.3143587036925263	0.417239969495123	1237.0	10.123850398528509	-16512.0	0.3531575720416922	-576.0	320.0	0.19619865113427343	0.0	34644.0	5057.2509765625	824.0	-0.1673913043478261	1.1555555555555554	-185.0	-0.6167664670658684	-452.0	-0.2846896327163413	-536.0	4.149721308100096	-269.0	-17.0	8.824139671992564	
9.889271438333134	2034.0	2025.0	0.3302500087012032	0.4274964192896204	1253.0	10.123850398528509	-16512.0	0.4316370324954016	-704.0	384.0	0.23543838136112813	0.0	35284.0	5076.7822265625	820.0	-0.17608695652173914	1.1555555555555554	-185.0	-0.6127744510978045	-454.0	2.5516891763785305	-476.0	4.768421439030326	-321.0	-202.0	7.883228355384505	
9.792597368667998	2040.0	2024.0	0.3458406118715546	0.35439642799816656	1261.0	9.809932556713672	-16000.0	0.4316370324954016	-704.0	64.0	0.03923973022685469	0.0	35924.0	5096.3134765625	819.0	-0.1782608695652174	1.1656565656565656	-180.0	-0.6447105788423154	-438.0	-0.49291788186880553	-500.0	3.8262950449704958	-245.0	-4.0	8.278693437373823	
10.121042901998893	2040.0	2030.0	0.2660512382656746	0.35688298959541664	1234.0	10.163090128755364	-16576.0	0.3531575720416922	-576.0	128.0	0.07847946045370938	0.0	36564.0	5115.8447265625	821.0	-0.17391304347826086	1.1696969696969697	-178.0	-0.6307385229540919	-445.0	-2.9283517895960554	-476.0	3.140836788013282	-187.0	154.0	7.938028765044251	
10.060217041053376	2045.0	2034.0	0.21971351967272312	0.2955703899446104	1239.0	10.163090128755364	-16576.0	0.3139178418148375	-512.0	64.0	0.03923973022685469	0.0	37204.0	5135.3759765625	816.0	-0.1847826086956522	1.1474747474747475	-189.0	-0.6546906187624751	-433.0	-1.104590887835911	-474.0	2.910172233051917	-180.0	35.0	7.889372905076078	
9.937817544357408	2044.0	2037.0	0.18536652919499694	0.3060511178439577	1249.0	10.0453709380748	-16384.0	0.27467811158798283	-448.0	192.0	0.11771919068056406	0.0	37844.0	5154.9072265625	818.0	-0.18043478260869567	1.1737373737373737	-176.0	-0.6487025948103793	-436.0	-0.7890262901464691	-492.0	1.9627156380748447	-119.0	14.0	8.159981517654318	
9.9758270438686	2038.0	2019.0	0.40262169826047883	0.38089292115623047	1246.0	9.927651747394236	-16192.0	0.4316370324954016	-704.0	192.0	0.11771919068056406	0.0	38484.0	5174.4384765625	818.0	-0.18043478260869567	1.1717171717171717	-177.0	-0.6227544910179642	-449.0	-1.003664745033718	-510.0	1.7118313404746508	-102.0	28.0	8.435892160758323	
9.963277882069834	2040.0	2024.0	0.34239355491222945	0.3560687625625916	1247.0	10.0453709380748	-16384.0	0.510116492949111	-832.0	128.0	0.07847946045370938	0.0	39124.0	5193.9697265625	824.0	-0.1673913043478261	1.1535353535353536	-186.0	-0.6467065868263474	-437.0	-0.5281830812451306	-439.0	1.2271791093366193	-69.0	-4.0	7.351289435375189	
10.084604289098467	2047.0	2036.0	0.19531746028249464	0.2714739162889903	1237.0	10.123850398528509	-16512.0	0.3531575720416922	-576.0	192.0	0.11771919068056406	0.0	39764.0	5213.5009765625	819.0	-0.1782608695652174	1.1717171717171717	-177.0	-0.656686626746507	-432.0	-0.8348601707013514	-423.0	1.4981377350369696	-85.0	16.0	7.111010198665189	
9.876140507471794	2046.0	2045.0	0.08955252024296403	0.28037982184341265	1254.0	10.006131207847945	-16320.0	0.23543838136112813	-384.0	64.0	0.03923973022685469	0.0	40404.0	5233.0322265625	822.0	-0.17173913043478262	1.1696969696969697	-178.0	-0.6347305389221558	-443.0	0.8345644319087744	-400.0	1.5008857043694488	-92.0	-93.0	6.744506066707529	
9.901740945571877	2051.0	2040.0	0.15120349023255045	0.22101137206888763	1252.0	9.927651747394236	-16192.0	0.27467811158798283	-448.0	0.0	0.0	0.0	41044.0	5252.5634765625	823.0	-0.16956521739130434	1.1595959595959595	-183.0	-0.6267465069860281	-447.0	-0.03001114302576927	-403.0	0.9445424156546953	-51.0	-37.0	6.7987791988827295	
9.914050923406938	2050.0	2038.0	0.1750993295594342	0.2334216230115914	1251.0	10.006131207847945	-16320.0	0.3139178418148375	-512.0	0.0	0.0	0.0	41684.0	5272.0947265625	823.0	-0.16956521739130434	1.1595959595959595	-183.0	-0.6526946107784432	-434.0	0.4619434527392212	-410.0	0.9210363244044983	-52.0	-69.0	6.900323531252076	
9.805536608715915	2051.0	2029.0	0.2872659468091402	0.2214099532660939	1260.0	9.849172286940528	-16064.0	0.39239730226854685	-640.0	-192.0	-0.11771919068056406	0.0	42324.0	5291.6259765625	824.0	-0.1673913043478261	1.1717171717171717	-177.0	-0.6307385229540919	-445.0	2.354521954481897	-375.0	1.9350434174580524	-127.0	-192.0	6.349078354599668	
9.829305388445942	2046.0	2029.0	0.2855813351038262	0.2818717588017627	1258.0	9.888412017167381	-16128.0	0.39239730226854685	-640.0	0.0	0.0	0.0	42964.0	5311.1572265625	822.0	-0.17173913043478262	1.1595959595959595	-183.0	-0.656686626746507	-432.0	2.0525210920709966	-327.0	1.6254441084393763	-103.0	-173.0	5.622060340410089	
9.864785106711995	2042.0	2034.0	0.22293770834242002	0.3297928908011465	1255.0	9.849172286940528	-16064.0	0.27467811158798283	-448.0	192.0	0.11771919068056406	0.0	43604.0	5330.6884765625	824.0	-0.1673913043478261	1.1717171717171717	-177.0	-0.6526946107784432	-434.0	0.8444043848054167	-288.0	1.1185626133333422	-62.0	-95.0	5.040985613946623	
9.915604539781237	2043.0	2018.0	0.4172352113687498	0.3201958673910179	1251.0	10.006131207847945	-16320.0	0.5493562231759657	-896.0	128.0	0.07847946045370938	0.0	44244.0	5350.2197265625	822.0	-0.17173913043478262	1.1717171717171717	-177.0	-0.62874251497006	-446.0	1.657452526132239	-240.0	1.8108161635195876	-110.0	-148.0	4.302817109719666	
9.829421742258457	2044.0	2026.0	0.3216752041258242	0.3063302465722765	1258.0	9.888412017167381	-16128.0	0.47087676272225626	-768.0	128.0	0.07847946045370938	0.0	44884.0	5369.7509765625	828.0	-0.15869565217391304	1.1555555555555554	-185.0	-0.656686626746507	-432.0	3.6443050063735822	-242.0	2.4809097032555676	-164.0	-277.0	4.313366835867822	
9.865509134941782	2042.0	2028.0	0.2960791863838871	0.330531545863859	1255.0	9.966891477621092	-16256.0	0.39239730226854685	-640.0	192.0	0.11771919068056406	0.0	45524.0	5389.2822265625	821.0	-0.17391304347826086	1.1676767676767676	-179.0	-0.658682634730539	-431.0	3.987833334011821	-249.0	2.962486703955148	-198.0	-299.0	4.4163954309184374	
9.64677599489999	2037.0	2017.0	0.433411651506013	0.389958502970084	1273.0	9.731453096259962	-15872.0	0.510116492949111	-832.0	256.0	0.15695892090741875	0.0	46164.0	5408.8134765625	830.0	-0.15434782608695652	1.1575757575757575	-184.0	-0.6367265469061877	-442.0	5.523112185242964	-228.0	3.3331745775006043	-229.0	-399.0	4.081651007425137	
9.841354594521718	2036.0	2020.0	0.3926629838181114	0.4035449950605066	1257.0	9.888412017167381	-16128.0	0.4316370324954016	-704.0	448.0	0.27467811158798283	0.0	46804.0	5428.3447265625	829.0	-0.1565217391304348	1.1515151515151516	-187.0	-0.6347305389221558	-443.0	3.626771948475881	-291.0	3.0520202680787265	-204.0	-275.0	5.058789314735773	
9.743350980989078	2041.0	2029.0	0.2861126885866499	0.34125849211744397	1265.0	9.888412017167381	-16128.0	0.39239730226854685	-640.0	320.0	0.19619865113427343	0.0	47444.0	5447.8759765625	828.0	-0.15869565217391304	1.1696969696969697	-178.0	-0.6546906187624751	-433.0	4.2728963185889	-285.0	3.2955577732473214	-223.0	-317.0	4.961073318182932	
9.560845334018264	2043.0	2028.0	0.3024730802391927	0.3155006540220926	1280.0	9.692213366033108	-15808.0	0.3531575720416922	-576.0	192.0	0.11771919068056406	0.0	48084.0	5467.4072265625	831.0	-0.15217391304347827	1.1696969696969697	-178.0	-0.6427145708582835	-439.0	5.713654718129966	-352.0	3.619288148557403	-254.0	-410.0	5.9656771410316285	
9.731278028338162	2040.0	2027.0	0.3105009646220086	0.35342983812237266	1266.0	9.731453096259962	-15872.0	0.39239730226854685	-640.0	192.0	0.11771919068056406	0.0	48724.0	5486.9384765625	831.0	-0.15217391304347827	1.1616161616161615	-182.0	-0.658682634730539	-431.0	4.257840691976917	-452.0	3.854678851602152	-267.0	-314.0	7.501147828821676	
9.768938466411807	2040.0	2018.0	0.41947452662149665	0.3548961781231041	1263.0	9.849172286940528	-16064.0	0.5493562231759657	-896.0	256.0	0.15695892090741875	0.0	49364.0	5506.4697265625	832.0	-0.15	1.1636363636363636	-181.0	-0.6686626746506987	-426.0	3.10121525651081	-491.0	4.241288828627918	-289.0	-238.0	8.105869976712459	
9.633283049923756	2049.0	2040.0	0.1561434240270402	0.24247257799251998	1274.0	9.770692826486817	-15936.0	0.3139178418148375	-512.0	64.0	0.03923973022685469	0.0	50004.0	5526.0009765625	832.0	-0.15	1.1717171717171717	-177.0	-0.6407185628742516	-440.0	3.3187479262070183	-437.0	3.794232649651774	-258.0	-253.0	7.282401874350098	
9.840665106764861	2052.0	2042.0	0.12829252432261684	0.20812331125063382	1257.0	9.849172286940528	-16064.0	0.15695892090741875	-256.0	-128.0	-0.07847946045370938	0.0	50644.0	5545.5322265625	837.0	-0.1391304347826087	1.1515151515151516	-187.0	-0.6686626746506987	-426.0	0.29753200901663174	-408.0	2.927699089426363	-185.0	-57.0	6.871549394738732	
9.973422251554208	2042.0	2043.0	0.11100952609208181	0.3297599804270652	1246.0	10.084610668301655	-16448.0	0.23543838136112813	-384.0	192.0	0.11771919068056406	0.0	51284.0	5565.0634765625	834.0	-0.14565217391304347	1.1555555555555554	-185.0	-0.6826347305389222	-419.0	-2.0747708810267915	-426.0	1.7775129741442233	-98.0	97.0	7.1690366821942995	
9.73033856271981	2052.0	2047.0	0.0695572578095319	0.20643269314505244	1266.0	9.809932556713672	-16000.0	0.19619865113427343	-320.0	-192.0	-0.11771919068056406	0.0	51924.0	5584.5947265625	842.0	-0.1282608695652174	1.1575757575757575	-184.0	-0.6506986027944113	-435.0	0.35258679013969957	-246.0	1.6880895761568369	-96.0	-63.0	4.407120519931302	
9.913057488299632	2037.0	2033.0	0.23295090626887555	0.39061671045170904	1251.0	10.006131207847945	-16320.0	0.3139178418148375	-512.0	320.0	0.19619865113427343	0.0	52564.0	5604.1259765625	838.0	-0.13695652173913045	1.1434343434343435	-191.0	-0.6526946107784432	-434.0	-0.9430565971813782	-245.0	1.0592345410233504	-48.0	21.0	4.404867828329229	
10.123475758447542	2049.0	2019.0	0.40228986300267433	0.24983596946751419	1234.0	10.241569589209073	-16704.0	0.47087676272225626	-768.0	128.0	0.07847946045370938	0.0	53204.0	5623.6572265625	836.0	-0.14130434782608695	1.1656565656565656	-180.0	-0.6646706586826349	-428.0	-1.5979952940310116	-130.0	1.774480401435434	-88.0	63.0	2.66236778563993	
9.904285838273925	2056.0	2024.0	0.34743960667330154	0.16275821830489393	1252.0	10.0453709380748	-16384.0	0.47087676272225626	-768.0	-64.0	-0.03923973022685469	0.0	53844.0	5643.1884765625	836.0	-0.14130434782608695	1.1636363636363636	-181.0	-0.6387225548902197	-441.0	1.8887190375774985	-36.0	1.9488114856975762	-112.0	-165.0	1.1978428476470386	
10.001686094948408	2051.0	2020.0	0.39303867020354044	0.22442917536236284	1244.0	10.084610668301655	-16448.0	0.47087676272225626	-768.0	0.0	0.0	0.0	54484.0	5662.7197265625	835.0	-0.14347826086956522	1.1515151515151516	-187.0	-0.6806387225548903	-420.0	0.345764862096647	-66.0	0.6736323046612414	-21.0	-65.0	1.6695461536604026	
9.977910838879703	2053.0	2017.0	0.43057871593148467	0.20047043771678655	1246.0	10.0453709380748	-16384.0	0.47087676272225626	-768.0	0.0	0.0	0.0	55124.0	5682.2509765625	834.0	-0.14565217391304347	1.1595959595959595	-183.0	-0.6726546906187626	-424.0	-0.4153975192814812	-144.0	0.10944159249348377	17.0	-15.0	2.863469564546427	
9.881837967293162	2058.0	2010.0	0.5190723621439353	0.140153681607624	1254.0	10.0453709380748	-16384.0	0.627835683629675	-1024.0	-128.0	-0.07847946045370938	0.0	55764.0	5701.7822265625	838.0	-0.13695652173913045	1.1696969696969697	-178.0	-0.6407185628742516	-440.0	0.26934929125269946	-112.0	0.006288376348040137	22.0	-60.0	2.36993008123196	
9.722137887858887	2056.0	2018.0	0.4242743600283313	0.16170508633429387	1267.0	9.849172286940528	-16064.0	0.5493562231759657	-896.0	-192.0	-0.11771919068056406	0.0	56404.0	5721.3134765625	836.0	-0.14130434782608695	1.1474747474747475	-189.0	-0.6926147704590819	-414.0	-0.07354352262172607	-134.0	-0.8527955316158551	80.0	-38.0	2.707959769826978	
9.928528668372245	2047.0	2016.0	0.44232322569247245	0.27238321773582785	1250.0	9.966891477621092	-16256.0	0.627835683629675	-1024.0	128.0	0.07847946045370938	0.0	57044.0	5740.8447265625	833.0	-0.14782608695652175	1.1434343434343435	-191.0	-0.6906187624750499	-415.0	-2.892364597387451	-239.0	-1.934876715406559	161.0	146.0	4.333106155479578	
10.001802448760921	2049.0	2017.0	0.4291325392255385	0.2488876631328766	1244.0	9.966891477621092	-16256.0	0.47087676272225626	-768.0	0.0	0.0	0.0	57684.0	5760.3759765625	839.0	-0.13478260869565217	1.1575757575757575	-184.0	-0.6467065868263474	-437.0	-3.4064140299447727	-260.0	-1.4770919316041569	132.0	180.0	4.65763828478614	
9.721409542069983	2054.0	2022.0	0.37503650466861777	0.18530180986497635	1267.0	9.888412017167381	-16128.0	0.47087676272225626	-768.0	64.0	0.03923973022685469	0.0	58324.0	5779.9072265625	837.0	-0.1391304347826087	1.1535353535353536	-186.0	-0.6487025948103793	-436.0	2.140233610939532	-194.0	0.14103147484954592	1.0	-181.0	3.598369527008476	
9.744824942803351	2053.0	2029.0	0.28897390857906335	0.19672353068249882	1265.0	9.849172286940528	-16064.0	0.4316370324954016	-704.0	-128.0	-0.07847946045370938	0.0	58964.0	5799.4384765625	833.0	-0.14782608695652175	1.1757575757575758	-175.0	-0.6626746506986029	-429.0	1.052942797964676	-221.0	1.5046288860062444	-86.0	-109.0	4.019888822970923	
9.892462863484504	2059.0	2024.0	0.34840113002564244	0.12650502547727016	1253.0	9.966891477621092	-16256.0	0.47087676272225626	-768.0	-192.0	-0.11771919068056406	0.0	59604.0	5818.9697265625	834.0	-0.14565217391304347	1.1575757575757575	-184.0	-0.6726546906187626	-424.0	1.1959349197100781	-217.0	2.0518327330894697	-123.0	-118.0	3.957622399852329	
9.769572046183779	2054.0	2027.0	0.31310039955044505	0.18516407385493258	1263.0	9.809932556713672	-16000.0	0.4316370324954016	-704.0	0.0	0.0	0.0	60244.0	5838.5009765625	839.0	-0.13478260869565217	1.1616161616161615	-182.0	-0.6826347305389222	-419.0	0.360287594987721	-245.0	0.9385367777521292	-46.0	-64.0	4.391834386407537	
9.756544516457605	2058.0	2038.0	0.18020764815946416	0.1355120999594237	1264.0	9.849172286940528	-16064.0	0.27467811158798283	-448.0	-64.0	-0.03923973022685469	0.0	60884.0	5858.0322265625	835.0	-0.14347826086956522	1.1757575757575758	-175.0	-0.6726546906187626	-424.0	-2.0183092618055367	-187.0	0.3147845839406751	9.0	90.0	3.5334910774089296	
9.866263386085384	2056.0	2036.0	0.20189530565307998	0.16092255077280632	1255.0	9.888412017167381	-16128.0	0.3531575720416922	-576.0	-192.0	-0.11771919068056406	0.0	61524.0	5877.5634765625	839.0	-0.13478260869565217	1.1676767676767676	-179.0	-0.6506986027944113	-435.0	-2.9590086246341314	-238.0	-0.9101396712186152	93.0	151.0	4.318563470276759	
9.852847936889617	2048.0	2038.0	0.17585355133188618	0.2569135209063114	1256.0	9.927651747394236	-16192.0	0.27467811158798283	-448.0	-64.0	-0.03923973022685469	0.0	62164.0	5897.0947265625	839.0	-0.13478260869565217	1.1474747474747475	-189.0	-0.6786427145708583	-421.0	-2.4595599537357615	-182.0	-0.7609078201672435	83.0	118.0	3.4618579569518064	
9.901363820000075	2044.0	2036.0	0.19829543059795401	0.305815869614414	1252.0	9.888412017167381	-16128.0	0.27467811158798283	-448.0	128.0	0.07847946045370938	0.0	62804.0	5916.6259765625	834.0	-0.14565217391304347	1.1595959595959595	-183.0	-0.6726546906187626	-424.0	-0.8489454867421429	-123.0	0.04744467019110382	24.0	13.0	2.5484134092400454	
