Device	Device	Device	Device	Device	Device	Device	Device	Device	Device	Device	Device	Device	Device	Device	Device	Device	Device	Device	Device	Device	
Low Noise Accelerometer X	Low Noise Accelerometer X	Low Noise Accelerometer Z	Low Noise Accelerometer Z	Low Noise Accelerometer Y	Low Noise Accelerometer Y	Event_Marker	Timestamp	Timestamp	Magnetometer Z	Magnetometer Z	Magnetometer X	Magnetometer X	Magnetometer Y	Magnetometer Y	Gyroscope Y	Gyroscope Y	Gyroscope Z	Gyroscope Z	Gyroscope X	Gyroscope X	
CAL	UNCAL	CAL	UNCAL	UNCAL	CAL	CAL	UNCAL	CAL	UNCAL	CAL	CAL	UNCAL	UNCAL	CAL	UNCAL	CAL	UNCAL	CAL	CAL	UNCAL	
m/(s^2)	no units	m/(s^2)	no units	no units	m/(s^2)	no units	no units	ms	no units	local_flux	local_flux	no units	no units	local_flux	no units	deg/s	no units	deg/s	deg/s	no units	
10.009374929205508	2200.0	-0.2529832699255433	2081.0	1241.0	-2.037496036588384	0.0	17172.0	524.0478515625	234.0	-0.7175	0.8562753036437247	13.0	-172.0	-0.04251012145748988	-308.0	-9.894479278177092	-670.0	10.511259662196824	3.6803772889650714	508.0	
9.65095929028996	2197.0	-0.3802614471944343	2092.0	1271.0	-2.0074811782096638	0.0	17812.0	543.5791015625	234.0	-0.7175	0.8562753036437247	13.0	-172.0	-0.04251012145748988	-203.0	-8.931029209359231	-813.0	12.688277256050288	2.0909766808004906	445.0	
9.08997400862203	2206.0	-0.5264086616064825	2105.0	1318.0	-2.1244477102543433	0.0	18452.0	563.1103515625	230.0	-0.7275	0.8481781376518218	9.0	-155.0	-0.07692307692307693	12.0	-13.625936687566908	-888.0	14.062595429585233	-1.1943441239610144	752.0	
9.353052398155755	2212.0	-0.40904589871022945	2095.0	1296.0	-2.1917588277275866	0.0	19092.0	582.6416015625	230.0	-0.7275	0.8481781376518218	9.0	-155.0	-0.07692307692307693	63.0	-16.42452974460927	-825.0	13.213368081525799	-1.985405064005979	935.0	
9.829156833117265	2220.0	-0.41765002160668985	2095.0	1256.0	-2.2835554080045752	0.0	19732.0	602.1728515625	230.0	-0.7275	0.8481781376518218	9.0	-155.0	-0.07692307692307693	-116.0	-5.994800428200032	-596.0	9.246573967916534	0.7215895696622865	253.0	
8.89845462385603	2219.0	-0.6307280905876244	2114.0	1334.0	-2.285075798705722	0.0	20372.0	621.7041015625	229.0	-0.73	0.8461538461538461	8.0	-163.0	-0.06072874493927126	-237.0	2.27863587704542	-485.0	7.189845737092115	2.5577048099871558	-288.0	
8.885709776519576	2228.0	-0.7147366337566667	2121.0	1335.0	-2.395317152982227	0.0	21012.0	641.2353515625	229.0	-0.73	0.8461538461538461	8.0	-163.0	-0.06072874493927126	-78.0	-4.236121731151552	-310.0	4.783180882084197	0.09386525979521668	138.0	
9.43685418887717	2210.0	-0.3622001599020352	2091.0	1289.0	-2.1658875095020402	0.0	21652.0	660.7666015625	229.0	-0.73	0.8461538461538461	8.0	-163.0	-0.06072874493927126	-118.0	-5.214864658204619	-140.0	2.201468666510844	0.6818274839644793	202.0	
9.246183303122542	2219.0	-0.38166968774583987	2093.0	1305.0	-2.276617343856221	0.0	22292.0	680.2978515625	229.0	-0.73	0.8461538461538461	8.0	-163.0	-0.06072874493927126	-253.0	-0.3517357394096957	-69.0	0.8942195109162643	2.740260286255396	-116.0	
9.159811928640242	2213.0	-0.6854738026425191	2118.0	1312.0	-2.2112679832724718	0.0	22932.0	699.8291015625	229.0	-0.73	0.8340080971659919	2.0	-163.0	-0.06072874493927126	-108.0	-3.6244074017433863	-93.0	1.4164976241374578	0.5205329369594964	98.0	
9.362635010756682	2209.0	-0.6412608290937347	2114.0	1295.0	-2.1601627218959947	0.0	23572.0	719.3603515625	229.0	-0.73	0.8340080971659919	2.0	-163.0	-0.06072874493927126	7.0	-5.6736504052607435	-117.0	1.8852405994223542	-1.2393952539720188	232.0	
9.450218182587705	2209.0	-0.21627697932480905	2079.0	1288.0	-2.150787213182306	0.0	24212.0	738.8916015625	229.0	-0.73	0.8340080971659919	2.0	-163.0	-0.06072874493927126	50.0	-7.75347912524851	-212.0	3.4361904252670348	-1.8836985530129426	368.0	
9.245704124130208	2226.0	-0.42958758697914945	2097.0	1305.0	-2.361917843028401	0.0	24852.0	758.4228515625	223.0	-0.745	0.854251012145749	12.0	-167.0	-0.05263157894736842	-51.0	-10.383850741703625	-312.0	5.063969472004555	-0.3176279130749522	540.0	
9.61371080600105	2233.0	-0.5336813046569979	2105.0	1274.0	-2.44465699996084	0.0	25492.0	777.9541015625	223.0	-0.745	0.854251012145749	12.0	-167.0	-0.05263157894736842	-99.0	-10.964979354641384	-186.0	3.1418781140188075	0.3996863889351858	578.0	
9.80463031377438	2228.0	-0.4893495749428609	2101.0	1258.0	-2.381620206433402	0.0	26132.0	797.4853515625	223.0	-0.745	0.854251012145749	12.0	-167.0	-0.05263157894736842	-103.0	-9.145129224652088	28.0	-0.22299444461563417	0.427415597981341	459.0	
9.734314419100176	2229.0	-0.3780818995063102	2092.0	1264.0	-2.392146204642498	0.0	26772.0	817.0166015625	223.0	-0.745	0.854251012145749	12.0	-167.0	-0.05263157894736842	-102.0	-2.5080287505734824	179.0	-2.8107858212073684	0.3861932005572988	25.0	
9.62708443440229	2240.0	-0.3867946550091824	2093.0	1273.0	-2.525922880081462	0.0	27412.0	836.5478515625	220.0	-0.7525000000000001	0.8441295546558705	7.0	-168.0	-0.05060728744939271	-93.0	0.7034714788193914	206.0	-3.3531313121940007	0.24266939272430832	-185.0	
9.685232476342287	2221.0	-0.5243714133904207	2104.0	1268.0	-2.2991772721790844	0.0	28052.0	856.0791015625	220.0	-0.7525000000000001	0.8441295546558705	7.0	-168.0	-0.05060728744939271	-68.0	-0.474078605291329	146.0	-2.3793556323958036	-0.13120494193083237	-108.0	
9.660925674945988	2209.0	-0.5740991720680277	2108.0	1270.0	-2.155836582113587	0.0	28692.0	875.6103515625	220.0	-0.7525000000000001	0.8441295546558705	7.0	-168.0	-0.05060728744939271	-3.0	-5.1384003670285985	-29.0	0.5087958921367324	-1.0997148644636259	197.0	
9.694101739968236	2233.0	-0.8279212412716838	2129.0	1267.0	-2.449737889353462	0.0	29332.0	895.1416015625	219.0	-0.755	0.8360323886639677	3.0	-159.0	-0.06882591093117409	179.0	-6.83590763113626	-140.0	2.3118724615132407	-3.874380124548593	308.0	
9.264643609703786	2235.0	-0.9165914105738423	2137.0	1303.0	-2.479902259584318	0.0	29972.0	914.6728515625	219.0	-0.755	0.8360323886639677	3.0	-159.0	-0.06882591093117409	274.0	-2.768007340571953	-148.0	2.286794208269507	-5.332356854602897	42.0	
9.01347361185852	2234.0	-1.0335911951001533	2147.0	1324.0	-2.472705762482213	0.0	30612.0	934.2041015625	219.0	-0.755	0.8360323886639677	3.0	-159.0	-0.06882591093117409	207.0	-5.444257531732681	-116.0	1.8913709898736495	-4.308230681692487	217.0	
9.77390243163346	2249.0	-1.1811854080827848	2158.0	1260.0	-2.648776250110381	0.0	31252.0	953.7353515625	218.0	-0.7575000000000001	0.840080971659919	5.0	-160.0	-0.06680161943319839	190.0	-9.726257837589847	67.0	-0.7546445044805227	-4.073834614447906	497.0	
9.736480258545328	2242.0	-1.3519741454672856	2172.0	1263.0	-2.568228897191362	0.0	31892.0	973.2666015625	218.0	-0.7575000000000001	0.840080971659919	5.0	-160.0	-0.06680161943319839	102.0	2.370393026456645	332.0	-5.327852318348688	-2.769252130671595	-294.0	
9.447894109293625	2239.0	-1.6391604992089788	2196.0	1287.0	-2.54071390744546	0.0	32532.0	992.7978515625	218.0	-0.7575000000000001	0.840080971659919	5.0	-160.0	-0.06680161943319839	102.0	7.906407707600551	285.0	-4.826377355505742	-2.7642373810431655	-656.0	
8.85119087857834	2239.0	-1.7856740469279115	2209.0	1337.0	-2.549611210706992	0.0	33172.0	1012.3291015625	218.0	-0.7575000000000001	0.840080971659919	5.0	-160.0	-0.06680161943319839	17.0	9.328643523474538	72.0	-1.6202112034056964	-1.4278946085815483	-749.0	
8.683683908409082	2222.0	-1.8697043971870784	2216.0	1351.0	-2.3481476103054337	0.0	33812.0	1031.8603515625	218.0	-0.7575000000000001	0.8380566801619433	4.0	-144.0	-0.09919028340080972	-19.0	-4.801957485854107	-151.0	2.369331369900685	-0.8355977711559879	175.0	
9.540414357232198	2225.0	-1.910945229161335	2218.0	1279.0	-2.3765497007699405	0.0	34452.0	1051.3916015625	218.0	-0.7575000000000001	0.8380566801619433	4.0	-144.0	-0.09919028340080972	-45.0	-17.066829790487844	-327.0	5.562893143880028	-0.4047055783049469	977.0	
9.599549661228977	2216.0	-1.9497957818641856	2221.0	1274.0	-2.268301623844271	0.0	35092.0	1070.9228515625	218.0	-0.7575000000000001	0.8380566801619433	4.0	-144.0	-0.09919028340080972	-330.0	-10.185043584645971	-433.0	6.874277160606441	3.9815861044279153	527.0	
9.170442785938494	2206.0	-2.0033404537696717	2226.0	1310.0	-2.153181658324442	0.0	35732.0	1090.4541015625	215.0	-0.765	0.8178137651821863	-6.0	-149.0	-0.08906882591093118	-574.0	-7.998164857011776	-672.0	10.425363846170775	7.7611509838660355	384.0	
8.657397765553862	2186.0	-2.117366301756755	2236.0	1353.0	-1.9196287700663435	0.0	36372.0	1109.9853515625	215.0	-0.765	0.8178137651821863	-6.0	-149.0	-0.08906882591093118	-647.0	-20.9512157822297	-1194.0	18.96096476787568	8.966654300126203	1231.0	
8.978179943789058	2209.0	-2.1820056210941634	2241.0	1326.0	-2.1948221684056795	0.0	37012.0	1129.5166015625	215.0	-0.765	0.8178137651821863	-6.0	-149.0	-0.08906882591093118	-451.0	-46.45970331855024	-1627.0	26.6711222086671	6.036237077541635	2899.0	
9.57193316733086	2290.0	-2.3304927907234836	2253.0	1276.0	-3.167757994020679	0.0	37652.0	1149.0478515625	215.0	-0.765	0.8178137651821863	-6.0	-149.0	-0.08906882591093118	-334.0	-59.9174185655299	-1772.0	29.457531311810087	4.2687965805724515	3779.0	
9.687205594697412	2313.0	-2.7080119588303853	2284.0	1266.0	-3.451264086844091	0.0	38292.0	1168.5791015625	204.0	-0.7925	0.7834008097165992	-23.0	-138.0	-0.11133603238866396	-648.0	-59.71861140847225	-1974.0	32.508306544045006	9.11747220154602	3766.0	
9.301949700714829	2320.0	-3.138363261850658	2320.0	1298.0	-3.548061021241913	0.0	38932.0	1188.1103515625	204.0	-0.7925	0.7834008097165992	-23.0	-138.0	-0.11133603238866396	-850.0	-53.203853800275276	-2099.0	34.139338390141475	12.233368218948216	3340.0	
9.049182929129405	2309.0	-3.4150404203929505	2343.0	1319.0	-3.4235921116466854	0.0	39572.0	1207.6416015625	204.0	-0.7925	0.7834008097165992	-23.0	-138.0	-0.11133603238866396	-900.0	-53.78498241321304	-2020.0	32.93983358141263	12.988597353767174	3378.0	
9.659277853291002	2331.0	-3.119833718518847	2318.0	1268.0	-3.676647269331443	0.0	40212.0	1227.1728515625	182.0	-0.8475	0.742914979757085	-43.0	-129.0	-0.12955465587044535	-992.0	-53.67793240556661	-1553.0	25.738644545849343	14.328277959959031	3371.0	
9.588368103305818	2345.0	-3.067951574180183	2314.0	1274.0	-3.844993422739702	0.0	40852.0	1246.7041015625	182.0	-0.8475	0.742914979757085	-43.0	-129.0	-0.12955465587044535	-1494.0	-33.33843095274507	-951.0	15.588936321953339	21.929711674098773	2041.0	
8.907848629833058	2335.0	-3.262756064313194	2331.0	1331.0	-3.7352127795662464	0.0	41492.0	1266.2353515625	182.0	-0.8475	0.742914979757085	-43.0	-129.0	-0.12955465587044535	-1997.0	-18.259672732833767	-683.0	10.786640768788931	29.59996399860396	1055.0	
8.978513370808555	2320.0	-3.3391391096207195	2337.0	1325.0	-3.5553109014963766	0.0	42132.0	1285.7666015625	177.0	-0.86	0.7125506072874495	-58.0	-116.0	-0.15587044534412955	-2120.0	-11.224957944639854	-292.0	4.472550557431118	31.424194586439743	595.0	
8.704478925889344	2290.0	-3.361631220589414	2339.0	1348.0	-3.197055305032413	0.0	42772.0	1305.2978515625	177.0	-0.86	0.7125506072874495	-58.0	-116.0	-0.15587044534412955	-2162.0	-6.820614772901056	-152.0	2.136650893521371	32.0453039034419	307.0	
9.065082785183352	2288.0	-3.015531005474302	2310.0	1318.0	-3.162430876595002	0.0	43412.0	1324.8291015625	177.0	-0.86	0.7125506072874495	-58.0	-116.0	-0.15587044534412955	-2148.0	-5.551307539379111	118.0	-2.0647602258879063	31.788467021034048	224.0	
8.987354433241608	2272.0	-2.4550328663153813	2264.0	1325.0	-2.9592271129938914	0.0	44052.0	1344.3603515625	177.0	-0.86	0.7125506072874495	-58.0	-116.0	-0.15587044534412955	-2439.0	3.440893102920936	275.0	-4.883831866772515	36.22552104913955	-364.0	
8.986955004814114	2244.0	-2.494975709065	2267.0	1325.0	-2.622680566542797	0.0	44692.0	1363.8916015625	175.0	-0.865	0.7145748987854251	-57.0	-106.0	-0.17611336032388664	-2803.0	9.970943569353112	101.0	-2.52461242193693	41.83450529514537	-791.0	
7.0990290691174325	2213.0	-3.1923311834948183	2327.0	1483.0	-2.282012959484746	0.0	45332.0	1383.4228515625	175.0	-0.865	0.7145748987854251	-57.0	-106.0	-0.17611336032388664	-2620.0	12.846000917571496	-411.0	5.263398317165713	39.10434489309955	-979.0	
8.789184113636576	2293.0	-2.0339695887234472	2230.0	1342.0	-3.2057995988308745	0.0	45972.0	1402.9541015625	175.0	-0.865	0.7145748987854251	-57.0	-106.0	-0.17611336032388664	-2280.0	-16.638629759902127	-85.0	1.4807199201014423	33.84939366536643	949.0	
8.805961372774014	2292.0	-1.5467198654556937	2190.0	1341.0	-3.183838639003061	0.0	46612.0	1422.4853515625	178.0	-0.8575	0.728744939271255	-50.0	-80.0	-0.22874493927125505	-2589.0	-10.552072182290871	237.0	-3.762716634752528	38.538404750178486	551.0	
8.47235941398288	2317.0	-1.5735824112357233	2193.0	1369.0	-3.4889167287836806	0.0	47252.0	1442.0166015625	178.0	-0.8575	0.728744939271255	-50.0	-80.0	-0.22874493927125505	-2867.0	-11.775500841107204	443.0	-6.924864208478202	42.77254973139995	631.0	
8.2781196390472	2298.0	-1.949940857184637	2224.0	1385.0	-3.269470632801413	0.0	47892.0	1461.5478515625	178.0	-0.8575	0.728744939271255	-50.0	-80.0	-0.22874493927125505	-2957.0	-18.90197277871234	248.0	-3.654403879765724	44.18625786391832	1097.0	
8.61113255987271	2290.0	-1.9819821079671993	2226.0	1357.0	-3.1703957864401344	0.0	48532.0	1481.0791015625	178.0	-0.8575	0.728744939271255	-50.0	-80.0	-0.22874493927125505	-2625.0	-30.555130753937913	176.0	-2.0299743982552165	39.10813358423596	1859.0	
9.195479532651994	2318.0	-1.8806181633721026	2217.0	1308.0	-3.4998744354108013	0.0	49172.0	1500.6103515625	173.0	-0.87	0.7064777327935223	-61.0	-72.0	-0.24493927125506074	-2325.0	-38.79798134271296	266.0	-3.038528467953696	34.4947029461015	2398.0	
9.029832410277656	2327.0	-1.7786637341390714	2209.0	1322.0	-3.6079255529896432	0.0	49812.0	1520.1416015625	173.0	-0.87	0.7064777327935223	-61.0	-72.0	-0.24493927125506074	-2225.0	-33.0631595045114	325.0	-4.160017393133546	32.949039691037214	2023.0	
8.94688273157663	2328.0	-1.7402982709084573	2206.0	1329.0	-3.6200359332831256	0.0	50452.0	1539.6728515625	173.0	-0.87	0.7064777327935223	-61.0	-72.0	-0.24493927125506074	-2372.0	-28.857623489830253	377.0	-5.1505731111353565	35.19477323160156	1748.0	
9.195729359007036	2323.0	-1.8556355278679464	2215.0	1308.0	-3.5596132482925897	0.0	51092.0	1559.2041015625	164.0	-0.8925000000000001	0.6578947368421053	-85.0	-36.0	-0.31781376518218624	-2378.0	-32.3291023092216	546.0	-7.611988547364563	35.26222597918801	1975.0	
9.421025890124294	2327.0	-1.9450300351896324	2222.0	1289.0	-3.607340944212188	0.0	51732.0	1578.7353515625	164.0	-0.8925000000000001	0.6578947368421053	-85.0	-36.0	-0.31781376518218624	-2340.0	-32.84905948921854	680.0	-9.646377268063981	34.65879171297227	2009.0	
9.337220486393866	2326.0	-1.9922370748992977	2226.0	1296.0	-3.5970749462726013	0.0	52372.0	1598.2666015625	164.0	-0.8925000000000001	0.6578947368421053	-85.0	-36.0	-0.31781376518218624	-2304.0	-27.45068053219147	693.0	-10.056716613795796	34.10228690782246	1656.0	
9.337826385068226	2323.0	-1.9316472074631745	2221.0	1296.0	-3.5597125116238826	0.0	53012.0	1617.7978515625	162.0	-0.8975	0.659919028340081	-84.0	-34.0	-0.32186234817813764	-2239.0	-27.34363052454504	612.0	-8.805187692948213	33.11741075925281	1649.0	
9.490470403396701	2311.0	-2.14343585080617	2238.0	1283.0	-3.4178435310544453	0.0	53652.0	1637.3291015625	162.0	-0.8975	0.659919028340081	-84.0	-34.0	-0.32186234817813764	-2206.0	-29.943416424529747	520.0	-7.281118086901848	32.62628349459516	1819.0	
9.619455670775075	2319.0	-2.3401472082068207	2254.0	1272.0	-3.5168734476973493	0.0	54292.0	1656.8603515625	162.0	-0.8975	0.659919028340081	-84.0	-34.0	-0.32186234817813764	-2167.0	-27.49655910689708	535.0	-7.60370950511047	32.0246227177462	1659.0	
9.705207898883293	2317.0	-2.0982577307183248	2234.0	1265.0	-3.4870817503243288	0.0	54932.0	1676.3916015625	162.0	-0.8975	0.659919028340081	-84.0	-34.0	-0.32186234817813764	-2304.0	-19.59015139929653	580.0	-8.633086018190228	34.116523213778514	1142.0	
9.54040445817498	2318.0	-1.9119351348832514	2219.0	1279.0	-3.497051525585795	0.0	55572.0	1695.9228515625	159.0	-0.905	0.631578947368421	-98.0	-12.0	-0.36639676113360325	-2578.0	-11.622572258755163	638.0	-9.885878225132092	38.30838381403532	621.0	
9.182096269560047	2303.0	-2.0284682820905076	2229.0	1309.0	-3.322242378849824	0.0	56212.0	1715.4541015625	159.0	-0.905	0.631578947368421	-98.0	-12.0	-0.36639676113360325	-2769.0	-7.401743385838814	422.0	-6.761765995944702	41.270421315029054	345.0	
9.254245516629734	2306.0	-1.9564007179789809	2223.0	1303.0	-3.3562241134101494	0.0	56852.0	1734.9853515625	159.0	-0.905	0.631578947368421	-98.0	-12.0	-0.36639676113360325	-2655.0	-14.268236733445482	167.0	-2.5475615054985443	39.563292222907265	794.0	
9.267498447030638	2314.0	-1.8215838683648606	2212.0	1302.0	-3.449780789282533	0.0	57492.0	1754.5166015625	162.0	-0.8975	0.6052631578947368	-111.0	1.0	-0.39271255060728744	-2490.0	-17.49502982107356	133.0	-1.8702426537599326	37.03822560783404	1005.0	
9.114226851973713	2311.0	-1.6725528978668145	2200.0	1315.0	-3.412188307509888	0.0	58132.0	1774.0478515625	162.0	-0.8975	0.6052631578947368	-111.0	1.0	-0.39271255060728744	-2448.0	-13.503593821685275	227.0	-3.4692269073436672	36.377767451656965	744.0	
8.946739151185866	2310.0	-1.7546563099848025	2207.0	1329.0	-3.403457059989042	0.0	58772.0	1793.5791015625	162.0	-0.8975	0.6052631578947368	-111.0	1.0	-0.39271255060728744	-2489.0	-12.861293775806699	248.0	-3.8242018765622454	37.003341531947896	702.0	
9.196573040673055	2315.0	-1.7712673612659042	2208.0	1308.0	-3.461531905975214	0.0	59412.0	1813.1103515625	162.0	-0.8975	0.6052631578947368	-111.0	1.0	-0.39271255060728744	-2426.0	-14.681143905795995	200.0	-3.0034749728786494	36.044846330522866	821.0	
9.136833042338251	2328.0	-1.7928862423653527	2210.0	1313.0	-3.6191881896046474	0.0	60052.0	1832.6416015625	162.0	-0.8975	0.5951417004048583	-116.0	8.0	-0.4068825910931174	-2246.0	-13.595350971096499	213.0	-3.2192342792535973	33.280681678996636	750.0	
8.85067410079301	2316.0	-1.8373518254610823	2214.0	1337.0	-3.4783607774290024	0.0	60692.0	1852.1728515625	162.0	-0.8975	0.5951417004048583	-116.0	8.0	-0.4068825910931174	-2038.0	-10.919100779935771	169.0	-2.617608972491177	30.09504533117428	575.0	
8.968852914858351	2323.0	-1.9242323236887109	2221.0	1327.0	-3.563253948650492	0.0	61332.0	1871.7041015625	162.0	-0.8975	0.5951417004048583	-116.0	8.0	-0.4068825910931174	-1876.0	-15.782229698730694	119.0	-1.6292121476563532	27.61912294680639	893.0	
8.63304707931636	2340.0	-2.171482544554669	2242.0	1355.0	-3.7763762885316647	0.0	61972.0	1891.2353515625	162.0	-0.8975	0.5789473684210527	-124.0	20.0	-0.4311740890688259	-1832.0	-18.060865575776113	156.0	-2.1004112285939853	26.939253675039517	1042.0	
8.535752166529704	2337.0	-2.37716429941055	2259.0	1363.0	-3.7453182944433956	0.0	62612.0	1910.7666015625	162.0	-0.8975	0.5789473684210527	-124.0	20.0	-0.4311740890688259	-1810.0	-22.26640159045726	135.0	-1.6058362325210334	26.6066207845215	1317.0	
8.544858008810973	2343.0	-2.6570562617597178	2282.0	1362.0	-3.8231142318940723	0.0	63252.0	1930.2978515625	162.0	-0.8975	0.5789473684210527	-124.0	20.0	-0.4311740890688259	-1623.0	-26.380180455727178	-79.0	1.8788618980618073	23.772049321757972	1586.0	
8.72316179760256	2353.0	-2.683820239744162	2284.0	1347.0	-3.942348401276689	0.0	63892.0	1949.8291015625	159.0	-0.905	0.5587044534412956	-134.0	14.0	-0.4190283400809717	-1625.0	-30.050466432176176	-71.0	1.9023061119469205	23.80297273121307	1826.0	
8.840230242938105	2349.0	-2.881737610951521	2300.0	1337.0	-3.8969432931631434	0.0	64532.0	1969.3603515625	159.0	-0.905	0.5587044534412956	-134.0	14.0	-0.4190283400809717	-1759.0	-27.34363052454504	34.0	0.1585093143169205	25.841695573425508	1649.0	
8.587831587035383	2340.0	-3.1216032012236097	2320.0	1358.0	-3.795830856587853	0.0	65172.0	1988.8916015625	159.0	-0.905	0.5587044534412956	-134.0	14.0	-0.4190283400809717	-1904.0	-19.345465667533265	217.0	-2.9983026459878137	28.035077584250573	1126.0	
8.481537077931737	2318.0	-3.0367683973025126	2313.0	1367.0	-3.5301368646366122	0.0	276.0	2008.4228515625	159.0	-0.905	0.5587044534412956	-134.0	14.0	-0.4190283400809717	-2070.0	-11.469643676403122	253.0	-3.892478910731363	30.573320108851874	611.0	
8.195159622776247	2327.0	-3.1030853414229824	2319.0	1391.0	-3.6427607130103357	0.0	916.0	2027.9541015625	160.0	-0.9025	0.5506072874493927	-138.0	37.0	-0.46558704453441296	-2111.0	-9.909772136412297	227.0	-3.5612596615512846	31.205756131326797	509.0	
8.314794038863662	2328.0	-3.0444056374433273	2314.0	1381.0	-3.6524389675409523	0.0	1556.0	2047.4853515625	160.0	-0.9025	0.5506072874493927	-138.0	37.0	-0.46558704453441296	-2295.0	-10.643829331702095	208.0	-3.267897831042741	34.03207474272687	557.0	
8.528179769619783	2325.0	-3.1344039904026024	2321.0	1363.0	-3.615960498979324	0.0	2196.0	2067.0166015625	160.0	-0.9025	0.5506072874493927	-138.0	37.0	-0.46558704453441296	-2353.0	-9.236886374063314	242.0	-3.856013000435822	34.91617364320418	465.0	
7.860787711202238	2320.0	-3.206943165490483	2328.0	1419.0	-3.5638442392098355	0.0	2836.0	2086.5478515625	165.0	-0.89	0.548582995951417	-139.0	45.0	-0.4817813765182186	-2457.0	8.426364887597492	367.0	-6.501017924012715	36.4855498944134	-690.0	
8.081380131858253	2329.0	-2.5762725284602626	2276.0	1401.0	-3.6574586372024296	0.0	3476.0	2106.0791015625	165.0	-0.89	0.548582995951417	-139.0	45.0	-0.4817813765182186	-2573.0	12.142529438752105	687.0	-11.589274924534099	38.214627428750674	-933.0	
8.259903638596423	2319.0	-2.581064711786143	2276.0	1386.0	-3.535287318090722	0.0	4116.0	2125.6103515625	165.0	-0.89	0.548582995951417	-139.0	45.0	-0.4817813765182186	-2789.0	7.233521945251568	909.0	-14.840592830127772	41.496522719849715	-612.0	
8.198793810486075	2308.0	-2.7396665704400673	2289.0	1391.0	-3.406540333062977	0.0	4756.0	2145.1416015625	165.0	-0.89	0.548582995951417	-139.0	45.0	-0.4817813765182186	-2930.0	7.906407707600551	873.0	-14.335433538656504	43.66514650856004	-656.0	
8.294636734259672	2320.0	-2.679183716889999	2284.0	1383.0	-3.5489505600072513	0.0	5396.0	2164.6728515625	175.0	-0.865	0.5566801619433198	-135.0	54.0	-0.5	-2907.0	5.795993271142377	766.0	-12.60176046659181	43.32956011514381	-518.0	
7.845635628419959	2318.0	-2.3411990627659405	2257.0	1421.0	-3.5225844924409984	0.0	6036.0	2184.2041015625	175.0	-0.865	0.5566801619433198	-135.0	54.0	-0.5	-2792.0	8.732222052301577	777.0	-12.870741301280523	41.56225468611257	-710.0	
8.120729859942761	2317.0	-2.212728291438111	2246.0	1398.0	-3.5052159419281295	0.0	6676.0	2203.7353515625	175.0	-0.865	0.5566801619433198	-135.0	54.0	-0.5	-2719.0	-3.731457409389815	608.0	-9.761703491994368	40.4731977571623	105.0	
8.668479071918524	2314.0	-2.199711855766651	2244.0	1352.0	-3.46333354278169	0.0	7316.0	2223.2666015625	180.0	-0.8525	0.5688259109311741	-129.0	78.0	-0.548582995951417	-2859.0	-16.149258296375596	416.0	-6.3334247756288535	42.65570825646345	917.0	
8.825154297711647	2309.0	-2.0083797526447595	2228.0	1339.0	-3.397699184605899	0.0	7956.0	2242.7978515625	180.0	-0.8525	0.5688259109311741	-129.0	78.0	-0.548582995951417	-3053.0	-15.491665392261815	563.0	-8.650455673064107	45.60936777716533	874.0	
8.443667741475288	2308.0	-2.061797281042537	2233.0	1371.0	-3.390534207965134	0.0	8596.0	2262.3291015625	180.0	-0.8525	0.5688259109311741	-129.0	78.0	-0.548582995951417	-3194.0	-4.786664627618903	856.0	-13.606794714946169	47.723376582542116	174.0	
8.55554446700289	2309.0	-1.5884104425680652	2194.0	1362.0	-3.3919958967114527	0.0	9236.0	2281.8603515625	190.0	-0.8275	0.5748987854251012	-126.0	96.0	-0.5850202429149798	-3077.0	-2.553907325279095	1092.0	-17.307992578183153	45.89106001590913	28.0	
8.068177282126442	2326.0	-1.5156051206892425	2189.0	1403.0	-3.6002327392310747	0.0	9876.0	2301.3916015625	190.0	-0.8275	0.5748987854251012	-126.0	96.0	-0.5850202429149798	-2895.0	-4.067900290564307	1320.0	-20.72631681262194	43.06418074778602	127.0	
8.35516184029263	2315.0	-1.3885778754988256	2178.0	1379.0	-3.4622922282636766	0.0	10516.0	2320.9228515625	190.0	-0.8275	0.5748987854251012	-126.0	96.0	-0.5850202429149798	-2855.0	-9.894479278177092	1192.0	-18.51840879320339	42.47248048165521	508.0	
9.142532343753528	2303.0	-1.2229561008375593	2163.0	1313.0	-3.3065277744828303	0.0	11156.0	2340.4541015625	190.0	-0.8275	0.5748987854251012	-126.0	96.0	-0.5850202429149798	-2816.0	-27.05306621807616	1163.0	-17.38010957924333	41.88542861112793	1630.0	
9.223887657387072	2294.0	-1.4207580708165075	2179.0	1306.0	-3.2012365258063147	0.0	11796.0	2359.9853515625	192.0	-0.8225	0.5506072874493927	-138.0	117.0	-0.6275303643724697	-2828.0	-36.32053830860988	1251.0	-18.3647914673334	42.059715596144535	2236.0	
9.125268679605727	2305.0	-1.7588463251415645	2207.0	1314.0	-3.3415146011525567	0.0	12436.0	2379.5166015625	192.0	-0.8225	0.5506072874493927	-138.0	117.0	-0.6275303643724697	-2761.0	-35.31120966508641	1168.0	-17.11828180255256	41.044100287697965	2170.0	
9.030036471851844	2294.0	-1.758257576720215	2207.0	1322.0	-3.209925027779741	0.0	13076.0	2399.0478515625	192.0	-0.8225	0.5506072874493927	-138.0	117.0	-0.6275303643724697	-2631.0	-32.3443951674568	1084.0	-15.925016973862943	39.06125006042863	1976.0	
9.770688146068876	2313.0	-1.5026139645410779	2185.0	1260.0	-3.4263213014445904	0.0	13716.0	2418.5791015625	195.0	-0.8150000000000001	0.5323886639676113	-147.0	126.0	-0.645748987854251	-2603.0	-36.87108120507723	1069.0	-15.508960949264505	38.63576507824711	2272.0	
9.374993914455962	2321.0	-1.7863228401181246	2209.0	1293.0	-3.532337963440935	0.0	14356.0	2438.1103515625	195.0	-0.8150000000000001	0.5323886639676113	-147.0	126.0	-0.645748987854251	-2788.0	-31.931487995106288	1278.0	-18.94947793765251	41.440089385116345	1949.0	
9.029930225887567	2307.0	-1.7688821731480262	2208.0	1322.0	-3.3667650881920363	0.0	14996.0	2457.6416015625	195.0	-0.8150000000000001	0.5323886639676113	-147.0	126.0	-0.645748987854251	-3048.0	-17.296222664015907	1379.0	-21.128173476216876	45.40786818084318	992.0	
8.66082040130496	2295.0	-1.7751027266469657	2209.0	1353.0	-3.2260022842548297	0.0	15636.0	2477.1728515625	195.0	-0.8150000000000001	0.5323886639676113	-147.0	126.0	-0.645748987854251	-3048.0	-24.835601773971558	1268.0	-19.11936956599832	45.427956219945365	1485.0	
8.922071460124894	2302.0	-1.8404730351296712	2214.0	1331.0	-3.3090345292338745	0.0	16276.0	2496.7041015625	200.0	-0.8025	0.52834008097166	-149.0	146.0	-0.6862348178137652	-2966.0	-34.99005964214712	1331.0	-19.66963542782703	44.16420590136083	2149.0	
9.577661372818257	2289.0	-1.757672241983922	2206.0	1276.0	-3.1441961082199295	0.0	16916.0	2516.2353515625	200.0	-0.8025	0.52834008097166	-149.0	146.0	-0.6862348178137652	-3124.0	-30.341030738645056	1521.0	-22.802154904308825	46.55730912457975	1845.0	
9.60171353051416	2292.0	-1.7334088533457657	2204.0	1274.0	-3.1796148971834604	0.0	17556.0	2535.7666015625	200.0	-0.8025	0.52834008097166	-149.0	146.0	-0.6862348178137652	-3125.0	-15.369322526380182	1814.0	-27.907665049864022	46.521598506782325	866.0	
9.04215253812351	2269.0	-1.7371271400299455	2205.0	1321.0	-2.9081764391061107	0.0	18196.0	2555.2978515625	210.0	-0.7775	0.5222672064777328	-152.0	136.0	-0.6659919028340081	-2980.0	-11.959015139929654	1724.0	-26.637552455646357	44.309349502296385	643.0	
8.92494773841523	2261.0	-1.5528452060959903	2190.0	1331.0	-2.80927730625584	0.0	18836.0	2574.8291015625	210.0	-0.7775	0.5222672064777328	-152.0	136.0	-0.6659919028340081	-2660.0	-28.36825202630372	1497.0	-22.44072981790253	39.441082958073856	1716.0	
9.363757924306976	2267.0	-1.719445664540314	2203.0	1294.0	-2.8805103701923147	0.0	19476.0	2594.3603515625	210.0	-0.7775	0.5222672064777328	-152.0	136.0	-0.6659919028340081	-2534.0	-45.2056889432635	1247.0	-17.902789864613492	37.553057416683004	2817.0	
10.088469999370897	2274.0	-1.8672857771960063	2214.0	1233.0	-2.9605574010923794	0.0	20116.0	2613.8916015625	210.0	-0.7775	0.5141700404858299	-156.0	142.0	-0.6781376518218624	-2585.0	-36.962838354488454	1210.0	-17.671209524127068	38.337941886652246	2278.0	
9.780224993888949	2272.0	-1.7394053730098828	2204.0	1259.0	-2.936985857521308	0.0	20756.0	2633.4228515625	210.0	-0.7775	0.5141700404858299	-156.0	142.0	-0.6781376518218624	-2731.0	-26.76250191160728	1247.0	-18.670669190753635	40.56824190407221	1611.0	
9.554205479106006	2275.0	-1.7223092322565443	2203.0	1278.0	-2.9750487081673236	0.0	21396.0	2652.9541015625	210.0	-0.7775	0.5141700404858299	-156.0	142.0	-0.6781376518218624	-2875.0	-24.468573176326657	1084.0	-16.27745514981638	42.80177969125157	1461.0	
9.577532244463551	2283.0	-1.7705850774543828	2207.0	1276.0	-3.07216649958638	0.0	22036.0	2672.4853515625	210.0	-0.7775	0.5141700404858299	-156.0	142.0	-0.6781376518218624	-2973.0	-22.26640159045726	1011.0	-15.257777406421008	44.315735867181765	1317.0	
9.493957397706751	2271.0	-1.7947364198010711	2209.0	1283.0	-2.92890696164787	0.0	22676.0	2692.0166015625	219.0	-0.755	0.5242914979757085	-151.0	150.0	-0.6943319838056681	-2990.0	-20.737115766936842	951.0	-14.398708375399591	44.5851827796801	1217.0	
9.638750727210855	2283.0	-1.6011177551050004	2193.0	1271.0	-3.0681649683119194	0.0	23316.0	2711.5478515625	219.0	-0.755	0.5242914979757085	-151.0	150.0	-0.6943319838056681	-2852.0	-18.45847988989142	979.0	-14.899331329511819	42.46263780531774	1068.0	
9.125980824244367	2289.0	-1.6876318612776304	2201.0	1314.0	-3.1473121060915425	0.0	23956.0	2731.0791015625	219.0	-0.755	0.5242914979757085	-151.0	150.0	-0.6943319838056681	-2623.0	-19.054901361064385	961.0	-14.563488707423838	38.95210947382802	1107.0	
9.35211862835497	2283.0	-1.6928990692649213	2201.0	1295.0	-3.0728669155836768	0.0	24596.0	2750.6103515625	222.0	-0.7475	0.5161943319838057	-155.0	161.0	-0.7165991902834008	-2470.0	-21.89937299281236	987.0	-14.826144987533437	36.601776911333815	1293.0	
9.447565736710084	2270.0	-1.6719977575630014	2199.0	1287.0	-2.9148679122419905	0.0	25236.0	2770.1416015625	222.0	-0.7475	0.5161943319838057	-155.0	161.0	-0.7165991902834008	-2452.0	-18.764337054595504	1115.0	-16.91750313944119	36.30466262396849	1088.0	
9.589546882116291	2275.0	-1.7595975026566295	2206.0	1275.0	-2.975441059545222	0.0	25876.0	2789.6728515625	222.0	-0.7475	0.5161943319838057	-155.0	161.0	-0.7165991902834008	-2359.0	-13.136565224040375	1295.0	-19.896850507386194	34.84783217008343	720.0	
9.589788278116965	2273.0	-1.7354579025892394	2204.0	1275.0	-2.950859468041699	0.0	26516.0	2809.2041015625	222.0	-0.7475	0.5161943319838057	-155.0	161.0	-0.7165991902834008	-2259.0	-8.74751491053678	1403.0	-21.71816878399754	33.29517062150482	433.0	
9.469420039336823	2270.0	-1.8675198758416551	2215.0	1285.0	-2.918559811581296	0.0	27156.0	2828.7353515625	231.0	-0.725	0.4959514170040486	-165.0	175.0	-0.7449392712550608	-2107.0	-4.786664627618903	1300.0	-20.26905245665359	30.977300268743267	174.0	
9.325591089499076	2249.0	-1.9647005739019883	2223.0	1297.0	-2.668929666848109	0.0	27796.0	2848.2666015625	231.0	-0.725	0.4959514170040486	-165.0	175.0	-0.7449392712550608	-1920.0	-8.961614925829638	1192.0	-18.412263059667172	28.12644971864378	447.0	
9.313820256519687	2257.0	-1.9513076813647037	2222.0	1298.0	-2.765165059495832	0.0	28436.0	2867.7978515625	231.0	-0.725	0.4959514170040486	-165.0	175.0	-0.7449392712550608	-1813.0	-19.26900137635724	999.0	-15.015114684205539	26.518561450979032	1121.0	
9.609436295320165	2263.0	-2.151608563221469	2238.0	1273.0	-2.8385040733714684	0.0	29076.0	2887.3291015625	235.0	-0.715	0.52834008097166	-149.0	180.0	-0.7550607287449392	-1899.0	-20.997094356935314	818.0	-12.1752841558348	27.866585350861477	1234.0	
9.548701808910549	2260.0	-2.272676251802247	2248.0	1278.0	-2.8053881936939273	0.0	29716.0	2906.8603515625	235.0	-0.715	0.52834008097166	-149.0	180.0	-0.7550607287449392	-2081.0	-10.39914359993883	683.0	-10.550688006541137	30.67552733813315	541.0	
9.203033426004131	2250.0	-2.315705018634448	2252.0	1307.0	-2.689223525148792	0.0	30356.0	2926.3916015625	235.0	-0.715	0.52834008097166	-149.0	180.0	-0.7550607287449392	-2268.0	-3.058571647040832	650.0	-10.36540938376206	33.5467985684303	61.0	
8.811845967839186	2255.0	-2.148736549414769	2239.0	1340.0	-2.7500369942014697	0.0	30996.0	2945.9228515625	242.0	-0.6975	0.5222672064777328	-152.0	193.0	-0.7813765182186235	-2391.0	-6.178314727022481	433.0	-6.921889719429951	35.46860525502298	265.0	
9.013709487634623	2264.0	-2.200479807966427	2243.0	1323.0	-2.8574869591143073	0.0	31636.0	2965.4541015625	242.0	-0.6975	0.5222672064777328	-152.0	193.0	-0.7813765182186235	-2565.0	-9.466279247591375	321.0	-5.094441409907146	38.156819894631944	480.0	
8.667344616461962	2283.0	-2.313157401422855	2253.0	1352.0	-3.092119822345765	0.0	32276.0	2984.9853515625	242.0	-0.6975	0.5222672064777328	-152.0	193.0	-0.7813765182186235	-2789.0	-3.670285976448999	371.0	-6.129661706356744	41.58363203108742	101.0	
8.584130659369833	2267.0	-2.301219777302281	2252.0	1359.0	-2.8999421250969255	0.0	32916.0	3004.5166015625	242.0	-0.6975	0.5222672064777328	-152.0	193.0	-0.7813765182186235	-2801.0	-2.8597644899831782	448.0	-7.34823521063252	41.755580099942165	48.0	
8.52510160133733	2263.0	-2.251744628171619	2248.0	1364.0	-2.8513501416102995	0.0	33556.0	3024.0478515625	256.0	-0.6625	0.5222672064777328	-152.0	214.0	-0.8238866396761134	-2662.0	-10.03211500229393	516.0	-8.085931512390633	39.61531990844522	517.0	
8.835432194242479	2276.0	-2.171066290037862	2241.0	1338.0	-3.00325977494267	0.0	34196.0	3043.5791015625	256.0	-0.6625	0.5222672064777328	-152.0	214.0	-0.8238866396761134	-2608.0	-12.295458021104146	638.0	-9.863568370721012	38.768941422323174	665.0	
8.823032580198301	2268.0	-2.22055150397935	2245.0	1339.0	-2.9079879331932665	0.0	34836.0	3063.1103515625	256.0	-0.6625	0.5222672064777328	-152.0	214.0	-0.8238866396761134	-2627.0	-11.653157975225572	763.0	-11.81476181570507	39.040974677377704	623.0	
8.907463151984503	2282.0	-2.1108276586923833	2236.0	1332.0	-3.0736238493648456	0.0	35476.0	3082.6416015625	265.0	-0.64	0.520242914979757	-153.0	218.0	-0.8319838056680162	-2607.0	-11.362593668756691	852.0	-13.192197898369972	38.72031064338856	604.0	
8.931133946297987	2272.0	-2.124700608296491	2237.0	1330.0	-2.9531826727029498	0.0	36116.0	3102.1728515625	265.0	-0.64	0.520242914979757	-153.0	218.0	-0.8319838056680162	-2547.0	-12.784829484630679	845.0	-13.018443408795587	37.80137916879681	697.0	
9.157276567753943	2270.0	-2.129486081748487	2237.0	1311.0	-2.926920570415261	0.0	36756.0	3121.7041015625	265.0	-0.64	0.520242914979757	-153.0	218.0	-0.8319838056680162	-2512.0	-14.008258143447012	834.0	-12.79495330444037	37.26655714180599	777.0	
9.254573889213274	2275.0	-1.9235634596249587	2220.0	1303.0	-2.982070108613619	0.0	37396.0	3141.2353515625	265.0	-0.64	0.520242914979757	-153.0	218.0	-0.8319838056680162	-2540.0	-11.714329408166387	902.0	-13.936885640207805	37.68478336087581	627.0	
9.184704656450268	2242.0	-1.7676295930683374	2207.0	1309.0	-2.5820597621643335	0.0	38036.0	3160.7666015625	274.0	-0.6175	0.5141700404858299	-156.0	225.0	-0.8461538461538461	-2653.0	-9.435693531120968	903.0	-14.060740205251587	39.41747146859349	478.0	
9.089133237085804	2253.0	-1.8009620057054239	2210.0	1317.0	-2.716212245092648	0.0	38676.0	3180.2978515625	274.0	-0.6175	0.5141700404858299	-156.0	225.0	-0.8461538461538461	-2558.0	-14.818779629912832	908.0	-13.907766043664786	37.961275262687494	830.0	
9.4722033193626	2253.0	-1.5891918732637245	2192.0	1285.0	-2.708146141621046	0.0	39316.0	3199.8291015625	274.0	-0.6175	0.5141700404858299	-156.0	225.0	-0.8461538461538461	-2526.0	-18.3820155987154	911.0	-13.806483245076302	37.47126461361338	1063.0	
9.32949196427268	2249.0	-1.5746130965413854	2191.0	1297.0	-2.661088908553161	0.0	39956.0	3219.3603515625	284.0	-0.5925	0.5182186234817814	-154.0	214.0	-0.8238866396761134	-2486.0	-14.528215323443954	978.0	-14.984990287200425	36.84570019686714	811.0	
9.425069405318839	2243.0	-1.540678515735181	2188.0	1289.0	-2.587165285900069	0.0	40596.0	3238.8916015625	284.0	-0.5925	0.5182186234817814	-154.0	214.0	-0.8238866396761134	-2355.0	-15.338736809909774	1036.0	-15.82455463303271	34.827177194194455	864.0	
9.52199740675913	2245.0	-1.37168789551568	2174.0	1281.0	-2.606912579023445	0.0	41236.0	3258.4228515625	284.0	-0.5925	0.5182186234817814	-154.0	214.0	-0.8238866396761134	-2310.0	-13.365958097568436	1140.0	-17.49614748861249	34.11995950102304	735.0	
9.521257562384712	2238.0	-1.4456723329575585	2180.0	1281.0	-2.5240623168184366	0.0	41876.0	3277.9541015625	289.0	-0.58	0.5425101214574899	-142.0	223.0	-0.8421052631578947	-2257.0	-13.641229545802112	1210.0	-18.553655725455737	33.29612678477398	753.0	
9.758201819808345	2233.0	-1.5607704001178713	2189.0	1261.0	-2.463753871731985	0.0	42516.0	3297.4853515625	289.0	-0.58	0.5425101214574899	-142.0	223.0	-0.8421052631578947	-2185.0	-14.359993882856708	1212.0	-18.544622524829343	32.191414293395255	800.0	
9.769848341778383	2223.0	-1.5865943935903222	2191.0	1260.0	-2.3436719586708903	0.0	43156.0	3317.0166015625	289.0	-0.58	0.5425101214574899	-142.0	223.0	-0.8421052631578947	-2169.0	-9.802722128765867	1227.0	-18.95515095803616	31.94179727053319	502.0	
9.4368173559078	2216.0	-1.5563596473151153	2189.0	1288.0	-2.2620602242065018	0.0	43796.0	3336.5478515625	289.0	-0.58	0.5425101214574899	-142.0	223.0	-0.8421052631578947	-2098.0	-8.59458632818474	1126.0	-17.439126271767282	30.867499177669014	423.0	
9.626767666669423	2216.0	-1.6089476187720106	2193.0	1272.0	-2.261212480528023	0.0	44436.0	3356.0791015625	302.0	-0.5475	0.5607287449392713	-133.0	217.0	-0.8299595141700405	-1978.0	-16.05750114696437	867.0	-13.13862388770493	29.069166162534646	911.0	
9.755999147393823	2226.0	-1.7810376415699762	2207.0	1261.0	-2.3838438938875814	0.0	45076.0	3375.6103515625	302.0	-0.5475	0.5607287449392713	-133.0	217.0	-0.8299595141700405	-1920.0	-16.79155834225417	746.0	-11.239299616739503	28.19817935307306	959.0	
9.421517376846523	2229.0	-1.8958813629667588	2217.0	1289.0	-2.4256301643342435	0.0	45716.0	3395.1416015625	302.0	-0.5475	0.5607287449392713	-133.0	217.0	-0.8299595141700405	-1933.0	-12.111943722281696	677.0	-10.367191022223109	28.40637872657384	653.0	
9.327294109203514	2246.0	-1.7943986034581956	2209.0	1297.0	-2.629362018928936	0.0	46356.0	3414.6728515625	307.0	-0.535	0.5445344129554656	-141.0	245.0	-0.8866396761133604	-1943.0	-12.647193760513842	618.0	-9.439855518407587	28.56909691819325	688.0	
9.660573717092797	2257.0	-1.79977114786307	2209.0	1269.0	-2.758666794220068	0.0	46996.0	3434.2041015625	307.0	-0.535	0.5445344129554656	-141.0	245.0	-0.8866396761133604	-2015.0	-16.05750114696437	563.0	-8.468564691602813	29.68361264984629	911.0	
9.73174894980542	2261.0	-1.8251050194578704	2211.0	1263.0	-2.8066544904091755	0.0	47636.0	3453.7353515625	307.0	-0.535	0.5445344129554656	-141.0	245.0	-0.8866396761133604	-2003.0	-10.521486465820463	623.0	-9.610984631902783	29.48805464654579	549.0	
9.638231805119359	2257.0	-1.6530099642544913	2197.0	1271.0	-2.755954989667631	0.0	48276.0	3473.2666015625	307.0	-0.535	0.5445344129554656	-141.0	245.0	-0.8866396761133604	-2028.0	-2.1257072946933784	647.0	-10.319755015858888	29.864579034159352	0.0	
9.365314954947976	2244.0	-1.5637426004405137	2190.0	1294.0	-2.600272304868969	0.0	48916.0	3492.7978515625	315.0	-0.515	0.5789473684210527	-124.0	227.0	-0.8502024291497976	-2070.0	-2.0492430035173577	493.0	-7.960627855101226	30.532638619408175	-5.0	
9.627293814778948	2248.0	-1.5563328078195775	2189.0	1272.0	-2.645697091502578	0.0	49556.0	3512.3291015625	315.0	-0.515	0.5789473684210527	-124.0	227.0	-0.8502024291497976	-2058.0	-11.867257990518429	231.0	-3.536359136639872	30.392747502695293	637.0	
9.890002884293631	2251.0	-1.475902046827352	2182.0	1250.0	-2.6776059639008394	0.0	50196.0	3531.8603515625	315.0	-0.515	0.5789473684210527	-124.0	227.0	-0.8502024291497976	-2075.0	-11.637865116990367	86.0	-1.3179391675056806	30.675787924574752	622.0	
9.607000155802222	2228.0	-1.2047463245396524	2160.0	1274.0	-2.39790444300506	0.0	50836.0	3551.3916015625	322.0	-0.4975	0.5728744939271255	-127.0	229.0	-0.854251012145749	-2176.0	-3.5479431105673656	151.0	-2.6567462730579035	32.21219270298985	93.0	
9.298860191948215	2212.0	-1.0663617575595417	2149.0	1300.0	-2.205447066966648	0.0	51476.0	3570.9228515625	322.0	-0.4975	0.5728744939271255	-127.0	229.0	-0.854251012145749	-2121.0	-3.2726716623336904	116.0	-2.120992529382106	31.373603639229735	75.0	
9.528187930530123	2223.0	-0.75263551841634	2123.0	1281.0	-2.329409385279893	0.0	52116.0	3590.4541015625	322.0	-0.4975	0.5728744939271255	-127.0	229.0	-0.854251012145749	-1905.0	-8.992200642300046	70.0	-1.1515807779568445	28.06888928658901	449.0	
9.541557945922348	2227.0	-0.6061101696699955	2111.0	1280.0	-2.374537949235381	0.0	52756.0	3609.9853515625	330.0	-0.47750000000000004	0.5668016194331984	-130.0	241.0	-0.8785425101214575	-1733.0	-7.172350512310752	83.0	-1.397926872157252	25.42717463644952	330.0	
9.50474167150858	2217.0	-0.7163090396183732	2120.0	1283.0	-2.2566281616676434	0.0	53396.0	3629.5166015625	330.0	-0.47750000000000004	0.5668016194331984	-130.0	241.0	-0.8785425101214575	-1537.0	-4.725493194678085	106.0	-1.8194755463753118	22.41544035271486	170.0	
9.421310405142542	2223.0	-0.7261023428887162	2121.0	1290.0	-2.3299474970232166	0.0	54036.0	3649.0478515625	330.0	-0.47750000000000004	0.5668016194331984	-130.0	241.0	-0.8785425101214575	-1276.0	-5.872457562318398	163.0	-2.6102569776117264	18.402622303631894	245.0	
9.208166070387094	2224.0	-0.6119643898620506	2112.0	1308.0	-2.341844374081322	0.0	54676.0	3668.5791015625	330.0	-0.47750000000000004	0.5668016194331984	-130.0	241.0	-0.8785425101214575	-1037.0	-4.81725034408931	200.0	-3.1848776970631434	14.729544502145528	176.0	
9.515941531567414	2241.0	-0.7867992242108941	2126.0	1282.0	-2.5470825932649293	0.0	55316.0	3688.1103515625	336.0	-0.4625	0.5728744939271255	-127.0	255.0	-0.9068825910931174	-990.0	-6.560636182902585	191.0	-2.9695116528326344	14.010507430655963	290.0	
9.324017901028563	2222.0	-0.9315432304769502	2138.0	1298.0	-2.3229810470450363	0.0	55956.0	3707.6416015625	336.0	-0.4625	0.5728744939271255	-127.0	255.0	-0.9068825910931174	-934.0	0.9328643523474538	287.0	-4.737177889709946	13.133539683432193	-200.0	
9.205480605971225	2221.0	-0.880510831448936	2134.0	1308.0	-2.3110975792439654	0.0	56596.0	3727.1728515625	336.0	-0.4625	0.5728744939271255	-127.0	255.0	-0.9068825910931174	-775.0	3.5479431105673656	436.0	-7.109101202524299	10.67004754866219	-371.0	
