Device	Device	Device	Device	Device	Device	Device	Device	Device	Device	Device	Device	Device	Device	Device	Device	Device	Device	Device	Device	Device	
Low Noise Accelerometer X	Low Noise Accelerometer X	Low Noise Accelerometer Z	Low Noise Accelerometer Z	Low Noise Accelerometer Y	Low Noise Accelerometer Y	Event_Marker	Timestamp	Timestamp	Magnetometer Z	Magnetometer Z	Magnetometer X	Magnetometer X	Magnetometer Y	Magnetometer Y	Gyroscope Y	Gyroscope Y	Gyroscope Z	Gyroscope Z	Gyroscope X	Gyroscope X	
CAL	UNCAL	CAL	UNCAL	UNCAL	CAL	CAL	UNCAL	CAL	CAL	UNCAL	UNCAL	CAL	CAL	UNCAL	UNCAL	CAL	CAL	UNCAL	UNCAL	CAL	
m/(s^2)	no units	m/(s^2)	no units	no units	m/(s^2)	no units	no units	ms	local_flux	no units	no units	local_flux	local_flux	no units	no units	deg/s	deg/s	no units	no units	deg/s	
9.63812867070698	2236.0	-0.47284721501628524	2100.0	1272.0	-2.4793407178342197	0.0	16406.0	500.67138671875	-0.2975	402.0	-94.0	0.6396761133603239	-0.8785425101214575	241.0	366.0	10.567365040526076	-2.723619395006403	144.0	-830.0	-6.794153487183148	
9.739158496943167	2239.0	-1.0841503056833421	2150.0	1263.0	-2.526701059698452	0.0	17046.0	520.20263671875	-0.2975	402.0	-94.0	0.6396761133603239	-0.8785425101214575	241.0	512.0	14.971708212264874	-1.154735189059548	32.0	-1118.0	-9.018759259209915	
10.736395721226119	2274.0	-2.550904067864236	2269.0	1178.0	-2.967750509687192	0.0	17686.0	539.73388671875	-0.295	403.0	-92.0	0.6437246963562753	-0.8663967611336032	235.0	951.0	34.65361676097263	-2.428282852834643	68.0	-2405.0	-15.7677230617645	
10.096050826635185	2293.0	-1.1092030507671886	2152.0	1233.0	-3.174235600941763	0.0	18326.0	559.26513671875	-0.295	403.0	-92.0	0.6437246963562753	-0.8663967611336032	235.0	603.0	68.45083346077382	-11.769876589133403	584.0	-4615.0	-10.52125868610002	
8.302875210992369	2168.0	1.7160925278081494	1922.0	1386.0	-1.629637349141142	0.0	18966.0	578.79638671875	-0.295	403.0	-92.0	0.6437246963562753	-0.8663967611336032	235.0	2029.0	72.19758372839884	-10.91652490491783	533.0	-4860.0	-32.393958865743976	
7.833968269752753	2229.0	3.6349222133705585	1766.0	1427.0	-2.330889583878435	0.0	19606.0	598.32763671875	-0.28750000000000003	406.0	-86.0	0.6558704453441295	-0.8441295546558705	224.0	3477.0	-4.603150328796453	9.572997881652787	-585.0	162.0	-54.40787597484314	
9.704188759680191	2272.0	1.3712569204000067	1949.0	1268.0	-2.8755329739951976	0.0	20246.0	617.85888671875	-0.28750000000000003	406.0	-86.0	0.6558704453441295	-0.8441295546558705	224.0	2738.0	-24.545037467502677	13.779391988173057	-814.0	1466.0	-43.026238610423626	
9.83276426106114	2280.0	-0.05690722721922273	2066.0	1256.0	-2.9991960441024474	0.0	20886.0	637.39013671875	-0.28750000000000003	406.0	-86.0	0.6558704453441295	-0.8441295546558705	224.0	1736.0	-16.806851200489373	4.949052451867638	-270.0	960.0	-27.739369380345526	
9.142528229287397	2263.0	-0.032891356974484254	2065.0	1314.0	-2.8007988099068566	0.0	21526.0	656.92138671875	-0.28750000000000003	406.0	-86.0	0.6558704453441295	-0.8441295546558705	224.0	678.0	-13.778865269918949	3.0814035073032606	-167.0	762.0	-11.523582159495021	
9.392814802367479	2239.0	-0.00423404896639723	2062.0	1293.0	-2.50856617150987	0.0	22166.0	676.45263671875	-0.33	389.0	-99.0	0.6295546558704453	-0.8502024291497976	227.0	-31.0	-14.635265331090382	1.7456562867835337	-85.0	818.0	-0.6577007180896605	
9.732863634423456	2239.0	-0.5231603671782995	2104.0	1264.0	-2.515544209553548	0.0	22806.0	695.98388671875	-0.33	389.0	-99.0	0.6295546558704453	-0.8502024291497976	227.0	-599.0	-8.48753632053831	-0.6176300649734012	47.0	416.0	8.034333136207717	
9.725544676877591	2235.0	-1.2550561217647245	2164.0	1264.0	-2.4820625431363976	0.0	23446.0	715.51513671875	-0.33	389.0	-99.0	0.6295546558704453	-0.8502024291497976	227.0	-752.0	-1.498700107050008	-2.95088410089815	179.0	-41.0	10.358706595541578	
9.149511149718984	2227.0	-0.5250755042920665	2105.0	1313.0	-2.376837723889856	0.0	24086.0	735.04638671875	-0.325	391.0	-85.0	0.6578947368421053	-0.8441295546558705	224.0	-650.0	4.725493194678085	-3.1995578411467487	180.0	-448.0	8.791082525010353	
9.262347437567591	2215.0	0.0442675662828485	2058.0	1304.0	-2.2197441863468597	0.0	24726.0	754.57763671875	-0.325	391.0	-85.0	0.6578947368421053	-0.8441295546558705	224.0	-430.0	2.64566447469032	-1.2523139354002901	61.0	-312.0	5.4347685592803385	
9.269770733862172	2241.0	-0.403878994735109	2095.0	1303.0	-2.541885896652466	0.0	25366.0	774.10888671875	-0.325	391.0	-85.0	0.6578947368421053	-0.8441295546558705	224.0	-471.0	-0.13763572411683744	-0.3474867064618071	9.0	-130.0	6.072940661552844	
9.277288232757652	2244.0	-0.8426052956634924	2131.0	1302.0	-2.5867298259953317	0.0	26006.0	793.64013671875	-0.325	391.0	-85.0	0.6578947368421053	-0.8441295546558705	224.0	-566.0	-5.352500382321456	-2.2760268716929177	147.0	211.0	7.511381207422399	
9.078364821078479	2247.0	-0.49685122548549776	2103.0	1319.0	-2.617948557021817	0.0	26646.0	813.17138671875	-0.3225	392.0	-94.0	0.6396761133603239	-0.8927125506072875	248.0	-723.0	-3.7161645511546113	-5.134090137217947	327.0	104.0	9.891884509092758	
9.248284546918137	2243.0	-0.17154530818625127	2076.0	1305.0	-2.5615504703330974	0.0	27286.0	832.70263671875	-0.3225	392.0	-94.0	0.6396761133603239	-0.8927125506072875	248.0	-801.0	-2.6150787582199118	-5.313142352045485	335.0	32.0	11.086963712278227	
9.318967352938706	2243.0	-0.24612184898642175	2082.0	1299.0	-2.5623351730888952	0.0	27926.0	852.23388671875	-0.3225	392.0	-94.0	0.6396761133603239	-0.8927125506072875	248.0	-1052.0	0.5046643217617374	-6.922217216910132	429.0	-172.0	14.922338361818932	
9.682695409662536	2240.0	-0.7780780813656664	2125.0	1268.0	-2.533192438855989	0.0	28566.0	871.76513671875	-0.3125	396.0	-87.0	0.6538461538461539	-0.854251012145749	229.0	-1168.0	0.8105214864658206	-7.752045063765956	481.0	-192.0	16.694000187692865	
9.46858549090439	2249.0	-0.760498528608562	2124.0	1286.0	-2.6434156819281873	0.0	29206.0	891.29638671875	-0.3125	396.0	-87.0	0.6538461538461539	-0.854251012145749	229.0	-1117.0	2.3245144517510323	-7.281829655169824	447.0	-291.0	15.916133675214454	
9.327199405145501	2232.0	-0.6133928187832236	2112.0	1298.0	-2.437068151480836	0.0	29846.0	910.82763671875	-0.3125	396.0	-87.0	0.6538461538461539	-0.854251012145749	229.0	-958.0	0.9328643523474538	-5.294565786850512	323.0	-200.0	13.496233412255787	
9.658766358639642	2238.0	-0.79003080270248	2126.0	1270.0	-2.5095743982507854	0.0	30486.0	930.35888671875	-0.2975	402.0	-83.0	0.6619433198380567	-0.868421052631579	236.0	-801.0	6.377121884080135	-3.965535512210119	224.0	-556.0	11.100439780676579	
9.297040087252455	2219.0	-1.2483722271355586	2164.0	1300.0	-2.2934428268027167	0.0	31126.0	949.89013671875	-0.2975	402.0	-83.0	0.6619433198380567	-0.868421052631579	236.0	-756.0	15.048172503440895	-2.613560339529096	114.0	-1123.0	10.42345776778777	
9.045984765725837	2212.0	-1.3539043797972927	2173.0	1321.0	-2.213726673673627	0.0	31766.0	969.42138671875	-0.2975	402.0	-83.0	0.6619433198380567	-0.868421052631579	236.0	-591.0	13.427129530509253	-1.477520902354129	46.0	-1017.0	7.90297835856891	
8.84415015000252	2227.0	-1.299270714033866	2169.0	1338.0	-2.3953752380818565	0.0	32406.0	988.95263671875	-0.2975	402.0	-83.0	0.6619433198380567	-0.868421052631579	236.0	-549.0	5.260743232910231	-1.067550519928063	41.0	-483.0	7.262609748751925	
9.081846295163954	2239.0	-1.3391800074140632	2172.0	1318.0	-2.538374775750859	0.0	33046.0	1008.48388671875	-0.28250000000000003	408.0	-82.0	0.6639676113360324	-0.8947368421052632	249.0	-725.0	-3.318550237039303	-1.1974572993492612	70.0	78.0	9.961939804787695	
8.833845758072247	2238.0	-1.1392337165848843	2156.0	1339.0	-2.5248076625341076	0.0	33686.0	1028.01513671875	-0.28250000000000003	408.0	-82.0	0.6639676113360324	-0.8947368421052632	249.0	-995.0	-8.166386297599022	-1.4910298232102452	99.0	395.0	14.102014667242809	
9.216048071956259	2226.0	-1.014240423421701	2145.0	1307.0	-2.373907460278992	0.0	34326.0	1047.54638671875	-0.28250000000000003	408.0	-82.0	0.6639676113360324	-0.8947368421052632	249.0	-1058.0	-16.485701177550087	-0.5527281274949147	59.0	939.0	15.078100154661833	
9.274962453670117	2236.0	-1.0751832044169396	2150.0	1302.0	-2.4950190997926014	0.0	34966.0	1067.07763671875	-0.2725	412.0	-94.0	0.6396761133603239	-0.8785425101214575	241.0	-1205.0	-17.892644135188867	-2.395456891234442	181.0	1031.0	17.315311964768796	
9.634591094270723	2234.0	-0.8266048586419789	2129.0	1272.0	-2.462354860928927	0.0	35606.0	1086.60888671875	-0.2725	412.0	-94.0	0.6396761133603239	-0.8785425101214575	241.0	-1507.0	-20.675944333996025	-4.652959055316114	332.0	1213.0	21.926771007881705	
9.732487088386385	2230.0	-0.5608149708852691	2107.0	1264.0	-2.407867332148299	0.0	36246.0	1106.14013671875	-0.2725	412.0	-94.0	0.6396761133603239	-0.8785425101214575	241.0	-1882.0	-19.009022786358774	-7.530312545967373	511.0	1104.0	27.652178844772028	
9.75737690606662	2220.0	-0.4527855838141889	2098.0	1262.0	-2.2849759185192315	0.0	36886.0	1125.67138671875	-0.2725	412.0	-94.0	0.6396761133603239	-0.8785425101214575	241.0	-2107.0	-19.605444257531733	-7.217984781547152	490.0	1143.0	31.107810945494332	
9.948173307166938	2214.0	-0.42076452140139436	2095.0	1246.0	-2.210138376633467	0.0	37526.0	1145.20263671875	-0.2675	414.0	-88.0	0.6518218623481782	-0.8785425101214575	241.0	-2128.0	-22.908701636335834	-5.104978022501582	361.0	1359.0	31.451175169905415	
10.116012262928754	2203.0	-0.30353561188673384	2085.0	1232.0	-2.0735852884036277	0.0	38166.0	1164.73388671875	-0.2675	414.0	-88.0	0.6518218623481782	-0.8785425101214575	241.0	-2011.0	-20.599480042820005	-2.979944753164607	218.0	1208.0	29.67712091459817	
9.877839347447658	2200.0	-0.31130335047219887	2086.0	1252.0	-2.039977794016895	0.0	38806.0	1184.26513671875	-0.2675	414.0	-88.0	0.6518218623481782	-0.8785425101214575	241.0	-1880.0	-18.672579905184282	-0.7451878769322595	69.0	1082.0	27.689341124146132	
9.864115668408791	2206.0	-0.49319506388286305	2101.0	1253.0	-2.1160420217020035	0.0	39446.0	1203.79638671875	-0.2675	414.0	-89.0	0.6497975708502024	-0.868421052631579	236.0	-1759.0	-21.960544425753174	1.9888419387794647	-99.0	1297.0	25.859998899670135	
9.779223982675328	2214.0	-0.6490303038957848	2114.0	1260.0	-2.216393185528271	0.0	40086.0	1223.32763671875	-0.2675	414.0	-89.0	0.6497975708502024	-0.868421052631579	236.0	-1884.0	-24.896773206912375	2.6408062488744974	-135.0	1489.0	27.7845790000367	
9.884770217050187	2222.0	-0.8086925806955264	2127.0	1251.0	-2.3149165108891916	0.0	40726.0	1242.85888671875	-0.2675	414.0	-89.0	0.6497975708502024	-0.868421052631579	236.0	-2035.0	-24.65208747514911	2.392521993318736	-121.0	1473.0	30.099113189858002	
9.538867664161126	2220.0	-0.8751383457921758	2133.0	1280.0	-2.2956080661778464	0.0	41366.0	1262.39013671875	-0.255	419.0	-95.0	0.6376518218623481	-0.8663967611336032	235.0	-2323.0	-18.33613702400979	0.11160984741483698	8.0	1060.0	34.49551536193894	
9.622910850883214	2216.0	-0.8041530069165912	2127.0	1273.0	-2.2451551564487766	0.0	42006.0	1281.92138671875	-0.255	419.0	-95.0	0.6376518218623481	-0.8663967611336032	235.0	-2493.0	-13.473008105214866	-0.6473037511634578	43.0	742.0	37.096488447834396	
9.526594769798978	2216.0	-0.9119515915308507	2136.0	1281.0	-2.248274288951904	0.0	42646.0	1301.45263671875	-0.255	419.0	-95.0	0.6376518218623481	-0.8663967611336032	235.0	-2742.0	-9.29805780700413	-1.298529622472309	72.0	469.0	40.910752619994405	
9.644160459171928	2220.0	-1.0601445589975445	2148.0	1271.0	-2.2982552624918458	0.0	43286.0	1320.98388671875	-0.255	419.0	-95.0	0.6376518218623481	-0.8663967611336032	235.0	-2918.0	-8.762807768771985	-2.546636517563768	150.0	434.0	43.59890067487346	
9.537514695094316	2210.0	-1.0104352524731197	2144.0	1280.0	-2.17784560629129	0.0	43926.0	1340.51513671875	-0.23	429.0	-94.0	0.6396761133603239	-0.8643724696356275	234.0	-3104.0	-5.459550389967886	-3.876225508664743	226.0	218.0	46.43967874537369	
9.537990261077635	2200.0	-0.9628786541412812	2140.0	1280.0	-2.056407790953977	0.0	44566.0	1360.04638671875	-0.23	429.0	-94.0	0.6396761133603239	-0.8643724696356275	234.0	-3230.0	-3.043278788805628	-4.515142992454848	260.0	60.0	48.36669451145952	
9.347901187270605	2186.0	-0.9241669872254363	2137.0	1296.0	-1.8888597495585497	0.0	45206.0	1379.57763671875	-0.23	429.0	-94.0	0.6396761133603239	-0.8643724696356275	234.0	-3447.0	3.9149717082122653	-5.3035414174595905	291.0	-395.0	51.688563481022584	
9.444841232074275	2198.0	-0.7539720306676982	2123.0	1288.0	-2.0290647632323706	0.0	45846.0	1399.10888671875	-0.1675	454.0	-85.0	0.6578947368421053	-0.8765182186234818	240.0	-3613.0	4.220828872916348	-5.464289463193962	299.0	-415.0	54.23414028781398	
9.469028539806576	2212.0	-0.7161936383899629	2120.0	1286.0	-2.196742021104673	0.0	46486.0	1418.64013671875	-0.1675	454.0	-85.0	0.6578947368421053	-0.8765182186234818	240.0	-3664.0	1.9727787123413367	-5.089967846787295	280.0	-268.0	55.02045217054241	
9.469391838143926	2210.0	-0.6798638046550537	2117.0	1286.0	-2.1719154059044325	0.0	47126.0	1438.17138671875	-0.1675	454.0	-85.0	0.6578947368421053	-0.8765182186234818	240.0	-3634.0	-2.0339501452821533	-4.109934159859902	227.0	-6.0	54.569917997667936	
9.457120148118117	2207.0	-0.716556616759905	2120.0	1287.0	-2.136627400733535	0.0	47766.0	1457.70263671875	-0.1675	454.0	-85.0	0.6578947368421053	-0.8765182186234818	240.0	-3544.0	-6.5759290411377895	-3.1300482641987952	176.0	291.0	53.198713327393314	
9.551850294489238	2206.0	-0.767351503457214	2124.0	1279.0	-2.1246478042326857	0.0	48406.0	1477.23388671875	-0.1275	470.0	-84.0	0.659919028340081	-0.8582995951417004	231.0	-3442.0	-10.490900749350054	-2.357967524106335	137.0	547.0	51.64129680166549	
9.503759226797149	2211.0	-0.814553510761466	2128.0	1283.0	-2.186313718911113	0.0	49046.0	1496.76513671875	-0.1275	470.0	-84.0	0.659919028340081	-0.8582995951417004	231.0	-3464.0	-12.738950909925066	-2.148384271335104	129.0	694.0	51.98097127467195	
9.776534905250445	2208.0	-0.9179380463841413	2136.0	1260.0	-2.1495090745257808	0.0	49686.0	1516.29638671875	-0.1275	470.0	-84.0	0.659919028340081	-0.8582995951417004	231.0	-3496.0	-19.085487077534793	-1.9302193736606559	131.0	1109.0	52.4741764007087	
9.717627749554616	2204.0	-0.8562726635859605	2131.0	1265.0	-2.100672067342438	0.0	50326.0	1535.82763671875	-0.09	485.0	-91.0	0.645748987854251	-0.8502024291497976	227.0	-3565.0	-21.669980119284297	-2.8064214052532006	194.0	1278.0	53.52418375280339	
9.64620991650498	2201.0	-0.8551988256923742	2131.0	1271.0	-2.06522019060181	0.0	50966.0	1555.35888671875	-0.09	485.0	-91.0	0.645748987854251	-0.8502024291497976	227.0	-3676.0	-23.07692307692308	-3.4439312637529444	238.0	1370.0	55.22104634027025	
9.801066241938681	2204.0	-0.8457567585126755	2130.0	1258.0	-2.0996273643171315	0.0	51606.0	1574.89013671875	-0.09	485.0	-91.0	0.645748987854251	-0.8502024291497976	227.0	-3765.0	-25.58495182749656	-3.6802702968629513	259.0	1534.0	56.584341995512276	
9.979475072358207	2200.0	-0.8620165737031327	2131.0	1243.0	-2.0499757012324085	0.0	52246.0	1594.42138671875	-0.0625	496.0	-78.0	0.6720647773279352	-0.8623481781376519	233.0	-3880.0	-23.520415965744	-4.241909190194173	289.0	1399.0	58.34334122726332	
9.837858429625689	2194.0	-0.7379665612407715	2121.0	1255.0	-1.97662171078398	0.0	52886.0	1613.95263671875	-0.0625	496.0	-78.0	0.6720647773279352	-0.8623481781376519	233.0	-4130.0	-16.638629759902127	-5.401449582197243	344.0	949.0	62.16786673787451	
9.899066073345946	2185.0	-0.5695831415958021	2107.0	1250.0	-1.864208231014119	0.0	53526.0	1633.48388671875	-0.0625	496.0	-78.0	0.6720647773279352	-0.8623481781376519	233.0	-4331.0	-13.901208135800582	-6.372333210729777	398.0	770.0	65.2423991168723	
9.780767765616607	2180.0	-0.494652009768045	2101.0	1260.0	-1.8036516275994356	0.0	54166.0	1653.01513671875	-0.0625	496.0	-78.0	0.6720647773279352	-0.8623481781376519	233.0	-4477.0	-11.83667227404802	-7.830809645558512	486.0	635.0	67.46810896661025	
9.866159104060152	2182.0	-0.28885149874681115	2084.0	1253.0	-1.8227780895367443	0.0	54806.0	1672.54638671875	-0.015	515.0	-83.0	0.6619433198380567	-0.8704453441295547	237.0	-4487.0	-10.6591221899373	-7.8332991016887785	483.0	558.0	67.6215289086302	
9.82075350078393	2190.0	-0.06750706446417767	2066.0	1257.0	-1.9151907990525288	0.0	55446.0	1692.07763671875	-0.015	515.0	-83.0	0.6619433198380567	-0.8704453441295547	237.0	-4533.0	-6.010093286435235	-8.61076643120055	521.0	254.0	68.31960048360882	
9.715588629791492	2195.0	0.13029155057782832	2050.0	1266.0	-1.9725274393170344	0.0	56086.0	1711.60888671875	-0.015	515.0	-83.0	0.6619433198380567	-0.8704453441295547	237.0	-4546.0	-1.3457715246979662	-8.737792386410929	517.0	-51.0	68.51780851161234	
9.894246082229719	2195.0	0.13889393725770346	2049.0	1251.0	-1.9705688170590547	0.0	56726.0	1731.14013671875	0.0575	544.0	-84.0	0.659919028340081	-0.8744939271255061	239.0	-4462.0	-3.517357394096957	-9.053328751614874	544.0	91.0	67.22571652067782	
9.644412192742532	2190.0	0.15550498853880507	2048.0	1272.0	-1.9124939710728832	0.0	57366.0	1750.67138671875	0.0575	544.0	-84.0	0.659919028340081	-0.8744939271255061	239.0	-4409.0	-7.187643370545956	-8.744593120933304	534.0	331.0	66.415546243104	
9.821480097458629	2186.0	0.005152603005640605	2060.0	1257.0	-1.865537568652048	0.0	58006.0	1770.20263671875	0.0575	544.0	-84.0	0.659919028340081	-0.8744939271255061	239.0	-4267.0	-18.397308456950604	-6.597966884864411	425.0	1064.0	64.25809582601096	
9.736682614326062	2171.0	-0.14126237691770693	2072.0	1264.0	-1.6885909515155753	0.0	58646.0	1789.73388671875	0.0575	544.0	-84.0	0.659919028340081	-0.8744939271255061	239.0	-4175.0	-27.573023398073104	-5.278636113359182	364.0	1664.0	62.85959663717852	
9.97547106317222	2179.0	-0.07194130182552935	2066.0	1244.0	-1.7812021876939448	0.0	59286.0	1809.26513671875	0.0975	560.0	-78.0	0.6720647773279352	-0.854251012145749	229.0	-4069.0	-30.952745068053222	-4.219735299761295	305.0	1885.0	61.24367037755326	
9.70086323665978	2179.0	-0.1517715721171076	2073.0	1267.0	-1.785544871364901	0.0	59926.0	1828.79638671875	0.0975	560.0	-78.0	0.6720647773279352	-0.854251012145749	229.0	-4115.0	-20.492430035173577	-5.87562068580357	385.0	1201.0	61.932957771966585	
9.5798866905326	2177.0	-0.34466428007329386	2089.0	1277.0	-1.7665161054431278	0.0	60566.0	1848.32763671875	0.0975	560.0	-78.0	0.6720647773279352	-0.854251012145749	229.0	-4216.0	-16.05750114696437	-6.299207144452583	400.0	911.0	63.47851475685071	
9.700502346995108	2183.0	-0.1878605385843694	2076.0	1267.0	-1.83446303067523	0.0	61206.0	1867.85888671875	0.14250000000000002	578.0	-79.0	0.6700404858299596	-0.8421052631578947	223.0	-4251.0	-21.960544425753174	-6.00695621213546	396.0	1297.0	64.01849419420826	
9.676937798645904	2180.0	-0.16336299255245024	2074.0	1269.0	-1.7980641469248309	0.0	61846.0	1887.39013671875	0.14250000000000002	578.0	-79.0	0.6700404858299596	-0.8421052631578947	223.0	-4293.0	-24.315644593974618	-6.103774193362335	408.0	1451.0	64.66199432803722	
9.688340515942592	2170.0	-0.21356745335993865	2078.0	1268.0	-1.6784722812571704	0.0	62486.0	1906.92138671875	0.14250000000000002	578.0	-79.0	0.6700404858299596	-0.8421052631578947	223.0	-4318.0	-23.85685884691849	-5.618396068773601	375.0	1421.0	65.05046020073624	
9.86649590699806	2158.0	-0.25517120495602297	2081.0	1253.0	-1.5329444891255253	0.0	63126.0	1926.45263671875	0.1925	598.0	-72.0	0.6842105263157895	-0.7813765182186235	193.0	-4256.0	-26.594280471020035	-5.391732548100061	368.0	1600.0	64.10136884913922	
9.819009533643992	2159.0	-0.2419037784579755	2080.0	1257.0	-1.5452021971001895	0.0	63766.0	1945.98388671875	0.1925	598.0	-72.0	0.6842105263157895	-0.7813765182186235	193.0	-4237.0	-24.713258908089923	-5.663999967482513	381.0	1477.0	63.807100985441025	
9.90185296638074	2171.0	-0.2908938381164004	2084.0	1250.0	-1.6899318772190024	0.0	64406.0	1965.51513671875	0.1925	598.0	-72.0	0.6842105263157895	-0.7813765182186235	193.0	-4231.0	-24.80501605750115	-5.659409471536171	381.0	1483.0	63.71507998845174	
9.92588224168622	2155.0	-0.26891868852089407	2082.0	1248.0	-1.4964809971366881	0.0	65046.0	1985.04638671875	0.1925	598.0	-72.0	0.6842105263157895	-0.7813765182186235	193.0	-4323.0	-23.535708823979203	-5.262870873158753	351.0	1400.0	65.13073787098301	
9.998877579094602	2152.0	-0.11224209053967771	2069.0	1242.0	-1.4564729334897268	0.0	150.0	2004.57763671875	0.225	611.0	-61.0	0.7064777327935223	-0.742914979757085	174.0	-4378.0	-22.664015904572565	-4.614041739044985	306.0	1343.0	65.98117276352102	
9.880576862692585	2145.0	-0.03755182597956802	2063.0	1252.0	-1.3718247859649546	0.0	790.0	2024.10888671875	0.225	611.0	-61.0	0.7064777327935223	-0.742914979757085	174.0	-4386.0	-20.737115766936842	-4.10787046274879	268.0	1217.0	66.10899034554899	
9.928829575820512	2173.0	0.02581472490838424	2058.0	1248.0	-1.707424325406278	0.0	1430.0	2043.64013671875	0.225	611.0	-61.0	0.7064777327935223	-0.742914979757085	174.0	-4313.0	-18.504358464597036	-5.01652985561116	322.0	1071.0	64.97975644457725	
9.978731113517657	2153.0	0.2540637327180636	2039.0	1244.0	-1.461396474451426	0.0	2070.0	2063.17138671875	0.27	629.0	-56.0	0.7165991902834008	-0.7611336032388664	183.0	-4285.0	-18.580822755773056	-5.547500442448705	357.0	1076.0	64.54480119628138	
9.847197940432487	2155.0	0.19598451943905543	2044.0	1255.0	-1.4879697759900266	0.0	2710.0	2082.70263671875	0.27	629.0	-56.0	0.7165991902834008	-0.7611336032388664	183.0	-4249.0	-19.605444257531733	-4.670437834743707	303.0	1143.0	64.00117041066592	
10.001316830164445	2153.0	0.13168301644452268	2049.0	1242.0	-1.4636182316104291	0.0	3350.0	2102.23388671875	0.27	629.0	-56.0	0.7165991902834008	-0.7611336032388664	183.0	-4060.0	-27.664780547484327	-3.9653420942556963	280.0	1670.0	61.10811395668519	
9.894113340866001	2186.0	0.12561980088577152	2050.0	1251.0	-1.8624018922603716	0.0	3990.0	2121.76513671875	0.27	629.0	-56.0	0.7165991902834008	-0.7611336032388664	183.0	-3893.0	-28.91879492277107	-3.520426749834713	256.0	1752.0	58.55003433922254	
10.096914744928352	2164.0	0.16766496902572975	2046.0	1234.0	-1.5944727338930933	0.0	4630.0	2141.29638671875	0.28750000000000003	636.0	-48.0	0.7327935222672065	-0.7327935222672065	169.0	-3829.0	-27.03777335984096	-3.0475157229458625	221.0	1629.0	57.57271649537144	
9.858618722774246	2160.0	0.14758656313892227	2048.0	1254.0	-1.5490644911480334	0.0	5270.0	2160.82763671875	0.28750000000000003	636.0	-48.0	0.7327935222672065	-0.7327935222672065	169.0	-3870.0	-19.284294234592448	-3.917620075672692	257.0	1122.0	58.19313928182729	
9.801316771172946	2173.0	0.36977235538985037	2030.0	1259.0	-1.701820300843124	0.0	5910.0	2180.35888671875	0.28750000000000003	636.0	-48.0	0.7327935222672065	-0.7327935222672065	169.0	-3875.0	-14.237651016975073	-3.9818063699677815	248.0	792.0	58.26921983717496	
9.754175631111154	2157.0	0.41756311111545186	2026.0	1263.0	-1.5085648127918807	0.0	6550.0	2199.89013671875	0.32	649.0	-38.0	0.7530364372469636	-0.6518218623481782	129.0	-3852.0	-12.341336595809757	-3.454274762227108	209.0	668.0	57.921572029115495	
9.767048402465974	2153.0	0.5143640561211315	2018.0	1262.0	-1.4583072950938814	0.0	7190.0	2219.42138671875	0.32	649.0	-38.0	0.7530364372469636	-0.6518218623481782	129.0	-3761.0	-12.815415201101088	-4.082721995209102	252.0	699.0	56.51893954389631	
9.695764515116394	2160.0	0.5288324640204736	2017.0	1268.0	-1.5430681152069805	0.0	7830.0	2238.95263671875	0.32	649.0	-38.0	0.7530364372469636	-0.6518218623481782	129.0	-3555.0	-14.421165315797523	-4.325267575192822	274.0	804.0	53.35555045452274	
9.970249234955823	2159.0	0.5963520670107093	2011.0	1245.0	-1.5269246831776975	0.0	8470.0	2258.48388671875	0.3375	656.0	-26.0	0.7773279352226721	-0.6437246963562753	125.0	-3449.0	-12.861293775806699	-4.740529731134135	298.0	702.0	51.72488256520209	
9.88850171891281	2146.0	0.75493379604298	1998.0	1252.0	-1.3679440177333857	0.0	9110.0	2278.01513671875	0.3375	656.0	-26.0	0.7773279352226721	-0.6437246963562753	125.0	-3438.0	-8.258143447010246	-4.753761790145042	287.0	401.0	51.55596092437261	
9.82922644753428	2140.0	0.7797876105709569	1996.0	1257.0	-1.2957505375301055	0.0	9750.0	2297.54638671875	0.3375	656.0	-26.0	0.7773279352226721	-0.6437246963562753	125.0	-3370.0	-1.2846000917571496	-4.8069124760120365	273.0	-55.0	50.51200452876144	
9.642679767508858	2132.0	1.1727386556477901	1964.0	1273.0	-1.1933714412601484	0.0	10390.0	2317.07763671875	0.3375	656.0	-26.0	0.7773279352226721	-0.6437246963562753	125.0	-3208.0	1.330478666462762	-4.625177505270367	256.0	-226.0	48.028015525852624	
9.72723705897709	2150.0	1.295134469137571	1954.0	1266.0	-1.4069454219551887	0.0	11030.0	2336.60888671875	0.37	669.0	-29.0	0.771255060728745	-0.6376518218623481	122.0	-2974.0	0.21410001529285827	-2.7912232900193708	142.0	-153.0	44.455745892003904	
9.762451742305347	2146.0	1.2451742305346722	1958.0	1263.0	-1.3593997088096266	0.0	11670.0	2356.14013671875	0.37	669.0	-29.0	0.771255060728745	-0.6376518218623481	122.0	-2637.0	-8.334607738186268	-0.982578037077219	50.0	406.0	39.30274135174524	
9.704403924647938	2147.0	1.3927734171746031	1946.0	1268.0	-1.3690763960244863	0.0	12310.0	2375.67138671875	0.37	669.0	-29.0	0.771255060728745	-0.6376518218623481	122.0	-2347.0	-10.980272212876587	-0.6169375351442199	36.0	579.0	34.85649749590834	
9.668209205280926	2147.0	1.3447300519020566	1950.0	1271.0	-1.3703992105236074	0.0	12950.0	2395.20263671875	0.3725	670.0	-36.0	0.757085020242915	-0.6437246963562753	125.0	-2007.0	-8.609879186419942	-0.551912772047662	29.0	424.0	29.64002329977684	
9.487874024201362	2171.0	1.168354801088686	1965.0	1286.0	-1.6648866938566944	0.0	13590.0	2414.73388671875	0.3725	670.0	-36.0	0.757085020242915	-0.6437246963562753	125.0	-1712.0	-6.453586175256156	0.12999924068096905	-18.0	283.0	25.12021974075728	
9.62910930355146	2164.0	1.0061684503840604	1978.0	1274.0	-1.5823807186796954	0.0	14230.0	2434.26513671875	0.3725	670.0	-36.0	0.757085020242915	-0.6437246963562753	125.0	-1469.0	-7.432329102309223	0.2525705425765066	-21.0	347.0	21.392735924851884	
9.651209819524224	2166.0	0.8352676667080916	1992.0	1272.0	-1.6096741147356561	0.0	14870.0	2453.79638671875	0.3725	670.0	-36.0	0.757085020242915	-0.6437246963562753	125.0	-1366.0	-10.307386450527604	0.6909787915439529	-41.0	535.0	19.81663819055469	
9.543126518469611	2177.0	0.7412232755325876	2000.0	1281.0	-1.7451659560516402	0.0	15510.0	2473.32763671875	0.385	675.0	-37.0	0.7550607287449392	-0.631578947368421	119.0	-1277.0	0.9940357852882705	-0.5164132124718972	9.0	-204.0	18.43890522494142	
9.495006546705403	2158.0	0.6911308610165674	2004.0	1285.0	-1.5177333414090002	0.0	16150.0	2492.85888671875	0.385	675.0	-37.0	0.7550607287449392	-0.631578947368421	119.0	-1202.0	2.0645358617525615	-0.6553866976318679	16.0	-274.0	17.28667921573045	
9.574808442706964	2175.0	0.33798712783928986	2033.0	1278.0	-1.7288174742209639	0.0	16790.0	2512.39013671875	0.385	675.0	-37.0	0.7550607287449392	-0.631578947368421	119.0	-1056.0	3.0738645052760365	-2.1960454709485213	115.0	-340.0	15.030978013911048	
9.360207301593107	2181.0	0.3064444450248478	2036.0	1296.0	-1.8038834959148973	0.0	17430.0	2531.92138671875	0.3975	680.0	-49.0	0.7307692307692307	-0.6295546558704453	118.0	-884.0	2.5692001835142992	-3.0415522708237326	173.0	-307.0	12.38327175671481	
9.42107573370278	2194.0	0.4409067036113817	2025.0	1291.0	-1.9572120724461661	0.0	18070.0	2551.45263671875	0.3975	680.0	-49.0	0.7307692307692307	-0.6295546558704453	118.0	-770.0	-2.9515216393944033	-2.311071770273995	141.0	54.0	10.64130542469407	
9.526115089349528	2186.0	0.23055655400038574	2042.0	1282.0	-1.8639831397132438	0.0	18710.0	2570.98388671875	0.3975	680.0	-49.0	0.7307692307692307	-0.6295546558704453	118.0	-625.0	-5.841871845847989	-1.8809885402236233	122.0	243.0	8.420656126566461	
9.561101624376832	2195.0	0.15778148530215716	2048.0	1279.0	-1.9735225106766945	0.0	19350.0	2590.51513671875	0.395	679.0	-50.0	0.728744939271255	-0.611336032388664	109.0	-481.0	-2.110414436458174	-1.9927573543653148	121.0	-1.0	6.209932791655059	
9.550061001081154	2202.0	0.24419534621073102	2041.0	1280.0	-2.05624198908907	0.0	19990.0	2610.04638671875	0.395	679.0	-50.0	0.728744939271255	-0.611336032388664	109.0	-383.0	-0.8258143447010247	-2.075242262214214	124.0	-85.0	4.705348544080328	
9.406737725635182	2196.0	0.1975820873278285	2045.0	1292.0	-1.9863183303946816	0.0	20630.0	2629.57763671875	0.395	679.0	-50.0	0.728744939271255	-0.611336032388664	109.0	-301.0	-5.337207524086252	-1.4977055899866916	99.0	210.0	3.4528762508363617	
9.630211743384006	2205.0	-0.07406375683752142	2067.0	1273.0	-2.0979502420402594	0.0	21270.0	2649.10888671875	0.395	679.0	-50.0	0.728744939271255	-0.611336032388664	109.0	-228.0	-7.38645052760361	-1.5737315319140297	110.0	344.0	2.33196868437397	
9.629604640373307	2207.0	-0.13477405790746827	2072.0	1273.0	-2.1232669046339345	0.0	21910.0	2668.64013671875	0.39	677.0	-45.0	0.7388663967611336	-0.6295546558704453	118.0	-203.0	-3.043278788805628	-2.035838798635698	129.0	60.0	1.9437355202536308	
9.690940208111932	2203.0	0.04640176357413839	2057.0	1268.0	-2.0708372614425783	0.0	22550.0	2688.17138671875	0.39	677.0	-45.0	0.7388663967611336	-0.6295546558704453	118.0	-131.0	-0.3976143141153082	-1.8691357886490811	112.0	-113.0	0.8405997269685038	
9.370168868903779	2189.0	0.11212498561595963	2052.0	1295.0	-1.9040558115986428	0.0	23190.0	2707.70263671875	0.39	677.0	-45.0	0.7388663967611336	-0.6295546558704453	118.0	-21.0	-3.150328796452057	-0.6962726394810776	44.0	67.0	-0.8355648439335557	
9.619521170725957	2199.0	0.04735516783390112	2057.0	1274.0	-2.0233396126469056	0.0	23830.0	2727.23388671875	0.3775	672.0	-46.0	0.7368421052631579	-0.6659919028340081	136.0	167.0	-9.787429270530662	-0.10973691600205437	25.0	501.0	-3.7144624144262472	
9.51131717167101	2211.0	-0.058759023375298064	2066.0	1283.0	-2.171122249714651	0.0	24470.0	2746.76513671875	0.3775	672.0	-46.0	0.7368421052631579	-0.6659919028340081	136.0	277.0	-10.200336442881175	-0.6915734688202928	65.0	528.0	-5.40817398234817	
9.5223614079757	2207.0	-0.14481158338240088	2073.0	1282.0	-2.1245400874674094	0.0	25110.0	2766.29638671875	0.3775	672.0	-46.0	0.7368421052631579	-0.6659919028340081	136.0	457.0	-9.879186419941888	-0.7690851412947137	71.0	507.0	-8.170956157535397	
9.688860642370424	2197.0	-0.16155481057662394	2074.0	1268.0	-2.0027280319565026	0.0	25750.0	2785.82763671875	0.3775	672.0	-46.0	0.7368421052631579	-0.6659919028340081	136.0	570.0	-10.414436458174034	-0.6072940612614545	63.0	542.0	-9.903264900103178	
9.579073117275035	2210.0	-0.4260216058297443	2096.0	1277.0	-2.1657417491366155	0.0	26390.0	2805.35888671875	0.3725	670.0	-48.0	0.7327935222672065	-0.6437246963562753	125.0	638.0	-10.827343630524545	-0.8725797257244149	82.0	569.0	-10.949342645500302	
9.649396237967272	2215.0	-0.5365666794633529	2105.0	1271.0	-2.2274903832577873	0.0	27030.0	2824.89013671875	0.3725	670.0	-48.0	0.7327935222672065	-0.6437246963562753	125.0	720.0	-14.451751032267932	0.5154201577395929	2.0	806.0	-12.193710306631903	
9.6747640303035	2197.0	-0.38073982679278673	2092.0	1269.0	-2.007252698401495	0.0	27670.0	2844.42138671875	0.3725	670.0	-48.0	0.7327935222672065	-0.6437246963562753	125.0	672.0	-8.151093439363818	0.5790493655272757	-19.0	394.0	-11.456538798964031	
9.766928205922753	2191.0	-0.6881317886771097	2117.0	1261.0	-1.9401897392564833	0.0	28310.0	2863.95263671875	0.34500000000000003	659.0	-38.0	0.7530364372469636	-0.6437246963562753	125.0	622.0	-6.117143294081664	1.0591143201285842	-56.0	261.0	-10.684513966511773	
9.600052425490958	2192.0	-0.7090431651898563	2119.0	1275.0	-1.9543249173621406	0.0	28950.0	2883.48388671875	0.34500000000000003	659.0	-38.0	0.7530364372469636	-0.6437246963562753	125.0	484.0	-5.536014681143906	0.13799771339067893	1.0	223.0	-8.576186387757916	
9.69525693350906	2180.0	-0.7124018871891504	2119.0	1267.0	-1.8088617334689332	0.0	29590.0	2903.01513671875	0.34500000000000003	659.0	-38.0	0.7530364372469636	-0.6437246963562753	125.0	338.0	-5.0466432176173734	1.2034352846562895	-71.0	191.0	-6.325237397959023	
9.70691068149713	2176.0	-0.7375032788586591	2121.0	1266.0	-1.7610544527381053	0.0	30230.0	2922.54638671875	0.34750000000000003	660.0	-38.0	0.7530364372469636	-0.6538461538461539	130.0	90.0	4.985471784676556	0.6564753188954497	-64.0	-465.0	-2.525275050401655	
9.611453938451307	2181.0	-0.7593680596311683	2123.0	1274.0	-1.8226872796394356	0.0	30870.0	2942.07763671875	0.34750000000000003	660.0	-38.0	0.7530364372469636	-0.6538461538461539	130.0	-221.0	12.647193760513842	0.05622913814667352	-48.0	-966.0	2.240856905467703	
9.553654742812602	2186.0	-0.586906671120905	2109.0	1279.0	-1.880057007681039	0.0	31510.0	2961.60888671875	0.34750000000000003	660.0	-38.0	0.7530364372469636	-0.6538461538461539	130.0	-432.0	15.354029668144978	-0.4074020221417127	-27.0	-1143.0	5.473906645729174	
9.484691817205205	2197.0	-0.34034208900341034	2089.0	1285.0	-2.0083454657766904	0.0	32150.0	2981.14013671875	0.34750000000000003	660.0	-38.0	0.7530364372469636	-0.6538461538461539	130.0	-476.0	18.611408472243465	-1.3288512953120448	24.0	-1356.0	6.139849433954967	
9.581254111635467	2199.0	-0.20792216978646572	2078.0	1277.0	-2.028827829990218	0.0	32790.0	3000.67138671875	0.34750000000000003	660.0	-47.0	0.7348178137651822	-0.6720647773279352	139.0	-433.0	17.78559412754244	-1.504554507616797	38.0	-1302.0	5.478279604532547	
9.616970856346486	2207.0	-0.207676270113405	2078.0	1274.0	-2.124851286718321	0.0	33430.0	3020.20263671875	0.34750000000000003	660.0	-47.0	0.7348178137651822	-0.6720647773279352	139.0	-348.0	12.601315185808229	-1.4533503969817425	49.0	-963.0	4.174510534698283	
9.592212575693631	2225.0	-0.302551954446377	2086.0	1276.0	-2.3438638530910274	0.0	34070.0	3039.73388671875	0.34750000000000003	660.0	-47.0	0.7348178137651822	-0.6720647773279352	139.0	-225.0	4.266707447621961	-1.531787497618769	77.0	-418.0	2.2863546737425477	
9.758845755788414	2225.0	-0.3059006116348444	2086.0	1262.0	-2.3422644944338487	0.0	34710.0	3059.26513671875	0.36	665.0	-48.0	0.7327935222672065	-0.6781376518218624	142.0	-140.0	0.474078605291329	-1.5670052465434756	90.0	-170.0	0.981721385312684	
9.853937996160546	2221.0	-0.3204860982310679	2087.0	1254.0	-2.293412510677715	0.0	35350.0	3078.79638671875	0.36	665.0	-48.0	0.7327935222672065	-0.6781376518218624	142.0	-163.0	1.2081358005811287	-1.5845127659597076	89.0	-218.0	1.3344694342553947	
9.722407231748052	2225.0	-0.3783244442424287	2092.0	1265.0	-2.3440773563264043	0.0	35990.0	3098.32763671875	0.36	665.0	-48.0	0.7327935222672065	-0.6781376518218624	142.0	-171.0	3.1656216546872615	-1.0180419527368731	47.0	-346.0	1.4628900116526222	
9.746447346080574	2218.0	-0.3552653919425093	2090.0	1263.0	-2.25903842473949	0.0	36630.0	3117.85888671875	0.36	665.0	-48.0	0.7327935222672065	-0.6781376518218624	142.0	-190.0	2.202171585869399	-0.8901386988958647	41.0	-283.0	1.7557142336954055	
9.627410398313152	2207.0	-0.3541982639228073	2090.0	1273.0	-2.127677331174843	0.0	37270.0	3137.39013671875	0.37	669.0	-51.0	0.7267206477732794	-0.6821862348178138	144.0	-157.0	2.9209359229239946	-0.8215389594360917	35.0	-330.0	1.2500322703718814	
9.698580813680424	2207.0	-0.38001387005290244	2092.0	1267.0	-2.127481939143772	0.0	37910.0	3156.92138671875	0.37	669.0	-51.0	0.7267206477732794	-0.6821862348178138	144.0	-121.0	1.9727787123413367	-0.27052954463937046	2.0	-268.0	0.703140952827352	
9.399430811452701	2202.0	-0.5331093309203596	2105.0	1292.0	-2.0732943845279763	0.0	38550.0	3176.45263671875	0.37	669.0	-51.0	0.7267206477732794	-0.6821862348178138	144.0	-144.0	3.502064535861753	-0.6274572448624857	21.0	-368.0	1.0524947999619938	
9.556717957601878	2199.0	-0.2805851921932263	2084.0	1279.0	-2.030526451978689	0.0	39190.0	3195.98388671875	0.37	669.0	-59.0	0.7105263157894737	-0.6781376518218624	142.0	-102.0	0.764642911760208	-0.911425770913867	47.0	-189.0	0.4051868010602338	
9.271792491459443	2199.0	-0.20170323500788334	2078.0	1303.0	-2.0317980674964065	0.0	39830.0	3215.51513671875	0.37	669.0	-59.0	0.7105263157894737	-0.6781376518218624	142.0	-142.0	2.768007340571953	-1.612917947703386	87.0	-320.0	1.0119512256173349	
9.510095739631582	2209.0	-0.1809022273181338	2076.0	1283.0	-2.1494809425717336	0.0	40470.0	3235.04638671875	0.37	669.0	-59.0	0.7105263157894737	-0.6781376518218624	142.0	-77.0	0.8564000611714331	-1.5726305175469606	90.0	-195.0	0.014962662140780205	
9.355238209861543	2205.0	-0.19046472813165616	2077.0	1296.0	-2.1030279968013668	0.0	41110.0	3254.57763671875	0.3775	672.0	-57.0	0.7145748987854251	-0.6477732793522267	127.0	-98.0	1.804557271754091	-1.9829120926158532	114.0	-257.0	0.3330940032107143	
9.52173985292894	2197.0	-0.20696708805823189	2078.0	1282.0	-2.0053074854005497	0.0	41750.0	3274.10888671875	0.3775	672.0	-57.0	0.7145748987854251	-0.6477732793522267	127.0	-22.0	-2.385685884691849	-2.034369146344272	129.0	17.0	-0.8336013253440627	
9.48519026557895	2206.0	-0.29049725162892187	2085.0	1285.0	-2.1157773194852227	0.0	42390.0	3293.64013671875	0.3775	672.0	-57.0	0.7145748987854251	-0.6477732793522267	127.0	26.0	-1.6975072641076618	-1.7930568392010757	112.0	-28.0	-1.567723417862626	
9.651334631990693	2205.0	-0.3427272771212883	2089.0	1271.0	-2.103112283559868	0.0	43030.0	3313.17138671875	0.3775	672.0	-57.0	0.7145748987854251	-0.6477732793522267	127.0	-1.0	-1.6363358311668452	-1.3689861454017473	84.0	-32.0	-1.1491816521552607	
9.55611808060921	2207.0	-0.340572891460231	2089.0	1279.0	-2.1281177469026304	0.0	43670.0	3332.70263671875	0.38	673.0	-59.0	0.7105263157894737	-0.6578947368421053	132.0	-47.0	-0.22939287352806242	-1.6937880770382507	101.0	-124.0	-0.44658342319787986	
9.721415152345916	2211.0	-0.4775323844561109	2100.0	1265.0	-2.1773967371295186	0.0	44310.0	3352.23388671875	0.38	673.0	-59.0	0.7105263157894737	-0.6578947368421053	132.0	2.0	-2.553907325279095	-1.3933495103301685	88.0	28.0	-1.1954587367789193	
9.615388534642385	2209.0	-0.3659084405235026	2091.0	1274.0	-2.152128138885733	0.0	44950.0	3371.76513671875	0.38	673.0	-59.0	0.7105263157894737	-0.6578947368421053	132.0	-51.0	-1.3457715246979662	-2.095791727631542	130.0	-51.0	-0.3892255250713132	
9.687908306067449	2216.0	-0.2567884408741247	2082.0	1268.0	-2.233557890576085	0.0	45590.0	3391.29638671875	0.375	671.0	-64.0	0.7004048582995952	-0.680161943319838	143.0	-39.0	-2.370393026456645	-1.0224621871955373	63.0	16.0	-0.5626260335644521	
9.508399945945172	2218.0	-0.3504815959589844	2090.0	1283.0	-2.261323222821174	0.0	46230.0	3410.82763671875	0.375	671.0	-64.0	0.7004048582995952	-0.680161943319838	143.0	-29.0	-0.9634500688178621	-0.6003979481307872	32.0	-76.0	-0.7118502277550536	
9.61527385832374	2215.0	-0.3773760723880793	2092.0	1274.0	-2.224647794912717	0.0	46870.0	3430.35888671875	0.375	671.0	-64.0	0.7004048582995952	-0.680161943319838	143.0	-40.0	-1.3916500994035788	-0.49267511908393513	26.0	-48.0	-0.5419836792252111	
9.544225345293144	2215.0	-0.3393702325904653	2089.0	1280.0	-2.2245981632470704	0.0	47510.0	3449.89013671875	0.375	671.0	-64.0	0.7004048582995952	-0.680161943319838	143.0	-98.0	0.030585716470408322	-0.8968334118766408	48.0	-141.0	0.3439547900181064	
9.485202308942332	2216.0	-0.28929291529068507	2085.0	1285.0	-2.2362350400356674	0.0	48150.0	3469.42138671875	0.3775	672.0	-53.0	0.7226720647773279	-0.6477732793522267	127.0	-75.0	-0.36702859764489987	-1.2157771891582445	70.0	-115.0	-0.012157771891582446	
9.687167257356693	2208.0	-0.3308933119498272	2088.0	1268.0	-2.138661856316032	0.0	48790.0	3488.95263671875	0.3775	672.0	-53.0	0.7226720647773279	-0.6477732793522267	127.0	-37.0	-2.4315644593974617	-0.8966630290422619	55.0	20.0	-0.592057009299169	
9.62776767496881	2200.0	-0.3184705983570165	2087.0	1273.0	-2.04262185569938	0.0	49430.0	3508.48388671875	0.3775	672.0	-53.0	0.7226720647773279	-0.6477732793522267	127.0	-86.0	-0.0764642911760208	-1.3367512994018778	77.0	-134.0	0.15542180724535518	
9.56923947398273	2207.0	-0.21890974458421886	2079.0	1278.0	-2.125553270031375	0.0	50070.0	3528.01513671875	0.37	669.0	-41.0	0.7469635627530364	-0.6396761133603239	123.0	-50.0	-0.24468573176326658	-1.4014032068946485	82.0	-123.0	-0.3976261235220691	
9.5206595926076	2211.0	-0.3149931201923699	2087.0	1282.0	-2.1761535074416267	0.0	50710.0	3547.54638671875	0.37	669.0	-41.0	0.7469635627530364	-0.6396761133603239	123.0	-58.0	-0.5046643217617374	-1.6844660445145498	101.0	-106.0	-0.2777008826332689	
9.496845217903354	2203.0	-0.3154782096646068	2087.0	1284.0	-2.080015810809439	0.0	51350.0	3567.07763671875	0.37	669.0	-41.0	0.7469635627530364	-0.6396761133603239	123.0	-84.0	-1.819850129989295	-1.8358022798152605	114.0	-20.0	0.11974233012497155	
9.60408845030096	2203.0	-0.3054406841896742	2086.0	1275.0	-2.078742627975964	0.0	51990.0	3586.60888671875	0.3625	666.0	-48.0	0.7327935222672065	-0.631578947368421	119.0	-101.0	-3.043278788805628	-1.9125240145893065	122.0	60.0	0.3798313349653545	
9.736106824060156	2199.0	-0.1988414035082381	2077.0	1264.0	-2.0270976875404063	0.0	52630.0	3606.14013671875	0.3625	666.0	-48.0	0.7327935222672065	-0.631578947368421	119.0	-89.0	-2.966814497629607	-1.8829797048587715	120.0	55.0	0.19599297416516098	
9.881119871510844	2191.0	0.016749055846396604	2059.0	1252.0	-1.9249502057101324	0.0	53270.0	3625.67138671875	0.3625	666.0	-48.0	0.7327935222672065	-0.631578947368421	119.0	-86.0	-3.37972166998012	-0.9431621321250633	60.0	82.0	0.15935769891812332	
9.955672239560226	2165.0	0.3291287179274132	2033.0	1246.0	-1.6047040767398255	0.0	53910.0	3645.20263671875	0.3625	666.0	-48.0	0.7327935222672065	-0.631578947368421	119.0	-86.0	-2.355100168221441	0.20017183853611897	-17.0	15.0	0.17079103862473516	
10.554548034281577	2147.0	0.6928986662528587	2002.0	1196.0	-1.3745724499465848	0.0	54550.0	3664.73388671875	0.365	667.0	-46.0	0.7368421052631579	-0.645748987854251	126.0	53.0	-4.067900290564307	1.6281255333216138	-104.0	127.0	-1.9478126529067719	
10.309853312316157	2158.0	1.2234264697109305	1959.0	1217.0	-1.4989389615790054	0.0	55190.0	3684.26513671875	0.365	667.0	-46.0	0.7368421052631579	-0.645748987854251	126.0	155.0	-3.1962073711576697	8.714799507250817	-566.0	70.0	-3.44208324629622	
10.363420350467926	2145.0	1.8182255229829407	1910.0	1213.0	-1.329880804107951	0.0	55830.0	3703.79638671875	0.365	667.0	-46.0	0.7368421052631579	-0.645748987854251	126.0	277.0	4.878421777030128	12.440311268024322	-828.0	-458.0	-5.276855134979724	
9.91854345035742	2126.0	2.5686307500276366	1849.0	1251.0	-1.0904058059175599	0.0	56470.0	3723.32763671875	0.3625	666.0	-47.0	0.7348178137651822	-0.659919028340081	133.0	257.0	20.048937146352657	15.10657414269195	-1041.0	-1450.0	-4.9433028330705495	
9.531721593922354	2112.0	3.172159392235345	1800.0	1284.0	-0.9135287528425756	0.0	57110.0	3742.85888671875	0.3625	666.0	-47.0	0.7348178137651822	-0.659919028340081	133.0	317.0	35.081816791558346	17.067722847082795	-1207.0	-2433.0	-5.844360365514135	
9.097964803305848	2152.0	3.84409937820383	1746.0	1321.0	-1.3863552318727443	0.0	57750.0	3762.39013671875	0.3625	666.0	-47.0	0.7348178137651822	-0.659919028340081	133.0	529.0	46.85731763266555	15.491104363167885	-1133.0	-3203.0	-9.113157085875763	
9.090069554036962	2139.0	4.24505064179142	1713.0	1322.0	-1.2217886530695852	0.0	58390.0	3781.92138671875	0.3625	666.0	-47.0	0.7348178137651822	-0.659919028340081	133.0	941.0	50.09940357852883	13.840433629945094	-1030.0	-3415.0	-15.451591060355451	
9.186359139721757	2117.0	4.350199686461559	1704.0	1314.0	-0.9536625353554788	0.0	59030.0	3801.45263671875	0.41250000000000003	686.0	-60.0	0.708502024291498	-0.6659919028340081	136.0	1507.0	52.25569658969262	10.380371694120049	-805.0	-3556.0	-24.1711694302124	
9.577410243513972	2100.0	4.169595779968477	1718.0	1281.0	-0.7485448253389847	0.0	59670.0	3820.98388671875	0.41250000000000003	686.0	-60.0	0.708502024291498	-0.6659919028340081	136.0	2220.0	45.90916042208289	8.636445604699997	-668.0	-3141.0	-35.129225539349655	
