Device	Device	Device	Device	Device	Device	Device	Device	Device	Device	Device	Device	Device	Device	Device	Device	Device	Device	Device	Device	Device	
Low Noise Accelerometer X	Low Noise Accelerometer X	Low Noise Accelerometer Z	Low Noise Accelerometer Z	Low Noise Accelerometer Y	Low Noise Accelerometer Y	Event_Marker	Timestamp	Timestamp	Magnetometer Z	Magnetometer Z	Magnetometer X	Magnetometer X	Magnetometer Y	Magnetometer Y	Gyroscope Y	Gyroscope Y	Gyroscope Z	Gyroscope Z	Gyroscope X	Gyroscope X	
CAL	UNCAL	CAL	UNCAL	UNCAL	CAL	CAL	CAL	UNCAL	UNCAL	CAL	CAL	UNCAL	CAL	UNCAL	CAL	UNCAL	CAL	UNCAL	UNCAL	CAL	
m/(s^2)	no units	m/(s^2)	no units	no units	m/(s^2)	no units	ms	no units	no units	local_flux	local_flux	no units	local_flux	no units	deg/s	no units	deg/s	no units	no units	deg/s	
9.158483484812905	2288.0	0.37215800510005304	2032.0	1313.0	-3.0937430893872193	0.0	1471.13037109375	48206.0	551.0	0.075	0.576923076923077	-125.0	-0.8825910931174089	243.0	-3.3032573788040986	-1106.0	1.3735759595565533	-101.0	77.0	15.833898411122345	
9.19261188613813	2293.0	0.2135695661938979	2045.0	1310.0	-3.1568145380075117	0.0	1490.66162109375	48846.0	551.0	0.075	0.576923076923077	-125.0	-0.8825910931174089	243.0	-6.851200489371465	-1055.0	1.8616800357025902	-123.0	309.0	15.056210785319433	
9.276426924559264	2302.0	0.26174007497415264	2041.0	1303.0	-3.2634467123874544	0.0	1510.19287109375	49486.0	550.0	0.0725	0.5647773279352227	-131.0	-0.9129554655870445	258.0	-4.863128918794923	-1162.0	1.4888953739053494	-105.0	179.0	16.694342690120823	
9.193097086812154	2291.0	0.26208963359632587	2041.0	1310.0	-3.1317428991105545	0.0	1529.72412109375	50126.0	550.0	0.0725	0.5647773279352227	-131.0	-0.9129554655870445	258.0	-0.9022786358770455	-1383.0	0.4506301915591303	-50.0	-80.0	20.075090926742966	
9.001918117993075	2283.0	0.19181179930744333	2047.0	1326.0	-3.038674703315848	0.0	1549.25537109375	50766.0	550.0	0.0725	0.5647773279352227	-131.0	-0.9129554655870445	258.0	-1.6669215476372536	-1455.0	0.22407455320293307	-34.0	-30.0	21.177628193744397	
9.013334082989482	2284.0	0.14293210847201537	2051.0	1325.0	-3.051586330253677	0.0	1568.78662109375	51406.0	560.0	0.0975	0.5668016194331984	-130.0	-0.8663967611336032	235.0	-7.401743385838814	-1568.0	0.48224908939805566	-37.0	345.0	22.914136592474467	
9.085599210714154	2282.0	0.22658773808194246	2044.0	1319.0	-3.025094180842063	0.0	1588.31787109375	52046.0	560.0	0.0975	0.5668016194331984	-130.0	-0.8663967611336032	235.0	-9.542743538767397	-1731.0	0.3736837059581429	-26.0	485.0	25.414201774914428	
9.289654563897066	2289.0	0.3940278182779758	2030.0	1302.0	-3.104042175103903	0.0	1607.84912109375	52686.0	560.0	0.0975	0.5668016194331984	-130.0	-0.8663967611336032	235.0	-11.591986542284754	-1801.0	1.2908442601460135	-81.0	619.0	26.497487236525046	
9.08781753950107	2302.0	0.4484206167737551	2026.0	1319.0	-3.2615991954020442	0.0	1627.38037109375	53326.0	560.0	0.0975	0.5668016194331984	-130.0	-0.8663967611336032	235.0	-10.337972166998012	-1972.0	0.6761273787997415	-46.0	537.0	29.11524677325094	
9.231116728220277	2288.0	0.4926252029801841	2022.0	1307.0	-3.090607412995543	0.0	1646.91162109375	53966.0	569.0	0.12	0.5748987854251012	-126.0	-0.8603238866396761	232.0	-9.58862211347301	-2064.0	1.108842895569985	-77.0	488.0	30.531266424966134	
9.377240144400766	2291.0	0.8192525353145488	1995.0	1295.0	-3.118758210500304	0.0	1666.44287109375	54606.0	569.0	0.12	0.5748987854251012	-126.0	-0.8603238866396761	232.0	-9.833307845236275	-2012.0	1.8956432205495903	-127.0	504.0	29.74122127799344	
9.234777411329548	2291.0	0.8586935139072202	1992.0	1307.0	-3.119394018259163	0.0	1685.97412109375	55246.0	569.0	0.12	0.5748987854251012	-126.0	-0.8603238866396761	232.0	-6.560636182902585	-1932.0	1.9000694894341499	-135.0	290.0	28.51370684803229	
9.283602301714366	2288.0	0.9792777904842325	1982.0	1303.0	-3.080349505510521	0.0	1705.50537109375	55886.0	573.0	0.13	0.5728744939271255	-127.0	-0.8461538461538461	225.0	-10.016822144058725	-1821.0	3.685689124564818	-241.0	516.0	26.828325358331732	
9.080286792905872	2288.0	0.885822147730078	1990.0	1320.0	-3.0842517734536887	0.0	1725.03662109375	56526.0	573.0	0.13	0.5728744939271255	-127.0	-0.8461538461538461	225.0	-15.094051078146506	-1770.0	3.850440746777391	-238.0	848.0	26.04740420798949	
9.56695026349805	2294.0	0.7426453974240868	2001.0	1279.0	-3.1545378303803933	0.0	1744.56787109375	57166.0	573.0	0.13	0.5728744939271255	-127.0	-0.8461538461538461	225.0	-18.07615843401132	-1761.0	3.4635305223656863	-205.0	1043.0	25.90543475282225	
9.651974690595233	2295.0	0.9117547738089407	1987.0	1272.0	-3.1623535913528085	0.0	1764.09912109375	57806.0	573.0	0.13	0.5728744939271255	-127.0	-0.8461538461538461	225.0	-13.625936687566908	-1978.0	2.4524482891841757	-153.0	752.0	29.225076884303537	
9.49781726210045	2265.0	0.9722024005211154	1982.0	1285.0	-2.8012404299709828	0.0	1783.63037109375	58446.0	577.0	0.14	0.5425101214574899	-142.0	-0.8522267206477733	228.0	-11.010857929346995	-2002.0	3.2516352282859495	-212.0	581.0	29.601336361489555	
9.625099509774387	2276.0	0.6051890726766722	2012.0	1274.0	-2.93983799453306	0.0	1803.16162109375	59086.0	577.0	0.14	0.5425101214574899	-142.0	-0.8522267206477733	228.0	-15.32344395167457	-1763.0	6.183176883563734	-389.0	863.0	25.96332018375048	
9.672238241163502	2290.0	0.5571574496834233	2016.0	1270.0	-3.109001938474214	0.0	1822.69287109375	59726.0	577.0	0.14	0.5425101214574899	-142.0	-0.8522267206477733	228.0	-13.992965285211808	-1893.0	6.002352248419667	-382.0	776.0	27.956294812955274	
9.671250979106718	2280.0	0.4584312440050358	2024.0	1270.0	-2.990504407497507	0.0	1842.22412109375	60366.0	587.0	0.165	0.5668016194331984	-130.0	-0.8744939271255061	239.0	-11.484936534638326	-2143.0	5.955968020982881	-388.0	612.0	31.791951885212136	
9.647802311412496	2272.0	0.4945168555353554	2021.0	1272.0	-2.893631639775168	0.0	1861.75537109375	61006.0	587.0	0.165	0.5668016194331984	-130.0	-0.8744939271255061	239.0	-8.349900596421472	-2375.0	6.687064707016397	-446.0	407.0	35.359183060757445	
9.453828019204254	2271.0	0.14470668233030537	2050.0	1288.0	-2.890519393390267	0.0	1881.28662109375	61646.0	587.0	0.165	0.5668016194331984	-130.0	-0.8744939271255061	239.0	-10.39914359993883	-2396.0	9.257479363458728	-608.0	541.0	35.707121364142495	
9.511756343197668	2272.0	-0.01484187070949708	2063.0	1283.0	-2.9051792739822133	0.0	1900.81787109375	62286.0	598.0	0.1925	0.5445344129554656	-141.0	-0.8582995951417004	231.0	-15.032879645205691	-2411.0	12.070610378917706	-779.0	844.0	35.96541992916896	
9.36979687584555	2285.0	0.07492567979295758	2056.0	1295.0	-3.061430023669782	0.0	1920.34912109375	62926.0	598.0	0.1925	0.5445344129554656	-141.0	-0.8582995951417004	231.0	-19.483101391650102	-2311.0	16.370594186290987	-1046.0	1135.0	34.4739714014302	
9.189979412521144	2334.0	-0.04967779550474563	2067.0	1310.0	-3.656081713592112	0.0	1939.88037109375	63566.0	598.0	0.1925	0.5445344129554656	-141.0	-0.8582995951417004	231.0	-21.180608655757762	-2251.0	19.154698560335266	-1222.0	1246.0	33.58114342568315	
9.082502010140892	2342.0	-0.08313231924412652	2070.0	1319.0	-3.754211120259377	0.0	1959.41162109375	64206.0	598.0	0.1925	0.5445344129554656	-141.0	-0.8582995951417004	231.0	-22.526380180455728	-2564.0	20.544764580502065	-1312.0	1334.0	38.39786747087791	
8.890217489937369	2327.0	-0.26396529197744434	2085.0	1335.0	-3.5790277333498133	0.0	1978.94287109375	64846.0	605.0	0.21	0.520242914979757	-153.0	-0.8744939271255061	239.0	-28.643523474537393	-2783.0	22.293895868403943	-1412.0	1734.0	41.77580070488629	
9.018231151631356	2338.0	-0.5578372178167746	2109.0	1324.0	-3.716155155731588	0.0	1998.47412109375	65486.0	605.0	0.21	0.520242914979757	-153.0	-0.8744939271255061	239.0	-35.2959168068512	-2793.0	22.835283494494238	-1430.0	2169.0	41.93465941772844	
8.910654729304857	2365.0	-0.6011937361810245	2113.0	1333.0	-4.0433992551414155	0.0	2018.00537109375	590.0	605.0	0.21	0.520242914979757	-153.0	-0.8744939271255061	239.0	-30.493959320997096	-2968.0	20.986018893331057	-1324.0	1855.0	44.60145141188867	
8.744259332201732	2360.0	-0.5740667798266378	2111.0	1347.0	-3.9842797061299375	0.0	2037.53662109375	1230.0	617.0	0.24	0.5040485829959515	-161.0	-0.8704453441295547	237.0	-30.555130753937913	-3353.0	20.298786007577217	-1283.0	1859.0	50.50220529140921	
8.86279783159541	2362.0	-0.6249787452208282	2115.0	1337.0	-4.008208945986053	0.0	2057.06787109375	1870.0	617.0	0.24	0.5040485829959515	-161.0	-0.8704453441295547	237.0	-38.00275271448234	-3512.0	20.71069220632578	-1292.0	2346.0	52.94609725503856	
8.912950399983934	2348.0	-0.3716266682731691	2094.0	1333.0	-3.8339656799680335	0.0	2076.59912109375	2510.0	617.0	0.24	0.5040485829959515	-161.0	-0.8704453441295547	237.0	-41.87184584798899	-3706.0	19.928213197067784	-1233.0	2599.0	55.91510229462221	
8.837880314179397	2349.0	-0.7357781058698531	2124.0	1339.0	-3.854047602349097	0.0	2096.13037109375	3150.0	617.0	0.24	0.5040485829959515	-161.0	-0.8704453441295547	237.0	-45.251567517969114	-3669.0	18.454090802157356	-1128.0	2820.0	55.33261517532248	
8.763206043793339	2375.0	-1.0603480016183886	2151.0	1345.0	-4.174538755016122	0.0	2115.66162109375	3790.0	632.0	0.2775	0.4939271255060729	-166.0	-0.8421052631578947	223.0	-47.59137482795535	-3610.0	17.618502716751635	-1067.0	2973.0	54.41893475863906	
9.049602768330244	2382.0	-0.9921041193567396	2145.0	1321.0	-4.25464725952311	0.0	2135.19287109375	4430.0	632.0	0.2775	0.4939271255060729	-166.0	-0.8421052631578947	223.0	-47.59137482795535	-3702.0	16.050935411153237	-966.0	2973.0	55.81495158213057	
9.11165529805286	2366.0	-0.7392320994759042	2124.0	1316.0	-4.056198209490916	0.0	2154.72412109375	5070.0	632.0	0.2775	0.4939271255060729	-166.0	-0.8421052631578947	223.0	-40.25080287505735	-3951.0	13.796549096761655	-841.0	2493.0	59.61318414985975	
9.110683692368474	2369.0	-0.8363926679145837	2132.0	1316.0	-4.094295715229787	0.0	2174.25537109375	5710.0	640.0	0.2975	0.4858299595141701	-170.0	-0.8218623481781376	213.0	-33.24667380333385	-4103.0	11.41669470472533	-706.0	2035.0	61.92174712197437	
8.872653152941806	2383.0	-0.8299228010575272	2132.0	1336.0	-4.265221322082094	0.0	2193.78662109375	6350.0	640.0	0.2975	0.4858299595141701	-170.0	-0.8218623481781376	213.0	-30.922159351582813	-4338.0	8.457616703058063	-522.0	1883.0	65.49811000161705	
8.909074816273431	2369.0	-0.7591850393234746	2126.0	1333.0	-4.094767651418916	0.0	2213.31787109375	6990.0	640.0	0.2975	0.4858299595141701	-170.0	-0.8218623481781376	213.0	-38.46153846153847	-4589.0	6.936488455663848	-406.0	2376.0	69.33436411733246	
9.171771842424732	2362.0	-0.6799586146694859	2119.0	1311.0	-4.006218803266733	0.0	2232.84912109375	7630.0	665.0	0.36	0.5040485829959515	-161.0	-0.757085020242915	181.0	-47.92781770912984	-4770.0	5.764640655332422	-307.0	2995.0	72.09999718144975	
9.432134659134134	2340.0	-0.8341531342057102	2131.0	1289.0	-3.741638824526508	0.0	2252.38037109375	8270.0	665.0	0.36	0.5040485829959515	-161.0	-0.757085020242915	181.0	-48.784217770301275	-5005.0	4.793852520254616	-244.0	3051.0	75.69624295975832	
9.63361320253813	2333.0	-0.924394031901104	2138.0	1272.0	-3.657091507648785	0.0	2271.91162109375	8910.0	665.0	0.36	0.5040485829959515	-161.0	-0.757085020242915	181.0	-45.098638935617075	-5189.0	4.35674099704724	-227.0	2810.0	78.51525683762124	
9.658636965918424	2333.0	-0.8029700748242682	2128.0	1270.0	-3.654412790873445	0.0	2291.44287109375	9550.0	665.0	0.36	0.5040485829959515	-161.0	-0.757085020242915	181.0	-37.45220981801499	-5330.0	2.691159015606879	-140.0	2310.0	80.66217321360244	
9.492837832798957	2317.0	-0.7162167201043478	2121.0	1284.0	-3.4615646307728927	0.0	2310.97412109375	10190.0	686.0	0.41250000000000003	0.5242914979757085	-151.0	-0.7327935222672065	169.0	-35.02064535861753	-5483.0	3.2779441474210684	-186.0	2151.0	83.0157470646137	
9.542266213185458	2309.0	-0.5352834433588597	2106.0	1280.0	-3.361066139265443	0.0	2330.50537109375	10830.0	686.0	0.41250000000000003	0.5242914979757085	-151.0	-0.7327935222672065	169.0	-39.19559565682827	-5505.0	4.149062709788673	-232.0	2424.0	83.36203689071611	
9.665175131654369	2296.0	-0.14915350122972712	2074.0	1270.0	-3.195487945214075	0.0	2350.03662109375	11470.0	686.0	0.41250000000000003	0.5242914979757085	-151.0	-0.7327935222672065	169.0	-41.56598868328491	-5532.0	6.146934494794327	-356.0	2579.0	83.79631666733555	
9.679014691348222	2285.0	0.044326277679337556	2058.0	1269.0	-3.058949833557027	0.0	2369.56787109375	12110.0	708.0	0.4675	0.5425101214574899	-142.0	-0.6923076923076923	149.0	-39.66967426211959	-5441.0	7.146320632513136	-425.0	2455.0	82.40996251582337	
9.164790390695998	2298.0	-0.1876275970667528	2078.0	1312.0	-3.2253576600825675	0.0	2389.09912109375	12750.0	708.0	0.4675	0.5425101214574899	-142.0	-0.6923076923076923	149.0	-37.65101697507264	-5074.0	9.905799696296636	-606.0	2323.0	76.80613180392938	
9.344203343881043	2318.0	-0.10347513570529103	2071.0	1297.0	-3.462844336745175	0.0	2408.63037109375	13390.0	708.0	0.4675	0.5425101214574899	-142.0	-0.6923076923076923	149.0	-46.24560330325738	-4676.0	12.602339624223827	-755.0	2885.0	70.72599270727493	
9.400187252169342	2324.0	-0.45746525925627646	2100.0	1292.0	-3.5416534567598177	0.0	2428.16162109375	14030.0	708.0	0.4675	0.5425101214574899	-142.0	-0.6923076923076923	149.0	-49.64061783147271	-4456.0	12.894926801760857	-763.0	3107.0	67.35313217426283	
9.229404575282251	2320.0	-0.8690662812987442	2134.0	1306.0	-3.5034005328852005	0.0	2447.69287109375	14670.0	721.0	0.5	0.597165991902834	-115.0	-0.5951417004048583	101.0	-50.14528215323445	-4564.0	12.283312538315418	-723.0	3140.0	69.00422026670586	
9.501946083752904	2325.0	-0.9958678151858678	2144.0	1283.0	-3.563452112333658	0.0	2467.22412109375	15310.0	721.0	0.5	0.597165991902834	-115.0	-0.5951417004048583	101.0	-55.97186114084723	-4632.0	11.475411563749136	-656.0	3521.0	70.03956614571268	
9.552603122196864	2325.0	-0.6920687326946019	2119.0	1279.0	-3.556869560299393	0.0	2486.75537109375	15950.0	721.0	0.5	0.597165991902834	-115.0	-0.5951417004048583	101.0	-54.044961003211505	-4818.0	9.800972876260072	-554.0	3395.0	72.87689571924902	
9.420692198738283	2317.0	-0.7879229833144032	2127.0	1290.0	-3.4637202123777002	0.0	2506.28662109375	16590.0	729.0	0.52	0.6578947368421053	-85.0	-0.5506072874493927	79.0	-49.21241780088699	-5047.0	8.634331762729335	-493.0	3079.0	76.37911606582432	
9.501221895750882	2331.0	-1.0682866153880388	2150.0	1283.0	-3.637196886844228	0.0	2525.81787109375	17230.0	729.0	0.52	0.6578947368421053	-85.0	-0.5506072874493927	79.0	-47.25493194678086	-5093.0	8.472078846949996	-488.0	2951.0	77.08333978494026	
9.646836024530579	2316.0	-0.7925880231325756	2127.0	1271.0	-3.4495038821450565	0.0	2545.34912109375	17870.0	729.0	0.52	0.6578947368421053	-85.0	-0.5506072874493927	79.0	-44.02813885915278	-5392.0	6.589885710409382	-377.0	2740.0	81.65251846735421	
9.504014810467368	2322.0	-0.7889951437395186	2127.0	1283.0	-3.5231493933243336	0.0	2564.88037109375	18510.0	730.0	0.5225	0.7044534412955465	-62.0	-0.4979757085020243	53.0	-39.455574246826735	-5555.0	4.9823477228367405	-286.0	2441.0	84.13759392375285	
9.312368706019337	2331.0	-0.905986540923474	2137.0	1299.0	-3.6358394172522517	0.0	2584.41162109375	19150.0	730.0	0.5225	0.7044534412955465	-62.0	-0.4979757085020243	53.0	-38.93561706682979	-5691.0	4.833020128427745	-279.0	2407.0	86.22295042531375	
9.598266982182492	2329.0	-0.8875874960363135	2135.0	1275.0	-3.608516068050708	0.0	2603.94287109375	19790.0	730.0	0.5225	0.7044534412955465	-62.0	-0.4979757085020243	53.0	-42.85058877504206	-5851.0	5.5495216303749455	-317.0	2663.0	88.68523282563321	
9.542526878567545	2323.0	-0.5092169051502904	2104.0	1280.0	-3.5292169006426315	0.0	2623.47412109375	20430.0	730.0	0.5225	0.7044534412955465	-62.0	-0.4979757085020243	53.0	-39.3332313809451	-5923.0	3.1214492786639187	-169.0	2433.0	89.76575492550108	
9.19770819900884	2310.0	-0.46727533721133063	2101.0	1309.0	-3.375199750055343	0.0	2643.00537109375	21070.0	733.0	0.53	0.7469635627530364	-41.0	-0.44129554655870445	25.0	-32.49732374980884	-6015.0	2.6954984035774197	-160.0	1986.0	91.1731879132977	
9.294033914783784	2318.0	-0.35851328352648165	2092.0	1301.0	-3.4684467939925714	0.0	2662.53662109375	21710.0	733.0	0.53	0.7469635627530364	-41.0	-0.44129554655870445	25.0	-38.61446704389051	-6062.0	5.055486575304795	-298.0	2386.0	91.91797852694685	
9.281403743765976	2321.0	-0.43105419483094737	2098.0	1302.0	-3.5061684922420913	0.0	2682.06787109375	22350.0	733.0	0.53	0.7469635627530364	-41.0	-0.44129554655870445	25.0	-44.16577458326962	-6017.0	5.853507301190644	-335.0	2749.0	91.2354569695901	
9.197861414090308	2336.0	-0.45195382906439613	2100.0	1309.0	-3.6881447997897823	0.0	2701.59912109375	22990.0	729.0	0.52	0.791497975708502	-19.0	-0.4048582995951417	7.0	-48.55482489677321	-5879.0	5.681087969877245	-311.0	3036.0	89.11619403145572	
9.068645589738303	2339.0	-0.2782981690267227	2086.0	1320.0	-3.722108423145802	0.0	2721.13037109375	23630.0	729.0	0.52	0.791497975708502	-19.0	-0.4048582995951417	7.0	-42.208288729163485	-5985.0	3.657587347691749	-197.0	2621.0	90.7224742929951	
8.93893493002157	2336.0	-0.15412604546206668	2076.0	1331.0	-3.684777508958423	0.0	2740.66162109375	24270.0	729.0	0.52	0.791497975708502	-19.0	-0.4048582995951417	7.0	-39.302645664474696	-6036.0	4.210299618142134	-241.0	2431.0	91.51057008226398	
8.84419635329608	2330.0	-0.10417419420152345	2072.0	1339.0	-3.6124367010739613	0.0	2760.19287109375	24910.0	729.0	0.52	0.791497975708502	-19.0	-0.4048582995951417	7.0	-42.48356017739716	-6135.0	4.399237510472191	-246.0	2639.0	93.03156334334166	
8.712783878211246	2331.0	-0.15018360744683643	2076.0	1350.0	-3.6267192068608	0.0	2779.72412109375	25550.0	718.0	0.4925	0.8137651821862348	-8.0	-0.3319838056680162	-29.0	-46.15384615384616	-6020.0	3.210176110015788	-158.0	2879.0	91.25505710865272	
8.902006387961832	2334.0	-0.2755516800073737	2086.0	1334.0	-3.6634789215277577	0.0	2799.25537109375	26190.0	718.0	0.4925	0.8137651821862348	-8.0	-0.3319838056680162	-29.0	-53.32619666615691	-5810.0	2.221901218472544	-73.0	3348.0	88.02283279153106	
9.189099600764976	2312.0	-0.13765897112149847	2074.0	1310.0	-3.3927898942581534	0.0	2818.78662109375	26830.0	718.0	0.4925	0.8137651821862348	-8.0	-0.3319838056680162	-29.0	-53.800275271448236	-5918.0	0.4862717592984137	40.0	3379.0	89.66268073201681	
9.025029982749386	2315.0	0.12204589398633561	2053.0	1324.0	-3.425381071449406	0.0	2838.31787109375	27470.0	699.0	0.445	0.840080971659919	5.0	-0.3157894736842105	-37.0	-45.098638935617075	-6031.0	-1.3248832403385244	134.0	2810.0	91.37849583538856	
8.750943487001118	2343.0	0.09434870011189575	2056.0	1347.0	-3.7660252778747387	0.0	2857.84912109375	28110.0	699.0	0.445	0.840080971659919	5.0	-0.3157894736842105	-37.0	-36.47346689096192	-5869.0	-2.1064213713290774	164.0	2246.0	88.88487410146242	
8.763586905718647	2351.0	0.16821438138842199	2050.0	1346.0	-3.860807072230707	0.0	2877.38037109375	28750.0	699.0	0.445	0.840080971659919	5.0	-0.3157894736842105	-37.0	-36.77932405566601	-5806.0	-0.7771618307834589	79.0	2266.0	87.931464226406	
8.801596912436064	2340.0	0.3977864817016907	2031.0	1343.0	-3.7233054096753406	0.0	2896.91162109375	29390.0	689.0	0.42	0.8502024291497976	10.0	-0.25303643724696356	-68.0	-37.36045266860376	-5773.0	-2.0100741239819775	161.0	2304.0	87.41276714275588	
8.536091315195879	2343.0	0.03770294815947395	2061.0	1365.0	-3.7693067146318397	0.0	2916.44287109375	30030.0	689.0	0.42	0.8502024291497976	10.0	-0.25303643724696356	-68.0	-35.51001682214406	-5683.0	-2.3163668754295	177.0	2183.0	86.02870068601017	
8.606419253233469	2352.0	-0.07236039093883993	2070.0	1359.0	-3.8792384369731887	0.0	2935.97412109375	30670.0	689.0	0.42	0.8502024291497976	10.0	-0.25303643724696356	-68.0	-37.589845542131826	-5487.0	-3.248998199693151	245.0	2319.0	83.01185557577504	
8.667624488281051	2341.0	0.09578216143848209	2056.0	1354.0	-3.742733413093239	0.0	2955.50537109375	31310.0	689.0	0.42	0.8502024291497976	10.0	-0.25303643724696356	-68.0	-41.19896008564001	-5538.0	-5.619528819776733	408.0	2555.0	83.77071893613859	
8.881886417784328	2357.0	0.09340368319448858	2056.0	1336.0	-3.933409447700436	0.0	2975.03662109375	31950.0	682.0	0.4025	0.8218623481781376	-4.0	-0.2368421052631579	-76.0	-42.71295305092522	-5389.0	-8.120073578683035	576.0	2654.0	81.45938542348891	
9.001003116116584	2333.0	0.10031161165847666	2055.0	1326.0	-3.642923495641809	0.0	2994.56787109375	32590.0	682.0	0.4025	0.8218623481781376	-4.0	-0.2368421052631579	-76.0	-37.52867410919101	-5470.0	-10.139394955497878	693.0	2315.0	82.68209538602888	
8.84600923197381	2317.0	0.07711367357155127	2057.0	1339.0	-3.4521663089076258	0.0	3014.09912109375	33230.0	682.0	0.4025	0.8218623481781376	-4.0	-0.2368421052631579	-76.0	-32.16088086863435	-5598.0	-12.234790199737342	814.0	1964.0	84.62523534182648	
9.093773190410198	2324.0	-0.14649048278972318	2075.0	1318.0	-3.538498101848078	0.0	3033.63037109375	33870.0	705.0	0.46	0.7995951417004049	-15.0	-0.1862348178137652	-101.0	-37.22281694448693	-5511.0	-11.665228287761767	791.0	2295.0	83.29596088268937	
8.962633424070834	2349.0	-0.16522902148823015	2077.0	1329.0	-3.8413890895625498	0.0	3053.16162109375	34510.0	705.0	0.46	0.7995951417004049	-15.0	-0.1862348178137652	-101.0	-38.2168527297752	-5378.0	-12.804760152911799	869.0	2360.0	81.24374923750726	
8.929203919684525	2317.0	0.06324911130979871	2058.0	1332.0	-3.4516116532757537	0.0	3072.69287109375	35150.0	705.0	0.46	0.7995951417004049	-15.0	-0.1862348178137652	-101.0	-33.10903807921701	-5625.0	-14.47735550032014	962.0	2026.0	85.01711074759002	
9.189934852076629	2297.0	-0.05413383995622181	2067.0	1310.0	-3.210388147555466	0.0	3092.22412109375	35790.0	705.0	0.46	0.7995951417004049	-15.0	-0.1862348178137652	-101.0	-34.898302492735894	-5752.0	-13.733145639195904	917.0	2143.0	86.97330227078314	
9.019902858591	2309.0	-0.3906665218523977	2095.0	1324.0	-3.3633974343812585	0.0	3111.75537109375	36430.0	712.0	0.47750000000000004	0.9048582995951417	37.0	-0.0708502024291498	-158.0	-37.20752408625172	-5742.0	-14.177576594961424	952.0	2294.0	86.81541312464422	
9.330210569105722	2303.0	-0.3122764227612902	2088.0	1298.0	-3.2864373986677826	0.0	3131.28662109375	37070.0	712.0	0.47750000000000004	0.9048582995951417	37.0	-0.0708502024291498	-158.0	-38.40036702859765	-5795.0	-14.783989265500391	994.0	2372.0	87.62260663181945	
9.46308346355798	2300.0	-0.12022507277339857	2072.0	1287.0	-3.2451230644102496	0.0	3150.81787109375	37710.0	712.0	0.47750000000000004	0.9048582995951417	37.0	-0.0708502024291498	-158.0	-34.51598103685579	-6014.0	-15.511275106764776	1029.0	2118.0	90.97577569453615	
9.546904523660809	2314.0	-0.07145239582402543	2068.0	1280.0	-3.4119840990654144	0.0	3170.34912109375	38350.0	679.0	0.395	0.9736842105263158	71.0	0.02834008097165992	-207.0	-27.34363052454504	-6049.0	-14.942190667433415	973.0	1649.0	91.51852346696386	
9.262434149783944	2287.0	0.05293878791815346	2058.0	1304.0	-3.087039774310062	0.0	3189.88037109375	38990.0	679.0	0.395	0.9736842105263158	71.0	0.02834008097165992	-207.0	-12.998929499923538	-6281.0	-17.581770805283217	1105.0	711.0	95.05204787427033	
9.122525344101215	2282.0	0.3477725053596021	2034.0	1316.0	-3.022301224162639	0.0	3209.41162109375	39630.0	679.0	0.395	0.9736842105263158	71.0	0.02834008097165992	-207.0	-14.008258143447012	-6447.0	-17.84372378704275	1123.0	777.0	97.59661263170148	
9.645487371352008	2273.0	0.26302284948632115	2040.0	1272.0	-2.9103328620678375	0.0	3228.94287109375	40270.0	641.0	0.3	1.008097165991903	88.0	0.13360323886639677	-259.0	-30.555130753937913	-6256.0	-16.12210240569351	1056.0	1859.0	94.6830324668131	
9.88205628707491	2260.0	0.1103906122528624	2052.0	1252.0	-2.7543933116311816	0.0	3248.47412109375	40910.0	641.0	0.3	1.008097165991903	88.0	0.13360323886639677	-259.0	-40.786052913289495	-6262.0	-16.4982432673769	1107.0	2528.0	94.77133796014502	
9.848034131713964	2242.0	0.2796036475868286	2038.0	1255.0	-2.5344818025985933	0.0	3268.00537109375	41550.0	641.0	0.3	1.008097165991903	88.0	0.13360323886639677	-259.0	-31.962073711576696	-6270.0	-18.359704238750044	1205.0	1951.0	94.87547921969629	
9.600755373951602	2233.0	0.551727871350531	2016.0	1276.0	-2.423078370761184	0.0	3287.53662109375	42190.0	641.0	0.3	1.008097165991903	88.0	0.13360323886639677	-259.0	-20.87475149105368	-6279.0	-19.681234164540474	1262.0	1226.0	95.00036427336151	
9.816684193069165	2216.0	0.7160383545356198	2002.0	1258.0	-2.212813595797873	0.0	3307.06787109375	42830.0	611.0	0.225	0.9959514170040485	82.0	0.18016194331983806	-282.0	-21.24178008869858	-6545.0	-19.276706831124596	1234.0	1250.0	99.0860421997569	
9.876560545776705	2215.0	0.7512926729084715	1999.0	1253.0	-2.1994615531322563	0.0	3326.59912109375	43470.0	611.0	0.225	0.9959514170040485	82.0	0.18016194331983806	-282.0	-25.50848753632054	-6578.0	-18.326702520133864	1183.0	1529.0	99.60191020358492	
9.704479797837246	2210.0	1.400360736105495	1946.0	1268.0	-2.1279600354922885	0.0	3346.13037109375	44110.0	611.0	0.225	0.9959514170040485	82.0	0.18016194331983806	-282.0	-19.054901361064385	-6834.0	-19.900697103287914	1266.0	1107.0	103.51435807423336	
9.514529487075624	2210.0	1.4529487075623904	1942.0	1284.0	-2.128807779170767	0.0	3365.66162109375	44750.0	586.0	0.1625	0.9919028340080972	80.0	0.2165991902834008	-300.0	-20.263037161645514	-6869.0	-17.504497781104824	1113.0	1186.0	104.07537699548956	
9.843415793499249	2217.0	1.0082460165915432	1978.0	1256.0	-2.218750319323538	0.0	3385.19287109375	45390.0	586.0	0.1625	0.9919028340080972	80.0	0.2165991902834008	-300.0	-35.70882397920172	-6562.0	-11.856274927186552	789.0	2196.0	99.4211027409844	
10.236423356359955	2205.0	1.0232880169478806	1976.0	1223.0	-2.069941090434792	0.0	3404.72412109375	46030.0	586.0	0.1625	0.9919028340080972	80.0	0.2165991902834008	-300.0	-44.8386603456186	-6253.0	-8.459850376832637	595.0	2793.0	94.71362153612733	
9.571630990111752	2233.0	1.210718058794077	1962.0	1279.0	-2.410189810850712	0.0	3424.25537109375	46670.0	586.0	0.1625	0.9919028340080972	80.0	0.2165991902834008	-300.0	-30.035173573940973	-6277.0	-10.716729715400827	703.0	1825.0	95.05932035053665	
9.742883211300468	2222.0	1.669273510999265	1924.0	1265.0	-2.2667760591127935	0.0	3443.78662109375	47310.0	559.0	0.095	0.9898785425101214	79.0	0.24493927125506074	-314.0	-18.44318703165622	-6435.0	-12.188970165853375	767.0	1067.0	97.46902636401586	
9.957491578432357	2222.0	1.701538795616649	1921.0	1247.0	-2.2639846697491266	0.0	3463.31787109375	47950.0	559.0	0.095	0.9898785425101214	79.0	0.24493927125506074	-314.0	-29.530509252179236	-6807.0	-10.910516166322987	709.0	1792.0	103.18995882483362	
9.432935186114083	2223.0	1.6268519447415954	1928.0	1291.0	-2.2827721634608946	0.0	3482.84912109375	48590.0	559.0	0.095	0.9898785425101214	79.0	0.24493927125506074	-314.0	-26.16608044043432	-6916.0	-14.568605742753922	937.0	1572.0	104.82592664780495	
9.252141564126452	2170.0	1.404632603121245	1946.0	1306.0	-1.650470269645708	0.0	3502.38037109375	49230.0	531.0	0.025	0.9878542510121457	78.0	0.25708502024291496	-320.0	-17.831472702248053	-6836.0	-17.104504714866984	1081.0	1027.0	103.57300896543381	
9.466197287749374	2116.0	1.3816335368420751	1947.0	1288.0	-0.998187284096508	0.0	3521.91162109375	49870.0	531.0	0.025	0.9878542510121457	78.0	0.25708502024291496	-320.0	-2.3245144517510323	-6945.0	-24.40129262039642	1514.0	13.0	105.17258980511414	
9.352871684760611	2090.0	1.9538351427278071	1900.0	1298.0	-0.6746234959604883	0.0	3541.44287109375	50510.0	531.0	0.025	0.9878542510121457	78.0	0.25708502024291496	-320.0	8.625172044655146	-7016.0	-30.648657756700985	1891.0	-703.0	106.19957449347797	
7.527448289340252	2113.0	1.5543527435490392	1936.0	1451.0	-0.9779758116332069	0.0	3560.97412109375	51150.0	510.0	-0.0275	0.9817813765182186	75.0	0.291497975708502	-337.0	-13.320079522862825	-6981.0	-32.36490556146845	2060.0	732.0	105.6453550873959	
9.883413334939352	2099.0	2.6270477796495206	1844.0	1254.0	-0.7642875616600256	0.0	3580.50537109375	51790.0	510.0	-0.0275	0.9817813765182186	75.0	0.291497975708502	-337.0	-38.17097415506959	-6561.0	-38.45855931086704	2525.0	2357.0	99.13973541348948	
8.801962145264882	2064.0	2.8152621455359936	1830.0	1345.0	-0.3496510392510891	0.0	3600.03662109375	52430.0	510.0	-0.0275	0.9817813765182186	75.0	0.291497975708502	-337.0	-15.996329714023553	-6788.0	-48.470284984754535	3116.0	907.0	102.52281594714495	
8.751507964058774	2030.0	2.5317487868297603	1853.0	1349.0	0.05381270597959259	0.0	3619.56787109375	53070.0	510.0	-0.0275	0.9817813765182186	75.0	0.291497975708502	-337.0	-30.27985930570424	-6391.0	-44.02367313872198	2868.0	1841.0	96.47552205332968	
10.58484587812943	2036.0	2.532206860562117	1850.0	1195.0	-1.3391003155971415E-4	0.0	3639.09912109375	53710.0	484.0	-0.0925	0.9554655870445344	62.0	0.3765182186234818	-379.0	-44.37987459856247	-5979.0	-39.88971390452817	2640.0	2763.0	90.19493437852417	
10.193791161328205	2050.0	2.712449466153729	1836.0	1228.0	-0.16911430388292048	0.0	3658.63037109375	54350.0	484.0	-0.0925	0.9554655870445344	62.0	0.3765182186234818	-379.0	-40.08258143447011	-5523.0	-41.19132003801085	2718.0	2482.0	83.18483376908438	
9.128865497220575	2044.0	2.1722640077716058	1882.0	1317.0	-0.11827811306513325	0.0	3678.16162109375	54990.0	484.0	-0.0925	0.9554655870445344	62.0	0.3765182186234818	-379.0	-50.512310750879344	-5403.0	-36.526065567095415	2443.0	3164.0	81.39014827481854	
10.554191724871654	2017.0	1.847743915736765	1906.0	1197.0	0.21478595218995786	0.0	3697.69287109375	55630.0	443.0	-0.195	0.9392712550607287	54.0	0.38461538461538464	-383.0	-68.26731916195138	-5161.0	-31.964390024326978	2195.0	4325.0	77.72239998498	
11.011011440967312	2033.0	2.291620287207443	1869.0	1159.0	0.035460592442978646	0.0	3717.22412109375	56270.0	443.0	-0.195	0.9392712550607287	54.0	0.38461538461538464	-383.0	-56.201254014375294	-5002.0	-30.069340326810952	2042.0	3536.0	75.3015775803133	
9.804239781489871	2033.0	1.8525495775585283	1907.0	1260.0	0.014611461655225914	0.0	3736.75537109375	56910.0	443.0	-0.195	0.9392712550607287	54.0	0.38461538461538464	-383.0	-51.78161798440129	-4582.0	-21.260855431958838	1462.0	3247.0	68.94497929284935	
11.041969177202644	2037.0	1.815965339311975	1908.0	1156.0	-0.021935700236914775	0.0	3756.28662109375	57550.0	443.0	-0.195	0.9392712550607287	54.0	0.38461538461538464	-383.0	-55.03899678849977	-4201.0	-16.227192764616287	1147.0	3460.0	63.149067645777194	
10.804924695496421	2060.0	1.921040978213595	1900.0	1176.0	-0.2993130660108843	0.0	3775.81787109375	58190.0	404.0	-0.2925	0.9392712550607287	54.0	0.4291497975708502	-405.0	-35.724116837436924	-4068.0	-13.318695414549207	909.0	2197.0	61.13733629274725	
10.467735782479163	2042.0	1.535483009821101	1932.0	1204.0	-0.09352864462938873	0.0	3795.34912109375	58830.0	404.0	-0.2925	0.9392712550607287	54.0	0.4291497975708502	-405.0	-21.6852729775195	-3881.0	-6.9148011268950595	458.0	1279.0	58.33195679155444	
10.462018416018813	2052.0	0.9637463637859522	1979.0	1204.0	-0.2255024789255386	0.0	3814.88037109375	59470.0	404.0	-0.2925	0.9392712550607287	54.0	0.4291497975708502	-405.0	-9.435693531120968	-3775.0	-6.327202738861891	389.0	478.0	56.71131750767353	
10.334145926042911	2057.0	1.2717354614339802	1954.0	1215.0	-0.2808623857277587	0.0	3834.41162109375	60110.0	382.0	-0.34750000000000003	0.917004048582996	43.0	0.41295546558704455	-397.0	-2.186878727634195	-3721.0	-6.916455362259374	409.0	4.0	55.87682286390081	
10.092669604108206	2044.0	0.9336270774872699	1982.0	1235.0	-0.13341281060194363	0.0	3853.94287109375	60750.0	382.0	-0.34750000000000003	0.917004048582996	43.0	0.41295546558704455	-397.0	2.9515216393944033	-3662.0	-6.343882944584645	359.0	-332.0	54.97722405224818	
10.125953119431072	2056.0	0.6905500383452486	2002.0	1232.0	-0.2825198294845674	0.0	3873.47412109375	61390.0	382.0	-0.34750000000000003	0.917004048582996	43.0	0.41295546558704455	-397.0	17.49502982107356	-3640.0	-6.137773403277019	308.0	-1283.0	54.64170650718252	
9.983865728060586	2064.0	0.767525187011066	1996.0	1244.0	-0.3787867425936306	0.0	3893.00537109375	62030.0	373.0	-0.37	0.9271255060728745	48.0	0.40890688259109315	-395.0	36.19819544272825	-3698.0	-7.786805360786812	366.0	-2506.0	55.51519623977867	
9.593622175844247	2043.0	1.0288842510914804	1975.0	1277.0	-0.12444994864141463	0.0	3912.53662109375	62670.0	373.0	-0.37	0.9271255060728745	48.0	0.40890688259109315	-395.0	37.391038385074175	-3704.0	-7.512439957459943	345.0	-2584.0	55.61000679576068	
9.689087349244435	2045.0	1.0515920673007555	1973.0	1269.0	-0.14713752612539593	0.0	3932.06787109375	63310.0	373.0	-0.37	0.9271255060728745	48.0	0.40890688259109315	-395.0	23.031044502217465	-3650.0	-5.484025627233336	251.0	-1645.0	54.80168882152421	
9.841614282581588	2037.0	0.8280949248255357	1991.0	1256.0	-0.05369665747285411	0.0	3951.59912109375	63950.0	373.0	-0.37	0.9271255060728745	48.0	0.40890688259109315	-395.0	20.599480042820005	-3610.0	-5.534442702534527	261.0	-1486.0	54.187405304446195	
9.711633322792062	2012.0	0.9252370411110331	1983.0	1267.0	0.24815119453206902	0.0	3971.13037109375	64590.0	375.0	-0.365	0.9291497975708503	49.0	0.39271255060728744	-387.0	24.025080287505737	-3612.0	-4.902724329593065	211.0	-1710.0	54.224411455491854	
9.367063265252062	2003.0	0.9920408109203254	1978.0	1296.0	0.3544753042926138	0.0	3990.66162109375	65230.0	375.0	-0.365	0.9291497975708503	49.0	0.39271255060728744	-387.0	20.125401437528676	-3647.0	-2.9218182181958188	92.0	-1455.0	54.7812774446402	
9.593592067435791	2018.0	1.0258734102458884	1975.0	1277.0	0.17669435273469736	0.0	4010.19287109375	334.0	375.0	-0.365	0.9291497975708503	49.0	0.39271255060728744	-387.0	8.885150634653618	-3787.0	-2.5860175365790745	98.0	-720.0	56.93286316359386	
9.67922600621635	2019.0	1.2559339549683362	1956.0	1270.0	0.17010371024586757	0.0	4029.72412109375	974.0	364.0	-0.3925	0.9392712550607287	54.0	0.3603238866396761	-371.0	6.270071876433706	-4016.0	-4.146915545813878	204.0	-549.0	60.431140941212114	
9.943722663345662	1988.0	1.515123477423339	1934.0	1248.0	0.5514264431698752	0.0	4049.25537109375	1614.0	364.0	-0.3925	0.9392712550607287	54.0	0.3603238866396761	-371.0	13.029515216393944	-4251.0	-5.976012545902781	303.0	-991.0	64.01880363087058	
9.934745949419097	1988.0	1.8079282752429677	1910.0	1249.0	0.5571927719870021	0.0	4068.78662109375	2254.0	364.0	-0.3925	0.9392712550607287	54.0	0.3603238866396761	-371.0	23.367487383391957	-4380.0	-8.47029773854387	437.0	-1667.0	65.97329917084227	
9.961978406895602	2000.0	2.1502216419410267	1882.0	1247.0	0.4197326506427163	0.0	4088.31787109375	2894.0	364.0	-0.3925	0.9392712550607287	54.0	0.3603238866396761	-371.0	31.472702248050165	-4441.0	-9.157589463339274	460.0	-2197.0	66.90243975673995	
9.761932583123249	1982.0	2.3837345028010546	1863.0	1264.0	0.6392699195017114	0.0	4107.84912109375	3534.0	363.0	-0.395	0.9412955465587045	55.0	0.3360323886639676	-359.0	32.879645205688945	-4297.0	-7.776742312491812	368.0	-2289.0	64.70664258147842	
9.91826016695142	1992.0	2.540302409427745	1850.0	1251.0	0.5234826257616836	0.0	4127.38037109375	4174.0	363.0	-0.395	0.9412955465587045	55.0	0.3360323886639676	-359.0	20.492430035173577	-4005.0	-5.360055118164896	246.0	-1479.0	60.25022022524923	
9.656430909192903	2011.0	2.5478528240522724	1850.0	1273.0	0.29209967882598653	0.0	4146.91162109375	4814.0	363.0	-0.395	0.9412955465587045	55.0	0.3360323886639676	-359.0	16.715094051078147	-3710.0	-4.702293761601658	216.0	-1232.0	55.730175159668015	
9.217502433973495	2008.0	2.702624349730548	1838.0	1310.0	0.32695040290061095	0.0	4166.44287109375	5454.0	359.0	-0.405	0.9453441295546559	57.0	0.29959514170040485	-341.0	16.149258296375596	-3376.0	-2.8750161108947765	102.0	-1195.0	50.623390394361365	
9.409784545504342	2021.0	2.883216455196219	1823.0	1294.0	0.17585856010113649	0.0	4185.97412109375	6094.0	359.0	-0.405	0.9453441295546559	57.0	0.29959514170040485	-341.0	3.8690931335066527	-2913.0	2.3475346119752603	-201.0	-392.0	43.57111996787823	
9.061960459300597	2043.0	2.6246173586310366	1845.0	1323.0	-0.09785190365606002	0.0	4205.50537109375	6734.0	359.0	-0.405	0.9453441295546559	57.0	0.29959514170040485	-341.0	-2.5997858999847074	-2405.0	6.375576678440412	-441.0	31.0	35.81640269021543	
8.847630822595866	2072.0	2.6202251167295767	1846.0	1341.0	-0.44948063522258225	0.0	4225.03662109375	7374.0	352.0	-0.4225	0.9331983805668016	51.0	0.28542510121457493	-334.0	-5.444257531732681	-1906.0	7.411844579037597	-496.0	217.0	28.169868023817077	
9.287804816581469	2097.0	2.59000546767061	1848.0	1304.0	-0.746888107541014	0.0	4244.56787109375	8014.0	352.0	-0.4225	0.9331983805668016	51.0	0.28542510121457493	-334.0	-11.959015139929654	-1523.0	7.408177395913881	-475.0	643.0	22.292894110924003	
9.189771263756732	2088.0	2.3104597090066736	1871.0	1312.0	-0.6450256233027811	0.0	4264.09912109375	8654.0	352.0	-0.4225	0.9331983805668016	51.0	0.28542510121457493	-334.0	-19.207829943416428	-1178.0	6.489815884272516	-393.0	1117.0	16.9898636337545	
8.995796971548492	2087.0	1.9606495358016236	1900.0	1328.0	-0.6419133769178801	0.0	4283.63037109375	9294.0	352.0	-0.4225	0.9331983805668016	51.0	0.28542510121457493	-334.0	-27.802416271601164	-789.0	5.309035821703212	-290.0	1679.0	11.009051690118214	
9.385399699336661	2082.0	1.6352080289041993	1926.0	1295.0	-0.5842852159225252	0.0	4303.16162109375	9934.0	345.0	-0.44	0.9149797570850202	42.0	0.2834008097165992	-333.0	-33.47606667686191	-555.0	3.6954149278190336	-168.0	2050.0	7.402306305178145	
9.683159398071089	2046.0	1.6492731404421785	1924.0	1270.0	-0.1472913769453853	0.0	4322.69287109375	10574.0	345.0	-0.44	0.9149797570850202	42.0	0.2834008097165992	-333.0	-25.401437528674112	-617.0	-1.2974059479793831	135.0	1522.0	8.303736083223905	
9.335141149350372	2008.0	1.3712577921800564	1947.0	1299.0	0.3014994589033699	0.0	4342.22412109375	11214.0	345.0	-0.44	0.9149797570850202	42.0	0.2834008097165992	-333.0	-11.20966508640465	-745.0	-6.406588038670857	429.0	594.0	10.21673817055698	
9.216591810929652	1997.0	1.4210858548698337	1943.0	1309.0	0.43384064725488597	0.0	4361.75537109375	11854.0	334.0	-0.4675	0.9210526315789473	45.0	0.2975708502024291	-340.0	-0.382321455880104	-880.0	-11.351519018090157	721.0	-114.0	12.238794154609648	
9.275595577899052	1980.0	1.3690815994288745	1947.0	1304.0	0.6382098769241945	0.0	4381.28662109375	12494.0	334.0	-0.4675	0.9210526315789473	45.0	0.2975708502024291	-340.0	0.6117143294081664	-1102.0	-15.39356121127844	979.0	-179.0	15.604849104781495	
9.2277699929344	2003.0	1.3484278648684866	1949.0	1308.0	0.36021011264840047	0.0	4400.81787109375	13134.0	334.0	-0.4675	0.9210526315789473	45.0	0.2975708502024291	-340.0	-7.722893408778101	-1327.0	-17.80173697612779	1155.0	366.0	19.033276170211106	
9.2628760216257	2010.0	1.2876021625701293	1954.0	1305.0	0.275007309491756	0.0	4420.34912109375	13774.0	334.0	-0.4675	0.9210526315789473	45.0	0.2975708502024291	-340.0	-11.57669368404955	-1486.0	-19.70224949567327	1287.0	618.0	21.45404394665751	
9.34485529897868	2013.0	1.1521965645346595	1965.0	1298.0	0.23697441199132335	0.0	4439.88037109375	14414.0	329.0	-0.48	0.9149797570850202	42.0	0.305668016194332	-344.0	-12.096650864046492	-1747.0	-18.337234412698574	1197.0	652.0	25.472604332257855	
9.736794644881426	2025.0	1.0604168690950957	1972.0	1265.0	0.09447989828854753	0.0	4459.41162109375	15054.0	329.0	-0.48	0.9149797570850202	42.0	0.305668016194332	-344.0	-11.729622266401591	-1837.0	-13.99760087197126	913.0	628.0	26.89700419689637	
9.676190491162853	2029.0	0.9523824496186021	1981.0	1270.0	0.04352039727749456	0.0	4478.94287109375	15694.0	329.0	-0.48	0.9149797570850202	42.0	0.305668016194332	-344.0	-5.1842789417342106	-1878.0	-8.467151058674434	536.0	200.0	27.58143252501246	
9.697945773843342	2048.0	0.7469583367150794	1998.0	1268.0	-0.18928619480437342	0.0	4498.47412109375	16334.0	320.0	-0.5025000000000001	0.9129554655870445	41.0	0.3157894736842105	-349.0	-2.768007340571953	-2105.0	-2.1541029227127293	117.0	42.0	31.12776079676643	
9.483202256675057	2037.0	0.7011780484581159	2002.0	1286.0	-0.05981911525926782	0.0	4518.00537109375	16974.0	320.0	-0.5025000000000001	0.9129554655870445	41.0	0.3157894736842105	-349.0	1.6669215476372536	-2263.0	2.596864681720021	-205.0	-248.0	33.59969889079449	
9.685795986154204	2045.0	0.7224557582777469	2000.0	1269.0	-0.15375316593675842	0.0	4537.53662109375	17614.0	320.0	-0.5025000000000001	0.9129554655870445	41.0	0.3157894736842105	-349.0	-2.003364428811745	-2200.0	4.968149856374456	-349.0	-8.0	32.65670927207916	
9.624703018752593	2048.0	0.5655399704973543	2013.0	1274.0	-0.1936469896796354	0.0	4557.06787109375	18254.0	315.0	-0.515	0.9190283400809717	44.0	0.2834008097165992	-333.0	-4.19024315644594	-2045.0	3.756656700373839	-263.0	135.0	30.266199373509803	
10.007056139045398	2060.0	0.7056139045398246	2001.0	1242.0	-0.33160029304886995	0.0	4576.59912109375	18894.0	315.0	-0.515	0.9190283400809717	44.0	0.2834008097165992	-333.0	-8.089922006423	-1856.0	2.342032506888283	-159.0	390.0	27.35194572018934	
9.840403689569204	2044.0	0.7070356235871131	2001.0	1256.0	-0.14046729882533676	0.0	4596.13037109375	19534.0	315.0	-0.515	0.9190283400809717	44.0	0.2834008097165992	-333.0	-5.734821838201561	-1865.0	0.5391981538541455	-48.0	236.0	27.47201772958212	
10.18605280309421	2038.0	0.7481374522781353	1997.0	1227.0	-0.06389961448976024	0.0	4615.66162109375	20174.0	315.0	-0.515	0.9190283400809717	44.0	0.2834008097165992	-333.0	-14.008258143447012	-1814.0	1.1701609252634184	-67.0	777.0	26.695758690731843	
10.23181568302609	2023.0	0.5625206835612926	2012.0	1223.0	0.11356857050148675	0.0	4635.19287109375	20814.0	302.0	-0.5475	0.9190283400809717	44.0	0.2368421052631579	-310.0	-18.137329866952136	-1861.0	2.7123600666009966	-157.0	1047.0	27.43237141407709	
10.184947251709765	2031.0	0.6375823138337	2006.0	1227.0	0.01821557662509697	0.0	4654.72412109375	21454.0	302.0	-0.5475	0.9190283400809717	44.0	0.2368421052631579	-310.0	-17.78559412754244	-1993.0	3.4932170237938736	-210.0	1024.0	29.465651826521505	
10.174362925015997	2012.0	0.7696258349329337	1995.0	1228.0	0.24966626643074635	0.0	4674.25537109375	22094.0	302.0	-0.5475	0.9190283400809717	44.0	0.2368421052631579	-310.0	-13.85532956109497	-2045.0	5.250632678666633	-335.0	767.0	30.281139133292733	
10.172880827594483	1996.0	0.6214160927815287	2007.0	1228.0	0.4394583349508525	0.0	4693.78662109375	22734.0	293.0	-0.5700000000000001	0.8906882591093117	30.0	0.24291497975708504	-313.0	-10.6591221899373	-2077.0	7.178902672611783	-469.0	558.0	30.79144531029218	
10.220484285939873	1991.0	0.6198571654157053	2007.0	1224.0	0.5001441548424116	0.0	4713.31787109375	23374.0	293.0	-0.5700000000000001	0.8906882591093117	30.0	0.24291497975708504	-313.0	-9.63450068817862	-2021.0	8.361590116543761	-548.0	491.0	29.943981099876503	
10.032239403555364	1990.0	0.8429879745840405	1989.0	1240.0	0.5147725149730176	0.0	4732.84912109375	24014.0	293.0	-0.5700000000000001	0.8906882591093117	30.0	0.24291497975708504	-313.0	-10.628536473466893	-2013.0	8.494859273041014	-554.0	556.0	29.822557922176475	
10.233347422603984	1979.0	0.7156946413507956	1999.0	1223.0	0.6467678489807667	0.0	4752.38037109375	24654.0	293.0	-0.5700000000000001	0.8906882591093117	30.0	0.24291497975708504	-313.0	-15.246979660498548	-2076.0	9.884988624780657	-633.0	858.0	30.803161686155743	
10.330038845388954	1987.0	0.8610273960382011	1987.0	1215.0	0.5542558761336898	0.0	4771.91162109375	25294.0	280.0	-0.6025	0.9068825910931174	38.0	0.2165991902834008	-300.0	-14.757608196972015	-2069.0	11.127708016709002	-715.0	826.0	30.708177494468153	
10.200707140381967	1995.0	1.0230949905774742	1974.0	1226.0	0.4598183688057306	0.0	4791.44287109375	25934.0	280.0	-0.6025	0.9068825910931174	38.0	0.2165991902834008	-300.0	-6.132436152316869	-2059.0	10.999599878489448	-729.0	262.0	30.553451576504706	
9.902782183202687	1995.0	0.9925040345543238	1977.0	1251.0	0.4562273001134748	0.0	4810.97412109375	26574.0	280.0	-0.6025	0.9068825910931174	38.0	0.2165991902834008	-300.0	-1.0246215017586788	-2080.0	11.161222761845465	-753.0	-72.0	30.877301962158892	
10.06978950066186	2002.0	1.0265691138051785	1974.0	1237.0	0.3742413254754933	0.0	4830.50537109375	27214.0	276.0	-0.6125	0.9109311740890689	40.0	0.17408906882591094	-279.0	-8.426364887597492	-2076.0	11.811632959955633	-776.0	412.0	30.822428129507493	
10.177154635396143	2002.0	1.04879687294763	1972.0	1228.0	0.3757595320056851	0.0	4850.03662109375	27854.0	276.0	-0.6125	0.9109311740890689	40.0	0.17408906882591094	-279.0	-12.830708059336292	-2047.0	11.084776588520754	-717.0	700.0	30.370169539707522	
10.117280691361282	2005.0	1.0137834218424258	1975.0	1233.0	0.33831594522997943	0.0	4869.56787109375	28494.0	276.0	-0.6125	0.9109311740890689	40.0	0.17408906882591094	-279.0	-9.558036397002601	-1956.0	10.567946414169274	-691.0	486.0	28.96865322507464	
9.951744632296577	2005.0	1.1268441820385628	1966.0	1247.0	0.3389217998432551	0.0	4889.09912109375	29134.0	265.0	-0.64	0.8744939271255061	22.0	0.12955465587044535	-257.0	-2.3398073099862366	-1877.0	11.029641169772752	-739.0	14.0	27.761055963638807	
9.725230282148903	2002.0	1.0944567863188839	1969.0	1266.0	0.37215348674063786	0.0	4908.63037109375	29774.0	265.0	-0.64	0.8744939271255061	22.0	0.12955465587044535	-257.0	1.3457715246979662	-1789.0	11.510962985214467	-779.0	-227.0	26.415554619878233	
9.688323418143252	2018.0	0.975198957182403	1979.0	1269.0	0.17662817718050228	0.0	4928.16162109375	30414.0	265.0	-0.64	0.8744939271255061	22.0	0.12955465587044535	-257.0	-0.8869857776418414	-1688.0	11.431192196264217	-767.0	-81.0	24.864964062518112	
9.592889557487858	2042.0	0.9556224154525437	1981.0	1277.0	-0.11387431876667292	0.0	4947.69287109375	31054.0	265.0	-0.64	0.8744939271255061	22.0	0.12955465587044535	-257.0	-1.5598715399908245	-1565.0	10.538753403564936	-706.0	-37.0	22.96866818464176	
9.521855496493323	2054.0	0.9950734588560419	1978.0	1283.0	-0.2583739517615604	0.0	4967.22412109375	31694.0	268.0	-0.6325000000000001	0.888663967611336	29.0	0.11133603238866396	-248.0	1.7128001223428662	-1522.0	8.076589050992222	-554.0	-251.0	22.28423374381666	
9.472527340389407	2044.0	0.8241626103692463	1992.0	1287.0	-0.1418035225814921	0.0	4986.75537109375	32334.0	268.0	-0.6325000000000001	0.888663967611336	29.0	0.11133603238866396	-248.0	8.655757761125555	-1520.0	4.876870318877767	-364.0	-705.0	22.221547589179266	
9.483587233066494	2053.0	0.7396756876018513	1999.0	1286.0	-0.25181639704982817	0.0	5006.28662109375	32974.0	268.0	-0.6325000000000001	0.888663967611336	29.0	0.11133603238866396	-248.0	7.722893408778101	-1436.0	2.9121961227570115	-233.0	-644.0	20.912964219935564	
9.54419138678507	2049.0	0.8477101070783448	1990.0	1281.0	-0.20085689603877518	0.0	5025.81787109375	33614.0	270.0	-0.6275000000000001	0.9008097165991903	35.0	0.09919028340080972	-242.0	3.4714788193913444	-1313.0	1.0400922810546933	-99.0	-366.0	19.00687169156918	
9.697820258497652	2045.0	0.7344068021460894	1999.0	1268.0	-0.1533939023359571	0.0	5045.34912109375	34254.0	270.0	-0.6275000000000001	0.9008097165991903	35.0	0.09919028340080972	-242.0	-3.1044502217464447	-1175.0	0.04767741419778576	-16.0	64.0	16.879408798079375	
9.79193968884906	2043.0	0.6225403134773626	2008.0	1260.0	-0.13059365226364889	0.0	5064.88037109375	34894.0	270.0	-0.6275000000000001	0.9008097165991903	35.0	0.09919028340080972	-242.0	-4.174950298210736	-1090.0	-0.21946028444489818	5.0	134.0	15.572456310152331	
9.744687485477638	2036.0	0.6592247382398583	2005.0	1264.0	-0.04599513640452284	0.0	5084.41162109375	35534.0	266.0	-0.6375000000000001	0.9008097165991903	35.0	0.12145748987854252	-253.0	-1.605750114696437	-1039.0	-1.0065250984538385	50.0	-34.0	14.78201699544787	
9.852533003540591	2030.0	0.7294908302494432	1999.0	1255.0	0.028777797242804402	0.0	5103.94287109375	36174.0	266.0	-0.6375000000000001	0.8967611336032388	33.0	0.12145748987854252	-253.0	-2.752714482336749	-1074.0	-1.3813003353941236	77.0	41.0	15.31532617111284	
10.019883145619364	2018.0	0.7978383714602045	1993.0	1241.0	0.17639656274081944	0.0	5123.47412109375	36814.0	266.0	-0.6375000000000001	0.8967611336032388	33.0	0.12145748987854252	-253.0	-4.159657439975532	-1189.0	-1.773332538849105	105.0	133.0	17.076021469762654	
10.127341278618204	1994.0	0.8293659570584064	1990.0	1232.0	0.467258322288796	0.0	5143.00537109375	37454.0	266.0	-0.6375000000000001	0.8967611336032388	33.0	0.12145748987854252	-253.0	-3.0891573635112404	-1205.0	-1.2648975429402372	69.0	63.0	17.32661755825174	
10.331010451073341	1984.0	0.9581879644768807	1979.0	1215.0	0.5923533818725601	0.0	5162.53662109375	38094.0	263.0	-0.645	0.8927125506072875	31.0	0.08299595141700405	-234.0	1.146964367640312	-1167.0	0.8324693409790784	-78.0	-214.0	16.76450084808219	
10.129537929351033	1996.0	1.0490310303413928	1972.0	1232.0	0.4475772047196153	0.0	5182.06787109375	38734.0	263.0	-0.645	0.8927125506072875	31.0	0.08299595141700405	-234.0	3.9608502829178778	-1077.0	3.010079013641491	-226.0	-398.0	15.40527341557757	
10.082543982689021	2001.0	1.1115411260448105	1967.0	1236.0	0.3881165033116418	0.0	5201.59912109375	39374.0	263.0	-0.645	0.8927125506072875	31.0	0.08299595141700405	-234.0	3.7161645511546113	-1005.0	4.107562144767846	-296.0	-382.0	14.31144542350384	
10.05801987201881	2011.0	1.0400824399762867	1973.0	1238.0	0.2659601607727259	0.0	5221.13037109375	40014.0	265.0	-0.64	0.9190283400809717	44.0	0.09716599190283401	-241.0	1.3916500994035788	-944.0	4.717456081673623	-329.0	-230.0	13.381530859727281	
9.928085881346476	2025.0	1.1419214679809078	1965.0	1249.0	0.09802290263091425	0.0	5240.66162109375	40654.0	265.0	-0.64	0.9190283400809717	44.0	0.09716599190283401	-241.0	-0.9634500688178621	-909.0	4.3709800876234075	-300.0	-76.0	12.841009171752404	
10.059871289459366	2030.0	1.2252241840317193	1958.0	1238.0	0.04076584717763769	0.0	5260.19287109375	41294.0	265.0	-0.64	0.9190283400809717	44.0	0.09716599190283401	-241.0	0.4434928888209207	-826.0	3.112366490215671	-221.0	-168.0	11.55483089215396	
9.987941760336264	2007.0	1.1751284145787566	1962.0	1244.0	0.31615307023228717	0.0	5279.72412109375	41934.0	265.0	-0.64	0.9190283400809717	44.0	0.09716599190283401	-241.0	4.129071723505123	-699.0	1.4156111203628374	-119.0	-409.0	9.58911391387357	
10.107215286759006	2012.0	1.1977191520911505	1960.0	1234.0	0.2575566563913408	0.0	5299.25537109375	42574.0	262.0	-0.6475	0.8987854251012146	34.0	0.08704453441295547	-236.0	5.031350359382169	-547.0	1.2028956261352979	-106.0	-468.0	7.254625242896308	
