Device	Device	Device	Device	Device	Device	Device	Device	Device	Device	Device	Device	Device	Device	Device	Device	Device	Device	Device	Device	Device	
Low Noise Accelerometer X	Low Noise Accelerometer X	Low Noise Accelerometer Z	Low Noise Accelerometer Z	Low Noise Accelerometer Y	Low Noise Accelerometer Y	Event_Marker	Timestamp	Timestamp	Magnetometer Z	Magnetometer Z	Magnetometer X	Magnetometer X	Magnetometer Y	Magnetometer Y	Gyroscope Y	Gyroscope Y	Gyroscope Z	Gyroscope Z	Gyroscope X	Gyroscope X	
CAL	UNCAL	CAL	UNCAL	CAL	UNCAL	CAL	CAL	UNCAL	UNCAL	CAL	CAL	UNCAL	CAL	UNCAL	CAL	UNCAL	UNCAL	CAL	CAL	UNCAL	
m/(s^2)	no units	m/(s^2)	no units	m/(s^2)	no units	no units	ms	no units	no units	local_flux	local_flux	no units	local_flux	no units	deg/s	no units	no units	deg/s	deg/s	no units	
9.676039949120574	1904.0	0.9373282453906421	1981.0	1.5492419041580547	1270.0	0.0	1040.6494140625	34100.0	464.0	-0.14250000000000002	0.9331983805668016	51.0	-0.5688259109311741	88.0	0.24468573176326658	162.0	40.0	-0.7424592013199904	-3.6440672189888024	-155.0	
9.781451033459037	1901.0	0.7641509649513212	1995.0	1.5829770477059057	1261.0	0.0	1060.1806640625	34740.0	464.0	-0.14250000000000002	0.9331983805668016	51.0	-0.5688259109311741	88.0	-1.5904572564612327	119.0	12.0	-0.24499838707139424	-2.979279813546946	-35.0	
9.696544895689517	1897.0	0.6068705213325153	2008.0	1.627175148540172	1268.0	0.0	1079.7119140625	35380.0	459.0	-0.155	0.937246963562753	53.0	-0.5263157894736842	67.0	-1.0246215017586788	112.0	-48.0	0.6541390882241226	-2.8628770531871157	-72.0	
9.720959147386433	1897.0	0.667343310071757	2003.0	1.6286287468319258	1266.0	0.0	1099.2431640625	36020.0	459.0	-0.155	0.937246963562753	53.0	-0.5263157894736842	67.0	-4.220828872916348	134.0	-86.0	1.3698170593000136	-3.1932989139551053	137.0	
9.707591540666883	1895.0	0.5210588285930597	2015.0	1.6496657666773251	1267.0	0.0	1118.7744140625	36660.0	459.0	-0.155	0.937246963562753	53.0	-0.5263157894736842	67.0	-4.236121731151552	-31.0	-2.0	0.05313313766357508	-0.6746259495808602	138.0	
9.71962183469202	1900.0	0.5336120406305208	2014.0	1.589796170002904	1266.0	0.0	1138.3056640625	37300.0	461.0	-0.15	0.9615384615384616	65.0	-0.5222672064777328	65.0	-5.260743232910231	-225.0	19.0	-0.2586463491946803	2.299086085226789	205.0	
9.671772163000604	1903.0	0.5105496333936592	2016.0	1.5527118468279997	1270.0	0.0	1157.8369140625	37940.0	461.0	-0.15	0.9615384615384616	65.0	-0.5222672064777328	65.0	-0.9328643523474538	-364.0	-34.0	0.36210677887891624	4.438176844986887	-78.0	
9.635939537634602	1900.0	0.49871566822219804	2017.0	1.5882614195841636	1273.0	0.0	1177.3681640625	38580.0	461.0	-0.15	0.9615384615384616	65.0	-0.5222672064777328	65.0	1.1622572258755162	-451.0	-43.0	0.4033883267757217	5.773559738722722	-215.0	
9.529427719257049	1900.0	0.5618195447523784	2012.0	1.5884583789309916	1282.0	0.0	1196.8994140625	39220.0	461.0	-0.15	0.9615384615384616	65.0	-0.5222672064777328	65.0	-0.764642911760208	-579.0	13.0	-0.40050215530111105	7.7296147421419406	-89.0	
9.565271183650093	1912.0	0.5747374126282526	2011.0	1.4444968576794275	1279.0	0.0	1216.4306640625	39860.0	459.0	-0.155	0.9554655870445344	62.0	-0.5425101214574899	75.0	-0.42820003058571654	-695.0	81.0	-1.4776446815044082	9.498803421222396	-111.0	
9.433502636245938	1921.0	0.49312076745097255	2018.0	1.3331131043620812	1290.0	0.0	1235.9619140625	40500.0	459.0	-0.155	0.9554655870445344	62.0	-0.5425101214574899	75.0	-3.135035938216853	-664.0	110.0	-1.8106663707550406	9.01979421092802	66.0	
9.64785033799574	1907.0	0.49931951385978757	2017.0	1.5040552551029363	1272.0	0.0	1255.4931640625	41140.0	459.0	-0.155	0.9554655870445344	62.0	-0.5425101214574899	75.0	-6.621807615843402	-612.0	129.0	-1.9554646211336681	8.22043307820174	294.0	
9.720605483739789	1907.0	0.6319769454074373	2006.0	1.5074359551913297	1266.0	0.0	1275.0244140625	41780.0	456.0	-0.1625	0.9493927125506073	59.0	-0.5242914979757085	66.0	-7.9217005658357555	-607.0	166.0	-2.471793254824816	8.138547373574202	379.0	
9.922330240489815	1902.0	0.5663573823147285	2011.0	1.5683817753523974	1249.0	0.0	1294.5556640625	42420.0	456.0	-0.1625	0.9493927125506073	59.0	-0.5242914979757085	66.0	-9.145129224652088	-636.0	182.0	-2.6734018300320894	8.581521313907752	459.0	
9.957668030491083	1899.0	0.5287078110131722	2014.0	1.604126740139632	1246.0	0.0	1314.0869140625	43060.0	456.0	-0.1625	0.9493927125506073	59.0	-0.5242914979757085	66.0	-9.95565071111791	-744.0	140.0	-2.011564743471835	10.245343919850844	512.0	
10.042323137569225	1897.0	0.6608851854939984	2003.0	1.6317132242421988	1239.0	0.0	1333.6181640625	43700.0	456.0	-0.1625	0.9493927125506073	59.0	-0.5242914979757085	66.0	-7.233521945251568	-911.0	64.0	-0.9771277102750686	12.81821706108967	334.0	
10.090658009934666	1892.0	0.732467660133288	1997.0	1.6938691863140607	1235.0	0.0	1353.1494140625	44340.0	459.0	-0.155	0.951417004048583	60.0	-0.5263157894736842	67.0	-4.00672885762349	-957.0	-16.0	0.11721258049095057	13.535006712271077	123.0	
9.935925995510315	1891.0	0.7354566938887555	1997.0	1.7044298396160107	1248.0	0.0	1372.6806640625	44980.0	459.0	-0.155	0.951417004048583	60.0	-0.5263157894736842	67.0	1.819850129989295	-984.0	-78.0	0.8336341990936763	13.956471987226475	-258.0	
9.780582060729914	1888.0	0.6772536920389814	2002.0	1.7378569185444643	1261.0	0.0	1392.2119140625	45620.0	459.0	-0.155	0.951417004048583	60.0	-0.5263157894736842	67.0	-0.9175714941122497	-1009.0	-125.0	1.6621777863694662	14.348369514552356	-79.0	
9.815080986410516	1897.0	0.5557176886706775	2012.0	1.627337452794145	1258.0	0.0	1411.7431640625	46260.0	458.0	-0.1575	0.9433198380566802	56.0	-0.548582995951417	78.0	-7.967579140541368	-916.0	-165.0	2.573647270471755	12.930447229187763	382.0	
9.851276910113867	1898.0	0.6038814875770478	2008.0	1.6166144952382218	1255.0	0.0	1431.2744140625	46900.0	458.0	-0.1575	0.9433198380566802	56.0	-0.548582995951417	78.0	-9.435693531120968	-870.0	-179.0	2.8547536823235085	12.227412045032535	478.0	
9.718396789643577	1895.0	0.41110753578621406	2024.0	1.647574793310955	1266.0	0.0	1450.8056640625	47540.0	458.0	-0.1575	0.9433198380566802	56.0	-0.548582995951417	78.0	-8.288729163480655	-915.0	-184.0	2.87887892187172	12.918155062043637	403.0	
9.787975248616041	1889.0	0.22609629017543195	2039.0	1.7168595096149701	1260.0	0.0	1470.3369140625	48180.0	455.0	-0.165	0.9534412955465588	61.0	-0.5465587044534413	77.0	-9.099250649946477	-968.0	-160.0	2.534027716877159	13.727964183874311	456.0	
9.655825337829462	1885.0	0.10634330675588752	2049.0	1.761335721923051	1271.0	0.0	1489.8681640625	48820.0	455.0	-0.165	0.9534412955465588	61.0	-0.5465587044534413	77.0	-9.58862211347301	-992.0	-147.0	2.3499690697027575	14.094391205197565	488.0	
9.761614172541337	1892.0	-0.029058936342640118	2060.0	1.6753482160106088	1262.0	0.0	1509.3994140625	49460.0	455.0	-0.165	0.9534412955465588	61.0	-0.5465587044534413	77.0	-12.157822296987309	-1046.0	-123.0	2.075304549085117	14.920246677530134	656.0	
9.74751274312906	1888.0	-0.24872568709409765	2078.0	1.719006637785794	1263.0	0.0	1528.9306640625	50100.0	455.0	-0.165	0.9534412955465588	61.0	-0.5465587044534413	77.0	-10.169750726410767	-1161.0	-68.0	1.1322061512317143	16.675431314235965	526.0	
9.748367263822123	1889.0	-0.1632736177876421	2071.0	1.7086760316077696	1263.0	0.0	1548.4619140625	50740.0	452.0	-0.17250000000000001	0.9696356275303644	69.0	-0.562753036437247	85.0	-10.368557883468421	-1337.0	-44.0	0.7440169919567613	19.3721785464732	539.0	
9.844077446232001	1892.0	-0.1160649006095057	2067.0	1.6744327294621781	1255.0	0.0	1567.9931640625	51380.0	452.0	-0.17250000000000001	0.9696356275303644	69.0	-0.562753036437247	85.0	-9.512157822296988	-1533.0	-2.0	0.03370237984013874	22.372594197344515	483.0	
9.93953418927782	1887.0	-0.09420011983699636	2065.0	1.7360655563635081	1247.0	0.0	1587.5244140625	52020.0	452.0	-0.17250000000000001	0.9696356275303644	69.0	-0.562753036437247	85.0	-7.355864811133202	-1646.0	-1.0	-0.08525895989090773	24.10533123731532	342.0	
9.964679854994788	1887.0	0.03941407090735835	2054.0	1.7389892968355647	1245.0	0.0	1607.0556640625	52660.0	455.0	-0.165	0.9595141700404859	64.0	-0.5809716599190283	94.0	-7.539379109955651	-1638.0	-49.0	0.6615824330851166	23.990043781980077	354.0	
9.895587801032688	1892.0	0.2730658175543922	2035.0	1.6827304473734628	1251.0	0.0	1626.5869140625	53300.0	455.0	-0.165	0.9595141700404859	64.0	-0.5809716599190283	94.0	-7.20293622878116	-1644.0	-95.0	1.3547181839437634	24.089042041437413	332.0	
9.941746496383049	1902.0	0.1270305906856979	2047.0	1.5597894020787493	1247.0	0.0	1646.1181640625	53940.0	455.0	-0.165	0.9595141700404859	64.0	-0.5809716599190283	94.0	-5.10781465055819	-1617.0	-135.0	1.8902927293394771	23.680096728121995	195.0	
9.821873092967634	1905.0	0.04445215390629953	2054.0	1.5207945209957539	1257.0	0.0	1665.6494140625	54580.0	455.0	-0.165	0.9595141700404859	64.0	-0.5809716599190283	94.0	-7.9217005658357555	-1588.0	-166.0	2.484088402072558	23.24104465876371	379.0	
9.892433996651528	1905.0	-0.04231462056138979	2061.0	1.519764794543239	1251.0	0.0	1685.1806640625	55220.0	454.0	-0.1675	0.951417004048583	60.0	-0.5728744939271255	90.0	-13.717693836978132	-1600.0	-137.0	2.2680231837422893	23.423017810477905	758.0	
9.892671779643189	1900.0	-0.018536321395470512	2059.0	1.5804837022118958	1251.0	0.0	1704.7119140625	55860.0	454.0	-0.1675	0.951417004048583	60.0	-0.5728744939271255	90.0	-11.270836519345467	-1692.0	-115.0	1.817667526171952	24.830206750449694	598.0	
9.999192028375111	1907.0	-0.08079716248888513	2064.0	1.4959663384797564	1242.0	0.0	1724.2431640625	56500.0	454.0	-0.1675	0.951417004048583	60.0	-0.5728744939271255	90.0	-4.786664627618903	-1841.0	-79.0	0.9817600007524948	27.108175740256108	174.0	
9.904945878341675	1905.0	0.018397357977028156	2056.0	1.521104152930909	1250.0	0.0	1743.7744140625	57140.0	450.0	-0.1775	0.9534412955465588	61.0	-0.5546558704453441	81.0	2.186878727634195	-1962.0	-106.0	1.099560381167246	28.966036266693372	-282.0	
10.085419822466648	1895.0	0.20864891333144905	2040.0	1.6471958511900906	1235.0	0.0	1763.3056640625	57780.0	450.0	-0.1775	0.9534412955465588	61.0	-0.5546558704453441	81.0	5.948921853494419	-2037.0	-128.0	1.2759621286798053	30.118636558527864	-528.0	
9.765261607950887	1884.0	0.33568460461233557	2030.0	1.7790651033524785	1262.0	0.0	1782.8369140625	58420.0	450.0	-0.1775	0.9534412955465588	61.0	-0.5546558704453441	81.0	9.48157210582658	-2053.0	-181.0	1.947393049002895	30.370862606261092	-759.0	
9.906860185638331	1875.0	0.20982808764261912	2040.0	1.8863976937297176	1250.0	0.0	1802.3681640625	59060.0	460.0	-0.1525	0.9676113360323887	68.0	-0.5526315789473685	80.0	5.566600397614315	-2034.0	-175.0	2.014607154507157	30.07998955781176	-503.0	
9.859251909947588	1876.0	0.21090528047314777	2040.0	1.8738949620583363	1254.0	0.0	1821.8994140625	59700.0	460.0	-0.1525	0.9676113360323887	68.0	-0.5526315789473685	80.0	3.7161645511546113	-1966.0	-154.0	1.7760554658414112	29.034179152172612	-382.0	
9.825264680340451	1887.0	0.38361089118800074	2026.0	1.7444790814946343	1257.0	0.0	1841.4306640625	60340.0	460.0	-0.1525	0.9676113360323887	68.0	-0.5526315789473685	80.0	7.554671968190855	-1829.0	-189.0	2.1818752407616437	26.936043088758698	-633.0	
9.777048097302671	1889.0	0.3238573493147589	2031.0	1.7187054592846231	1261.0	0.0	1860.9619140625	60980.0	460.0	-0.1525	0.9676113360323887	68.0	-0.5526315789473685	80.0	9.603914971708214	-1770.0	-169.0	1.8013518406235176	26.026913318927953	-767.0	
9.763207333272481	1899.0	0.1302571367718705	2047.0	1.5942131196826201	1262.0	0.0	1880.4931640625	61620.0	460.0	-0.1525	0.9615384615384616	65.0	-0.5526315789473685	80.0	8.19697201406943	-1745.0	-129.0	1.2462312365125332	25.63775002143372	-675.0	
9.762472306243415	1896.0	0.0567544338652865	2053.0	1.6288802936674507	1262.0	0.0	1900.0244140625	62260.0	460.0	-0.1525	0.9615384615384616	65.0	-0.5526315789473685	80.0	1.6975072641076618	-1701.0	-119.0	1.359127620834277	24.963721704319436	-250.0	
9.941616163692006	1895.0	0.11399732158141332	2048.0	1.6438647827673434	1247.0	0.0	1919.5556640625	62900.0	460.0	-0.1525	0.9615384615384616	65.0	-0.5526315789473685	80.0	-3.2879645205688948	-1669.0	-153.0	2.0863804637904004	24.479970755689003	76.0	
10.04826794945131	1910.0	0.06489018322610696	2052.0	1.4632262662915654	1238.0	0.0	1939.0869140625	63540.0	458.0	-0.1575	0.9696356275303644	69.0	-0.5546558704453441	81.0	1.0857929346994954	-1810.0	-138.0	1.659103438052478	26.639270181227236	-210.0	
10.058820963400283	1903.0	-0.07028461235254227	2063.0	1.5449656499170723	1237.0	0.0	1958.6181640625	64180.0	458.0	-0.1575	0.9696356275303644	69.0	-0.5546558704453441	81.0	11.637865116990367	-1947.0	-187.0	1.9696977440731707	28.744570385450555	-900.0	
9.962974426617675	1888.0	-0.13112876680408167	2068.0	1.7235131930264804	1245.0	0.0	1978.1494140625	64820.0	458.0	-0.1575	0.9696356275303644	69.0	-0.5546558704453441	81.0	16.21042972931641	-2034.0	-221.0	2.2964092497297512	30.082807578763987	-1199.0	
9.725054950500637	1893.0	-0.11355256898391955	2067.0	1.661244558366292	1265.0	0.0	1997.6806640625	65460.0	458.0	-0.1575	0.9696356275303644	69.0	-0.5546558704453441	81.0	16.332772595198044	-2026.0	-259.0	2.8772104712868845	29.965859721714562	-1207.0	
9.727378320915495	1899.0	0.11878447250188043	2048.0	1.5936253762736503	1265.0	0.0	2017.2119140625	564.0	476.0	-0.1125	1.0	84.0	-0.5809716599190283	94.0	8.579293469949535	-1974.0	-333.0	4.333469559364477	29.182509162372842	-700.0	
9.715844066591426	1901.0	0.15583523057126053	2045.0	1.5701546633496284	1266.0	0.0	2036.7431640625	1204.0	476.0	-0.1125	1.0	84.0	-0.5809716599190283	94.0	1.6363358311668452	-1995.0	-323.0	4.454130968358809	29.505949933283407	-246.0	
9.761851955532995	1887.0	-0.005280637176720837	2058.0	1.7360671236792653	1262.0	0.0	2056.2744140625	1844.0	476.0	-0.1125	1.0	84.0	-0.5809716599190283	94.0	-2.370393026456645	-1950.0	-301.0	4.282912786662761	28.813735986850823	16.0	
9.701376930169124	1897.0	-0.10040222118275352	2066.0	1.6130780140346626	1267.0	0.0	2075.8056640625	2484.0	466.0	-0.1375	0.9919028340080972	80.0	-0.5789473684210527	93.0	-0.3517357394096957	-1853.0	-267.0	3.6941130622189524	27.31943307476827	-116.0	
9.702972499572946	1906.0	0.059154719199404515	2053.0	1.5078513735965848	1267.0	0.0	2095.3369140625	3124.0	466.0	-0.1375	0.9919028340080972	80.0	-0.5789473684210527	93.0	-1.819850129989295	-1865.0	-271.0	3.8125134553030007	27.50475088259661	-20.0	
9.75083782763676	1916.0	0.08378276367597398	2051.0	1.3883406600559112	1263.0	0.0	2114.8681640625	3764.0	466.0	-0.1375	0.9919028340080972	80.0	-0.5789473684210527	93.0	-5.597186114084723	-1904.0	-279.0	4.080653723091666	28.105867147941368	227.0	
9.701159620895217	1919.0	-0.12213314857367025	2068.0	1.3475809814302497	1267.0	0.0	2134.3994140625	4404.0	451.0	-0.17500000000000002	0.9777327935222672	73.0	-0.611336032388664	109.0	-8.135800581128613	-1934.0	-268.0	4.00839744457118	28.56547909489991	393.0	
9.80829178998319	1928.0	-0.12320195406184331	2068.0	1.2401971920716068	1258.0	0.0	2153.9306640625	5044.0	451.0	-0.17500000000000002	0.9777327935222672	73.0	-0.611336032388664	109.0	-9.1910077993577	-2014.0	-265.0	3.9921850209618435	29.79287566331381	462.0	
9.951600613393104	1922.0	-0.07803389878482497	2064.0	1.3148227980377525	1246.0	0.0	2173.4619140625	5684.0	451.0	-0.17500000000000002	0.9777327935222672	73.0	-0.611336032388664	109.0	-2.7068359076311364	-2050.0	-318.0	4.542498290742587	30.350780207704112	38.0	
9.858816087063433	1919.0	0.1673229920574907	2044.0	1.354946668904555	1254.0	0.0	2192.9931640625	6324.0	451.0	-0.17500000000000002	0.9777327935222672	73.0	-0.611336032388664	109.0	6.728857623489831	-2086.0	-349.0	4.636386861952097	30.904120505108708	-579.0	
9.73967530200441	1923.0	0.158006390917029	2045.0	1.3053761579468184	1264.0	0.0	2212.5244140625	6964.0	466.0	-0.1375	1.0242914979757085	96.0	-0.6396761133603239	123.0	10.445022174644443	-2156.0	-414.0	5.476761281414432	31.986638105372073	-822.0	
9.739798408677423	1924.0	0.17031705821837154	2044.0	1.293575409588491	1264.0	0.0	2232.0556640625	7604.0	466.0	-0.1375	1.0242914979757085	96.0	-0.6396761133603239	123.0	4.129071723505123	-2234.0	-342.0	4.609995359094238	33.174840171482614	-409.0	
9.776965938065159	1922.0	0.31564142556342145	2032.0	1.320949957771438	1261.0	0.0	2251.5869140625	8244.0	466.0	-0.1375	1.0242914979757085	96.0	-0.6396761133603239	123.0	-3.3644288117449155	-2297.0	-323.0	4.607805845939984	34.14152074681294	81.0	
9.895378922113146	1921.0	0.2521779256002412	2037.0	1.3329130103837386	1251.0	0.0	2271.1181640625	8884.0	465.0	-0.14	1.0060728744939271	87.0	-0.7064777327935223	156.0	-4.863128918794923	-2307.0	-348.0	5.050731331427297	34.29939483824906	179.0	
9.774276860640274	1916.0	0.04673368307506498	2054.0	1.3878340687739281	1261.0	0.0	2290.6494140625	9524.0	465.0	-0.14	1.0060728744939271	87.0	-0.7064777327935223	156.0	-0.5352500382321457	-2270.0	-342.0	4.791026112371476	33.729051890707886	-104.0	
9.78751533900512	1912.0	0.18010532908330124	2043.0	1.4388266575620785	1260.0	0.0	2310.1806640625	10164.0	465.0	-0.14	1.0060728744939271	87.0	-0.7064777327935223	156.0	0.3211500229392874	-2228.0	-398.0	5.62453737948239	33.09291868973774	-160.0	
9.776118643390124	1927.0	0.23091195805990802	2039.0	1.2590059316191957	1261.0	0.0	2329.7119140625	10804.0	465.0	-0.14	1.0060728744939271	87.0	-0.7064777327935223	156.0	1.0246215017586788	-2240.0	-432.0	6.117504347676576	33.28198216331719	-206.0	
9.596733389940859	1930.0	0.14952947027639088	2046.0	1.2194398510157798	1276.0	0.0	2349.2431640625	11444.0	455.0	-0.165	0.9574898785425101	63.0	-0.791497975708502	198.0	0.9634500688178621	-2317.0	-367.0	5.108390686432425	34.453416268380366	-202.0	
9.607905550263917	1931.0	0.0762693121059253	2052.0	1.2060381766845167	1275.0	0.0	2368.7744140625	12084.0	455.0	-0.165	0.9574898785425101	63.0	-0.791497975708502	198.0	-2.492735892338278	-2412.0	-319.0	4.493774380564265	35.90499605284354	24.0	
9.739304777649032	1919.0	0.12095395537917777	2048.0	1.3528241750768448	1264.0	0.0	2388.3056640625	12724.0	455.0	-0.165	0.9574898785425101	63.0	-0.791497975708502	198.0	-2.202171585869399	-2404.0	-282.0	3.9142941062884695	35.77644538083579	5.0	
9.703601280637734	1922.0	0.12203282567817755	2048.0	1.3163441391994588	1267.0	0.0	2407.8369140625	13364.0	480.0	-0.10250000000000001	0.9817813765182186	75.0	-0.7935222672064778	199.0	2.1562930111637866	-2311.0	-308.0	4.15414037858643	34.351806863353154	-280.0	
9.702881909981064	1932.0	0.05009576001130131	2054.0	1.1944162764687112	1267.0	0.0	2427.3681640625	14004.0	480.0	-0.10250000000000001	0.9817813765182186	75.0	-0.7935222672064778	199.0	7.325279094662793	-2206.0	-276.0	3.4713289599161854	32.733807965063335	-618.0	
9.690631898009343	1947.0	0.01557075331527627	2057.0	1.0128803846488086	1268.0	0.0	2446.8994140625	14644.0	480.0	-0.10250000000000001	0.9817813765182186	75.0	-0.7935222672064778	199.0	5.734821838201561	-2202.0	-166.0	1.843676417448641	32.65615350500616	-514.0	
9.797749615061258	1944.0	0.013056744221219024	2057.0	1.0500458599506997	1259.0	0.0	2466.4306640625	15284.0	497.0	-0.06	0.9858299595141701	77.0	-0.8421052631578947	223.0	-2.079828719987766	-2268.0	-113.0	1.3309271645934284	33.663761933913854	-3.0	
10.023146370461106	1930.0	-0.06631533484177418	2063.0	1.2193870847186188	1240.0	0.0	2485.9619140625	15924.0	497.0	-0.06	0.9858299595141701	77.0	-0.8421052631578947	223.0	-3.593821685272978	-2289.0	-80.0	0.8806953516199585	33.981493772604736	96.0	
10.010881906453326	1933.0	-0.10228554514368338	2066.0	1.18240045755925	1241.0	0.0	2505.4931640625	16564.0	497.0	-0.06	0.9858299595141701	77.0	-0.8421052631578947	223.0	4.129071723505123	-2169.0	-147.0	1.6207296675077214	32.14755607678863	-409.0	
10.059955418856845	1934.0	0.04316093330366133	2054.0	1.1737519294811476	1237.0	0.0	2525.0244140625	17204.0	497.0	-0.06	0.9858299595141701	77.0	-0.8421052631578947	223.0	9.083957791711272	-2093.0	-179.0	1.926397429896594	30.984431996395028	-733.0	
10.084990021264183	1943.0	0.1656687930849104	2044.0	1.0680186977610868	1235.0	0.0	2544.5556640625	17844.0	512.0	-0.0225	0.9190283400809717	44.0	-0.8846153846153846	244.0	9.84860070347148	-2255.0	-253.0	3.009131793937854	33.481065692651676	-783.0	
10.059825086165803	1927.0	0.030127664199376764	2055.0	1.257827310169742	1237.0	0.0	2564.0869140625	18484.0	512.0	-0.0225	0.9190283400809717	44.0	-0.8846153846153846	244.0	20.461844318703168	-2505.0	-301.0	3.284561243708071	37.319940901680596	-1477.0	
9.845461728043604	1928.0	0.022363280550854014	2056.0	1.243480196144465	1255.0	0.0	2583.6181640625	19124.0	512.0	-0.0225	0.9190283400809717	44.0	-0.8846153846153846	244.0	28.52118060865576	-2614.0	-461.0	5.406409941618733	39.013708107395324	-2004.0	
9.564333299383177	1943.0	0.48094898593663604	2019.0	1.0691177343993112	1279.0	0.0	2603.1494140625	19764.0	555.0	0.085	0.9412955465587045	55.0	-0.8927125506072875	248.0	32.08441657745833	-2613.0	-591.0	7.263540589660712	39.01693493021762	-2237.0	
9.493293216706949	1950.0	0.5197978611710158	2016.0	0.9848469616796465	1285.0	0.0	2622.6806640625	20404.0	555.0	0.085	0.9412955465587045	55.0	-0.8927125506072875	248.0	32.02324514451751	-2698.0	-618.0	7.668224887328419	40.32526288413491	-2233.0	
9.527646153324111	1939.0	0.3836629514587193	2027.0	1.1149979133335	1282.0	0.0	2642.2119140625	21044.0	555.0	0.085	0.9412955465587045	55.0	-0.8927125506072875	248.0	30.631595045113936	-2837.0	-489.0	5.718446930677916	42.438648333047766	-2142.0	
9.541614841372668	1934.0	0.5900555658382449	2010.0	1.1795064163569975	1281.0	0.0	2661.7431640625	21684.0	555.0	0.085	0.9412955465587045	55.0	-0.8927125506072875	248.0	31.564459397461388	-2771.0	-411.0	4.4915669907789875	41.41364361221254	-2203.0	
9.507377785410489	1940.0	0.7377785410489418	1998.0	1.1098293486750839	1284.0	0.0	2681.2744140625	22324.0	602.0	0.2025	0.9554655870445344	62.0	-0.868421052631579	236.0	30.402202171585873	-2639.0	-394.0	4.296833240576376	39.38622443183802	-2127.0	
9.905164830464631	1949.0	1.2307687607488111	1957.0	1.0152332885798634	1251.0	0.0	2700.8056640625	22964.0	602.0	0.2025	0.9554655870445344	62.0	-0.868421052631579	236.0	19.26900137635724	-2417.0	-372.0	4.4378024537199305	35.98115875186573	-1399.0	
9.631545470345314	1960.0	1.2497851297694442	1956.0	0.8803473018771552	1274.0	0.0	2720.3369140625	23604.0	602.0	0.2025	0.9554655870445344	62.0	-0.868421052631579	236.0	16.5315797522557	-2356.0	-374.0	4.587408990831311	35.046641314091225	-1220.0	
9.785667973086287	1961.0	1.1858449276763823	1961.0	0.8685615300916194	1261.0	0.0	2739.8681640625	24244.0	633.0	0.28	0.8502024291497976	10.0	-0.9089068825910931	256.0	11.255543661110263	-2229.0	-366.0	4.694869191624573	33.09896649151729	-875.0	
9.77363888339749	1957.0	1.173412149272745	1962.0	0.9163853547109961	1262.0	0.0	2759.3994140625	24884.0	633.0	0.28	0.8502024291497976	10.0	-0.9089068825910931	256.0	4.236121731151552	-2145.0	-297.0	3.927237025262082	31.802353542571176	-416.0	
9.846521953159904	1962.0	1.3188619826570323	1950.0	0.8597822182208841	1256.0	0.0	2778.9306640625	25524.0	633.0	0.28	0.8502024291497976	10.0	-0.9089068825910931	256.0	-2.3398073099862366	-2093.0	-245.0	3.3984292571777055	30.99915231466784	14.0	
9.83206324709197	1965.0	1.0634675663397837	1971.0	0.818385164520607	1257.0	0.0	2798.4619140625	26164.0	660.0	0.34750000000000003	0.8825910931174089	26.0	-0.8603238866396761	232.0	-4.389050313503594	-2094.0	-186.0	2.5727754136637397	31.006240259890824	148.0	
9.902252422084148	1960.0	0.9395279227004195	1981.0	0.876849227253163	1251.0	0.0	2817.9931640625	26804.0	660.0	0.34750000000000003	0.8825910931174089	26.0	-0.8603238866396761	232.0	-7.814650558189326	-2038.0	-155.0	2.241575738838806	30.14363717828758	372.0	
9.833291905149427	1973.0	1.1863333720855616	1961.0	0.7244692250474224	1257.0	0.0	2837.5244140625	27444.0	660.0	0.34750000000000003	0.8825910931174089	26.0	-0.8603238866396761	232.0	-11.806086557577613	-1893.0	-130.0	2.0389467209007384	27.916660757680084	633.0	
9.975024428536932	1974.0	1.0738714251216006	1970.0	0.7115891185709338	1245.0	0.0	2857.0556640625	28084.0	660.0	0.34750000000000003	0.8825910931174089	26.0	-0.8603238866396761	232.0	-9.282764948768925	-1856.0	-161.0	2.420502875314851	27.352730423873606	468.0	
9.842265006066977	1970.0	0.8931672733644622	1985.0	0.7548402123954288	1256.0	0.0	2876.5869140625	28724.0	676.0	0.3875	0.9271255060728745	48.0	-0.7935222672064778	199.0	-1.6975072641076618	-1924.0	-228.0	3.137197324876645	28.40332225712172	-28.0	
9.709139876587	1966.0	0.6758924206047672	2003.0	0.7973562351297725	1267.0	0.0	2896.1181640625	29364.0	676.0	0.3875	0.9271255060728745	48.0	-0.7935222672064778	199.0	3.0891573635112404	-1978.0	-292.0	3.921830183936961	29.239770703251065	-341.0	
9.757357663961118	1965.0	0.7357663961118327	1998.0	0.8110840852847394	1263.0	0.0	2915.6494140625	30004.0	676.0	0.3875	0.9271255060728745	48.0	-0.7935222672064778	199.0	-2.7833001988071575	-1943.0	-307.0	4.392785693430896	28.70742333031163	43.0	
9.865086097032748	1963.0	0.7943239889891933	1993.0	0.8374289070151716	1254.0	0.0	2935.1806640625	30644.0	696.0	0.4375	0.8582995951417004	14.0	-0.7935222672064778	199.0	-8.85456491818321	-1905.0	-268.0	4.0415945985988175	28.120821040354567	440.0	
9.840308546998482	1965.0	0.6975213665150424	2001.0	0.8111486935231773	1256.0	0.0	2954.7119140625	31284.0	696.0	0.4375	0.8582995951417004	14.0	-0.7935222672064778	199.0	-6.361829025844931	-1835.0	-256.0	3.7680666676416257	27.043971904976253	277.0	
9.780549279282269	1962.0	0.673975547274415	2003.0	0.8462247627744555	1261.0	0.0	2974.2431640625	31924.0	696.0	0.4375	0.8582995951417004	14.0	-0.7935222672064778	199.0	1.1622572258755162	-1858.0	-257.0	3.4789851433686536	27.394004213870392	-215.0	
9.768884692267157	1957.0	0.6979930362395105	2001.0	0.9068294305390281	1262.0	0.0	2993.7744140625	32564.0	696.0	0.4375	0.8582995951417004	14.0	-0.7935222672064778	199.0	0.24468573176326658	-1885.0	-281.0	3.8806787964150318	27.81232220917023	-155.0	
9.8533008120173	1959.0	0.8062716779205936	1992.0	0.8857427790279825	1255.0	0.0	3013.3056640625	33204.0	712.0	0.47750000000000004	0.8299595141700405	0.0	-0.8259109311740891	215.0	-2.5080287505734824	-1887.0	-246.0	3.452144628484589	27.838725834807175	25.0	
9.936262534081711	1968.0	0.7691105510282166	1995.0	0.7773954387710199	1248.0	0.0	3032.8369140625	33844.0	712.0	0.47750000000000004	0.8299595141700405	0.0	-0.8259109311740891	215.0	-4.19024315644594	-1806.0	-208.0	2.947387254598053	26.590775084760196	135.0	
9.960189176431927	1968.0	0.7808224050973829	1994.0	0.7778689422759054	1246.0	0.0	3052.3681640625	34484.0	712.0	0.47750000000000004	0.8299595141700405	0.0	-0.8259109311740891	215.0	2.9209359229239946	-1743.0	-276.0	3.7185229267261746	25.631783971019605	-330.0	
9.719958373263415	1977.0	0.5672658977699818	2012.0	0.6627617691579133	1266.0	0.0	3071.8994140625	35124.0	718.0	0.4925	0.9129554655870445	41.0	-0.7024291497975709	154.0	1.055207218229087	-1780.0	-260.0	3.5413763484616996	26.19775840058758	-208.0	
9.66093774558528	1980.0	0.6175840823374095	2008.0	0.6270333482592274	1271.0	0.0	3091.4306640625	35764.0	718.0	0.4925	0.9129554655870445	41.0	-0.7024291497975709	154.0	-7.784064841718918	-1848.0	-287.0	4.299757863709818	27.248767104492558	370.0	
9.83899170802182	1985.0	0.5658374688488088	2012.0	0.5675379917583991	1256.0	0.0	3110.9619140625	36404.0	718.0	0.4925	0.9129554655870445	41.0	-0.7024291497975709	154.0	-4.159657439975532	-1860.0	-287.0	4.152954909896489	27.431432878851922	133.0	
9.969780219387221	1972.0	0.5494505101506435	2013.0	0.7251446437221862	1245.0	0.0	3130.4931640625	37044.0	733.0	0.53	0.8522267206477733	11.0	-0.6923076923076923	149.0	4.144364581740327	-1784.0	-296.0	3.9709142806340383	26.263431714541802	-410.0	
9.837384095254617	1966.0	0.40507619212841406	2025.0	0.7932223527469215	1256.0	0.0	3150.0244140625	37684.0	733.0	0.53	0.8522267206477733	11.0	-0.6923076923076923	149.0	6.5759290411377895	-1714.0	-281.0	3.653690829892097	25.186145623965643	-569.0	
9.850022696626793	1970.0	0.4784601388696455	2019.0	0.7466236466111307	1255.0	0.0	3169.5556640625	38324.0	733.0	0.53	0.8522267206477733	11.0	-0.6923076923076923	149.0	-2.09512157822297	-1660.0	-333.0	4.808580328900936	24.369092401416985	-2.0	
10.042650041449914	1966.0	0.6935755735628699	2001.0	0.8010449998375637	1239.0	0.0	3189.0869140625	38964.0	733.0	0.53	0.8522267206477733	11.0	-0.6923076923076923	149.0	-0.764642911760208	-1710.0	-425.0	6.162720423804272	25.149857985272266	-89.0	
10.114306861827547	1965.0	0.7164004684690266	1999.0	0.8142662587105476	1233.0	0.0	3208.6181640625	39604.0	748.0	0.5675	0.8279352226720648	-1.0	-0.6477732793522267	127.0	19.26900137635724	-1750.0	-634.0	8.569886159163262	25.78770898895085	-1399.0	
9.590856020893716	1973.0	0.7522687560384084	1997.0	0.7133635738839221	1277.0	0.0	3228.1494140625	40244.0	748.0	0.5675	0.8279352226720648	-1.0	-0.6477732793522267	127.0	27.34363052454504	-1734.0	-786.0	10.587256204104172	25.562370950870257	-1927.0	
9.580911314291779	1979.0	0.948274286320828	1981.0	0.6448950807970453	1278.0	0.0	3247.6806640625	40884.0	748.0	0.5675	0.8279352226720648	-1.0	-0.6477732793522267	127.0	11.561400825814346	-1708.0	-829.0	11.883842001270635	25.176380233730676	-895.0	
9.342383530827705	1985.0	0.9050197494372197	1985.0	0.5693555555982261	1298.0	0.0	3267.2119140625	41524.0	748.0	0.5675	0.8461538461538461	8.0	-0.6012145748987854	104.0	4.022021715858695	-1762.0	-638.0	9.239386053093984	25.97853779178765	-402.0	
9.521284787939283	1985.0	0.9380026034521325	1982.0	0.5718042252496404	1283.0	0.0	3286.7431640625	42164.0	748.0	0.5675	0.8461538461538461	8.0	-0.6012145748987854	104.0	1.881021562930112	-1673.0	-480.0	6.908520412434585	24.589570089807943	-262.0	
9.45133700894778	1988.0	1.0860818471588871	1970.0	0.5379217540206073	1289.0	0.0	3306.2744140625	42804.0	748.0	0.5675	0.8461538461538461	8.0	-0.6012145748987854	104.0	6.805321914665852	-1620.0	-321.0	4.274166837380341	23.74996892017678	-584.0	
9.522989011980059	1983.0	1.108425007529749	1968.0	0.599326101113769	1283.0	0.0	3325.8056640625	43444.0	748.0	0.5675	0.8461538461538461	8.0	-0.6012145748987854	104.0	-1.4069429576387829	-1580.0	-134.0	1.732568844079946	23.110773593918783	-47.0	
9.820177737793934	1979.0	1.0653928270124915	1971.0	0.6496301158459	1258.0	0.0	3345.3369140625	44084.0	758.0	0.5925	0.8299595141700405	0.0	-0.5222672064777328	65.0	-9.802722128765867	-1576.0	7.0	-0.09970007559163924	23.031072970089568	502.0	
10.057253532244951	1982.0	0.9634484625902869	1979.0	0.6138174081887131	1238.0	0.0	3364.8681640625	44724.0	758.0	0.5925	0.8299595141700405	0.0	-0.5222672064777328	65.0	-4.236121731151552	-1553.0	-7.0	-0.10348299757562732	22.678112016732854	138.0	
9.950625833212412	1987.0	1.014964273622067	1975.0	0.5535404835636015	1247.0	0.0	3384.3994140625	45364.0	758.0	0.5925	0.8299595141700405	0.0	-0.5222672064777328	65.0	3.4714788193913444	-1571.0	-42.0	0.12380695531644847	22.956585622108022	-366.0	
9.928656854267029	1993.0	1.1990187600361442	1960.0	0.4847127268759233	1249.0	0.0	3403.9306640625	46004.0	765.0	0.61	0.7975708502024291	-16.0	-0.5060728744939271	57.0	3.2879645205688948	-1576.0	-87.0	0.8225116324341415	23.040295087169824	-354.0	
9.973211549859199	1987.0	0.8925835573485261	1985.0	0.5513187264045987	1245.0	0.0	3423.4619140625	46644.0	765.0	0.61	0.7975708502024291	-16.0	-0.5060728744939271	57.0	6.744150481725035	-1540.0	-96.0	0.8282278764435024	22.487950837917424	-580.0	
10.042435140848681	1990.0	0.6720855134396007	2003.0	0.5114564231230619	1239.0	0.0	3442.9931640625	47284.0	765.0	0.61	0.7975708502024291	-16.0	-0.5060728744939271	57.0	10.506193607585258	-1479.0	-123.0	1.102399589158526	21.554679051898955	-826.0	
9.89741125437095	1989.0	0.4554111513805528	2021.0	0.517720889788188	1251.0	0.0	3462.5244140625	47924.0	762.0	0.6025	0.8582995951417004	14.0	-0.43724696356275305	23.0	6.239486159963298	-1441.0	-197.0	2.4170537429123513	20.984735214427747	-547.0	
9.837048496653049	1991.0	0.3715163319714495	2028.0	0.49134298028065826	1256.0	0.0	3482.0556640625	48564.0	762.0	0.6025	0.8582995951417004	14.0	-0.43724696356275305	23.0	-1.6363358311668452	-1556.0	-234.0	3.283497030759046	22.758015267990576	-32.0	
9.88624752440226	1995.0	0.5295143449877842	2015.0	0.4468021597341397	1252.0	0.0	3501.5869140625	49204.0	762.0	0.6025	0.8582995951417004	14.0	-0.43724696356275305	23.0	0.6423000458785748	-1816.0	-229.0	3.0755654868965556	26.74550170366443	-181.0	
9.708077681310733	1995.0	0.5696728929779844	2012.0	0.44582363226302846	1267.0	0.0	3521.1181640625	49844.0	762.0	0.6025	0.8582995951417004	14.0	-0.43724696356275305	23.0	10.077993576999543	-1928.0	-203.0	2.281092900208825	28.45613914750754	-798.0	
9.543384099575709	1986.0	0.76698138614234	1996.0	0.5565566012487244	1281.0	0.0	3540.6494140625	50484.0	764.0	0.6075	0.8441295546558705	7.0	-0.40890688259109315	9.0	10.857929346994954	-1707.0	-173.0	1.8223851825216248	25.06042118188506	-849.0	
9.570600900679816	1985.0	1.1077091156006913	1968.0	0.5756915166200167	1279.0	0.0	3560.1806640625	51124.0	764.0	0.6075	0.8441295546558705	7.0	-0.40890688259109315	9.0	2.8597644899831782	-1397.0	-67.0	0.5594875841147064	20.29100227188227	-326.0	
9.667662847820164	1997.0	1.290094305825948	1953.0	0.43573152664291337	1271.0	0.0	3579.7119140625	51764.0	764.0	0.6075	0.8441295546558705	7.0	-0.40890688259109315	9.0	-8.686343477595964	-1177.0	62.0	-0.9290714833650222	16.900330276419997	429.0	
9.796873854826817	1990.0	1.11595691125298	1967.0	0.5178782382191109	1260.0	0.0	3599.2431640625	52404.0	773.0	0.63	0.8238866396761134	-3.0	-0.3805668016194332	-5.0	-15.032879645205691	-1021.0	128.0	-1.666427332964937	14.499217267256512	844.0	
10.163645856958507	1984.0	0.8883952196602352	1985.0	0.5892838810350789	1229.0	0.0	3618.7744140625	53044.0	773.0	0.63	0.8238866396761134	-3.0	-0.3805668016194332	-5.0	-9.236886374063314	-828.0	109.0	-1.5763984844243533	11.53863220972381	465.0	
10.046704131304988	1992.0	1.0989845590704073	1968.0	0.49594070839807247	1239.0	0.0	3638.3056640625	53684.0	773.0	0.63	0.8238866396761134	-3.0	-0.3805668016194332	-5.0	-0.24468573176326658	-721.0	-23.0	0.11062023831744242	9.913642645531864	-123.0	
9.918463525646388	1995.0	1.3701620884482315	1946.0	0.46393727461578993	1250.0	0.0	3657.8369140625	54324.0	773.0	0.63	0.8238866396761134	-3.0	-0.3805668016194332	-5.0	-0.3211500229392874	-818.0	-147.0	2.0060039841551007	11.421011397828355	-118.0	
9.940421665564726	1980.0	1.1850236993297412	1961.0	0.6411769797988686	1248.0	0.0	3677.3681640625	54964.0	759.0	0.595	0.8623481781376519	16.0	-0.34210526315789475	-24.0	-4.251414589386757	-881.0	-226.0	3.3686089435106146	12.40133991788378	139.0	
9.798319822158184	1976.0	1.2605536443896743	1955.0	0.6894593313503391	1260.0	0.0	3696.8994140625	55604.0	759.0	0.595	0.8623481781376519	16.0	-0.34210526315789475	-24.0	-2.355100168221441	-706.0	-249.0	3.673370461264045	9.719102892889458	15.0	
9.609244505807375	1994.0	1.4006410569280277	1944.0	0.4735028565580801	1276.0	0.0	3716.4306640625	56244.0	759.0	0.595	0.8623481781376519	16.0	-0.34210526315789475	-24.0	-2.5233216088086867	-497.0	-197.0	2.9123684479254286	6.504495788207965	26.0	
9.572324394102006	1999.0	1.2800584578194865	1954.0	0.4104810396034339	1279.0	0.0	3735.9619140625	56884.0	751.0	0.5750000000000001	0.868421052631579	19.0	-0.33805668016194335	-26.0	-6.3465361676097265	-433.0	-99.0	1.5677915667976612	5.509003065276692	276.0	
9.725704643795885	1991.0	1.1418929510168987	1965.0	0.5056370741329955	1266.0	0.0	3755.4931640625	57524.0	751.0	0.5750000000000001	0.868421052631579	19.0	-0.33805668016194335	-26.0	-7.371157669368405	-286.0	-84.0	1.4006158021501123	3.2516922098858565	343.0	
9.86767856318406	1990.0	1.053570604120328	1972.0	0.5173385591600304	1254.0	0.0	3775.0244140625	58164.0	751.0	0.5750000000000001	0.868421052631579	19.0	-0.33805668016194335	-26.0	-0.7952286282306164	-216.0	5.0	-0.22053825627490828	2.161366813232863	-87.0	
9.678101185450494	1996.0	1.143451878382722	1965.0	0.4449512542414365	1270.0	0.0	3794.5556640625	58804.0	755.0	0.585	0.854251012145749	12.0	-0.33805668016194335	-26.0	5.643064688790336	-215.0	22.0	-0.7393628926969011	2.140834083210518	-508.0	
9.72644087516129	1995.0	1.2155160875573066	1959.0	0.45892412809312044	1266.0	0.0	3814.0869140625	59444.0	755.0	0.585	0.854251012145749	12.0	-0.33805668016194335	-26.0	-1.5751643982260286	-172.0	-15.0	0.12502116908768598	1.4896651265289926	-36.0	
9.91541476289317	1994.0	1.0652858131264367	1971.0	0.4698574542529062	1250.0	0.0	3833.6181640625	60084.0	755.0	0.585	0.854251012145749	12.0	-0.33805668016194335	-26.0	-6.560636182902585	-15.0	53.0	-0.6973798042501748	-0.9276428175299961	290.0	
9.949543164218394	1999.0	0.9066973742202816	1984.0	0.4067860056326137	1247.0	0.0	3853.1494140625	60724.0	755.0	0.585	0.854251012145749	12.0	-0.33805668016194335	-26.0	-3.5479431105673656	147.0	104.0	-1.5774361511068702	-3.4222497336147977	93.0	
9.771624351818248	2005.0	0.9719589913484614	1979.0	0.3340228932246698	1262.0	0.0	3872.6806640625	61364.0	741.0	0.55	0.8846153846153846	27.0	-0.340080971659919	-25.0	-0.7034714788193914	384.0	75.0	-1.208800236039718	-7.055206001439728	-93.0	
9.785609900575539	2014.0	1.1800376766015186	1962.0	0.22989058747754482	1261.0	0.0	3892.2119140625	62004.0	741.0	0.55	0.8846153846153846	27.0	-0.340080971659919	-25.0	-5.566600397614315	429.0	44.0	-0.5305881674202313	-7.738925645369155	225.0	
10.030309439886311	2007.0	0.6499916076787418	2005.0	0.30607401088978736	1240.0	0.0	3911.7431640625	62644.0	741.0	0.55	0.8846153846153846	27.0	-0.340080971659919	-25.0	-0.7799357699954123	412.0	85.0	-1.3552530525346225	-7.486316072032175	-88.0	
10.12538481954971	1989.0	0.6337200502089867	2006.0	0.5235668034165443	1232.0	0.0	3931.2744140625	63284.0	733.0	0.53	0.8663967611336032	18.0	-0.36639676113360325	-12.0	3.37972166998012	661.0	115.0	-1.9448400936644086	-11.312988373316575	-360.0	
9.783904472198424	2015.0	1.0094948388900786	1976.0	0.21441448366846053	1261.0	0.0	3950.8056640625	63924.0	733.0	0.53	0.8663967611336032	18.0	-0.36639676113360325	-12.0	11.408472243462304	665.0	-30.0	-0.03514121885074373	-11.355269319200938	-885.0	
9.983472321314782	2041.0	0.7281845124305649	1999.0	-0.10246905641775894	1244.0	0.0	3970.3369140625	64564.0	733.0	0.53	0.8663967611336032	18.0	-0.36639676113360325	-12.0	11.806086557577613	475.0	-205.0	2.6114285874912895	-8.413351726093786	-911.0	
10.115122579391274	2035.0	0.7979722248417971	1993.0	-0.02746764296226334	1233.0	0.0	3989.8681640625	65204.0	733.0	0.53	0.8663967611336032	18.0	-0.36639676113360325	-12.0	8.716929194066372	226.0	-189.0	2.4506872097041956	-4.594182708998554	-709.0	
9.747480400194123	2027.0	0.9385162098883784	1982.0	0.06805235711537146	1264.0	0.0	4009.3994140625	308.0	746.0	0.5625	0.8461538461538461	8.0	-0.35627530364372473	-17.0	7.325279094662793	-64.0	-158.0	1.9850510592584254	-0.1489388096467897	-618.0	
9.699125054110931	2015.0	0.8648863634740864	1988.0	0.21067451997926573	1268.0	0.0	4028.9306640625	948.0	746.0	0.5625	0.8461538461538461	8.0	-0.35627530364372473	-17.0	-1.498700107050008	-246.0	-100.0	1.4179695399034424	2.638086400938393	-41.0	
9.782795307804966	2005.0	0.8985783995441723	1985.0	0.3326669909484512	1261.0	0.0	4048.4619140625	1588.0	746.0	0.5625	0.8461538461538461	8.0	-0.35627530364372473	-17.0	-1.6975072641076618	-302.0	-70.0	0.955907654982082	3.492756866944174	-28.0	
9.854704363210317	2011.0	0.9466267972221322	1981.0	0.2620578928295579	1255.0	0.0	4067.9931640625	2228.0	744.0	0.5575	0.8603238866396761	15.0	-0.3502024291497976	-20.0	4.3278788805627775	-370.0	-50.0	0.39686888648884966	4.530591368011735	-422.0	
9.877892365522452	2005.0	0.8844746474832436	1986.0	0.3333358864844075	1253.0	0.0	4087.5244140625	2868.0	744.0	0.5575	0.8603238866396761	15.0	-0.3502024291497976	-20.0	3.8385074170362445	-587.0	7.0	-0.4935529287595516	7.851440103672356	-390.0	
9.912856018159328	1995.0	0.8094113397423649	1992.0	0.452666184566802	1250.0	0.0	4107.0556640625	3508.0	744.0	0.5575	0.8603238866396761	15.0	-0.3502024291497976	-20.0	1.5904572564612327	-727.0	40.0	-0.9326834995988116	9.99527651010145	-243.0	
10.034675041616191	1988.0	1.08655178066677	1969.0	0.5437645330174491	1240.0	0.0	4126.5869140625	4148.0	736.0	0.5375	0.8765182186234818	23.0	-0.31983805668016196	-35.0	1.0857929346994954	-807.0	-66.0	0.7055820415784575	11.239217858163215	-210.0	
9.976871028632134	1989.0	1.2585314346417387	1955.0	0.5345778931960234	1245.0	0.0	4146.1181640625	4788.0	736.0	0.5375	0.8765182186234818	23.0	-0.31983805668016196	-35.0	7.554671968190855	-915.0	-239.0	3.0911453386264665	12.920277726211186	-633.0	
9.921500245036222	1986.0	1.6738340274317893	1921.0	0.5784748155291185	1250.0	0.0	4165.6494140625	5428.0	736.0	0.5375	0.8765182186234818	23.0	-0.31983805668016196	-35.0	9.695672121119438	-828.0	-364.0	4.941451113312793	11.60381070570118	-773.0	
9.621620033124787	1982.0	1.4477175981930428	1940.0	0.6191464559095665	1275.0	0.0	4185.1806640625	6068.0	736.0	0.5375	0.8765182186234818	23.0	-0.31983805668016196	-35.0	13.473008105214866	-668.0	-318.0	4.107408803332774	9.140352897301398	-1020.0	
9.607653753748908	1989.0	1.2415658510811645	1957.0	0.5305464087759799	1276.0	0.0	4204.7119140625	6708.0	743.0	0.555	0.8481781376518218	9.0	-0.3097165991902834	-40.0	4.618443187031657	-446.0	-203.0	2.7268355893520373	5.72007179305786	-441.0	
