Device	Device	Device	Device	Device	Device	Device	Device	Device	Device	Device	Device	Device	Device	Device	Device	Device	Device	Device	Device	Device	
Low Noise Accelerometer X	Low Noise Accelerometer X	Low Noise Accelerometer Z	Low Noise Accelerometer Z	Low Noise Accelerometer Y	Low Noise Accelerometer Y	Event_Marker	Timestamp	Timestamp	Magnetometer Z	Magnetometer Z	Magnetometer X	Magnetometer X	Magnetometer Y	Magnetometer Y	Gyroscope Y	Gyroscope Y	Gyroscope Z	Gyroscope Z	Gyroscope X	Gyroscope X	
CAL	UNCAL	CAL	UNCAL	CAL	UNCAL	CAL	UNCAL	CAL	CAL	UNCAL	UNCAL	CAL	CAL	UNCAL	UNCAL	CAL	UNCAL	CAL	CAL	UNCAL	
m/(s^2)	no units	m/(s^2)	no units	m/(s^2)	no units	no units	no units	ms	local_flux	no units	no units	local_flux	local_flux	no units	no units	deg/s	no units	deg/s	deg/s	no units	
9.509452443586328	2209.0	2.1357205491087976	1886.0	-2.1031549200036475	1285.0	0.0	22609.0	689.971923828125	0.7000000000000001	801.0	-113.0	0.6012145748987854	-0.4109311740890688	10.0	-369.0	-3.3338430952745073	8.0	-0.1886206760024719	4.509391988728698	79.0	
9.179721251160343	2209.0	2.495934639843779	1857.0	-2.0992479501132078	1313.0	0.0	23249.0	709.503173828125	0.7000000000000001	801.0	-113.0	0.6012145748987854	-0.4109311740890688	10.0	-428.0	-3.37972166998012	-109.0	1.6037051085690754	5.432639782403783	82.0	
9.394802775602871	2197.0	2.575515655525354	1850.0	-1.9509272013021388	1295.0	0.0	23889.0	729.034423828125	0.7000000000000001	801.0	-112.0	0.6032388663967612	-0.39271255060728744	1.0	-509.0	-10.383850741703625	-253.0	4.086236825912522	6.700368275885333	540.0	
9.856331419505127	2212.0	2.2998086171794214	1872.0	-2.1325489471963	1256.0	0.0	24529.0	748.565673828125	0.7000000000000001	801.0	-112.0	0.6032388663967612	-0.39271255060728744	1.0	-518.0	-7.447621960544426	-398.0	6.1976216209515265	6.859582476758848	348.0	
9.699424432402036	2227.0	2.085300383060729	1890.0	-2.3191310733159693	1269.0	0.0	25169.0	768.096923828125	0.7000000000000001	801.0	-112.0	0.6032388663967612	-0.39271255060728744	1.0	-690.0	-1.2081358005811287	-428.0	6.383098581508573	9.500688435561903	-60.0	
9.615604576635548	2214.0	2.036648139745179	1894.0	-2.1643158107158493	1276.0	0.0	25809.0	787.628173828125	0.705	803.0	-102.0	0.6234817813765182	-0.35627530364372473	-17.0	-776.0	-2.0645358617525615	-417.0	6.234968403294608	10.818832728378505	-4.0	
9.498047317616964	2217.0	2.185684142648639	1882.0	-2.198655241561219	1286.0	0.0	26449.0	807.159423828125	0.705	803.0	-102.0	0.6234817813765182	-0.35627530364372473	-17.0	-722.0	-5.0007646429117605	-446.0	6.806731617053809	9.995948242977352	188.0	
9.559275435054973	2225.0	2.3561149340686107	1868.0	-2.291019886727114	1281.0	0.0	27089.0	826.690673828125	0.705	803.0	-102.0	0.6234817813765182	-0.35627530364372473	-17.0	-734.0	-4.55727175409084	-458.0	6.971721051136033	10.181731941215673	159.0	
9.582724102749193	2233.0	2.320029322538291	1871.0	-2.3878926544494528	1279.0	0.0	27729.0	846.221923828125	0.705	803.0	-102.0	0.6234817813765182	-0.35627530364372473	-17.0	-821.0	-2.370393026456645	-494.0	7.424611872018338	11.521230927681362	16.0	
9.59118430325694	2209.0	1.9755731828368193	1899.0	-2.105540548732381	1278.0	0.0	28369.0	865.753173828125	0.705	803.0	-105.0	0.6174089068825911	-0.3643724696356275	-13.0	-915.0	-3.6855788346842027	-570.0	8.631725693570457	12.975683529760623	102.0	
9.446165234124559	2212.0	1.759380555313066	1917.0	-2.1474591702874326	1290.0	0.0	29009.0	885.284423828125	0.705	803.0	-105.0	0.6174089068825911	-0.3643724696356275	-13.0	-750.0	-5.5818932558495185	-628.0	9.624967779562018	10.45377614702993	226.0	
9.302738121386987	2221.0	1.70238356727	1922.0	-2.2584671161154293	1302.0	0.0	29649.0	904.815673828125	0.705	803.0	-105.0	0.6174089068825911	-0.3643724696356275	-13.0	-678.0	-9.558036397002601	-635.0	9.902709501463312	9.351750740863952	486.0	
8.780375971128864	2222.0	1.8471209224102856	1911.0	-2.2728441832862885	1346.0	0.0	30289.0	924.346923828125	0.7125	806.0	-100.0	0.6275303643724697	-0.3441295546558705	-23.0	-542.0	-13.258908089922008	-645.0	10.225403086444508	7.268127899208776	728.0	
8.792021288762564	2211.0	1.8211764953040113	1913.0	-2.1407164981701494	1345.0	0.0	30929.0	943.878173828125	0.7125	806.0	-100.0	0.6275303643724697	-0.3441295546558705	-23.0	-465.0	-26.227251873375135	-739.0	12.2016858570923	6.106365485239636	1576.0	
8.940653369007801	2208.0	1.208194043637307	1963.0	-2.1153452480877784	1332.0	0.0	31569.0	963.409423828125	0.7125	806.0	-100.0	0.6275303643724697	-0.3441295546558705	-23.0	-362.0	-28.23061630218688	-801.0	13.25121972988215	4.536379007180669	1707.0	
9.56256083940792	2192.0	0.30370298841091214	2036.0	-1.9344449101509555	1279.0	0.0	32209.0	982.940673828125	0.7125	806.0	-100.0	0.6275303643724697	-0.3441295546558705	-23.0	-418.0	-29.316409236886376	-942.0	15.454735277621767	5.4177052475130605	1778.0	
9.887008518097739	2222.0	0.6056137145358349	2011.0	-2.286608001974089	1252.0	0.0	32849.0	1002.471923828125	0.6925	798.0	-104.0	0.6194331983805668	-0.3582995951417004	-16.0	-495.0	-21.410001529285825	-859.0	13.850097523239109	6.583184111644852	1261.0	
9.47309296723158	2210.0	0.8807252945865336	1989.0	-2.140666612628724	1287.0	0.0	33489.0	1022.003173828125	0.6925	798.0	-104.0	0.6194331983805668	-0.3582995951417004	-16.0	-918.0	-10.689707906407708	-893.0	13.87937214707049	13.07419344527	560.0	
9.39050056518621	2204.0	0.9548184233829383	1983.0	-2.0677215174467443	1294.0	0.0	34129.0	1041.534423828125	0.6925	798.0	-104.0	0.6194331983805668	-0.3582995951417004	-16.0	-1079.0	-13.365958097568436	-1045.0	16.299577345995065	15.568857366217356	735.0	
9.613979400280385	2217.0	0.6836543137528831	2005.0	-2.2275365173124997	1275.0	0.0	34769.0	1061.065673828125	0.6675	788.0	-83.0	0.6619433198380567	-0.37044534412955465	-10.0	-1346.0	-8.64046490289035	-1307.0	20.09935707668186	19.703832300243572	426.0	
9.2758176772424	2201.0	0.2008153432878856	2045.0	-2.04780382961483	1303.0	0.0	35409.0	1080.596923828125	0.6675	788.0	-83.0	0.6619433198380567	-0.37044534412955465	-10.0	-1641.0	-11.989600856400063	-1668.0	25.740484022744262	24.286866248851045	645.0	
9.381243213616925	2210.0	0.029083266454448836	2059.0	-2.1586179507275127	1294.0	0.0	36049.0	1100.128173828125	0.6675	788.0	-83.0	0.6619433198380567	-0.37044534412955465	-10.0	-1492.0	-29.72931640923689	-2027.0	31.994537869762155	22.063078722260613	1805.0	
9.847356912829135	2287.0	0.2118817591037812	2044.0	-3.078011687255898	1255.0	0.0	36689.0	1119.659423828125	0.6725	790.0	-75.0	0.6781376518218624	-0.37044534412955465	-10.0	-1397.0	-30.58571647040832	-1890.0	29.93620886736866	20.584769484714812	1861.0	
10.03038839735161	2275.0	0.6578873542084503	2007.0	-2.9226829472555673	1240.0	0.0	37329.0	1139.190673828125	0.6725	790.0	-75.0	0.6781376518218624	-0.37044534412955465	-10.0	-1917.0	-11.882550848753633	-1853.0	28.539287410888754	28.549931772374965	638.0	
9.006296967422676	2275.0	0.629696742267532	2011.0	-2.9334876737936755	1326.0	0.0	37969.0	1158.721923828125	0.6725	790.0	-75.0	0.6781376518218624	-0.37044534412955465	-10.0	-2299.0	0.9940357852882705	-1674.0	25.212518144502813	34.37825683711482	-204.0	
8.996585226467044	2272.0	0.8489988371805763	1993.0	-2.893054170991718	1327.0	0.0	38609.0	1178.253173828125	0.6725	790.0	-75.0	0.6781376518218624	-0.37044534412955465	-10.0	-2473.0	-10.353265025233217	-1720.0	26.347180757797407	37.059543619761506	538.0	
9.322338905106484	2273.0	1.2815095582673195	1957.0	-2.893194612554673	1300.0	0.0	39249.0	1197.784423828125	0.6825	794.0	-81.0	0.6659919028340081	-0.3582995951417004	-16.0	-2679.0	-19.070194219299587	-1663.0	25.78751606926032	40.214910606449855	1108.0	
9.097689220099085	2300.0	1.4355886765751336	1945.0	-3.217660731857868	1319.0	0.0	39889.0	1217.315673828125	0.6825	794.0	-81.0	0.6659919028340081	-0.3582995951417004	-16.0	-2933.0	-17.923229851659276	-1451.0	22.441960298065357	44.078953897901634	1033.0	
9.196916505227467	2288.0	1.8345076656039612	1912.0	-3.0641117659729953	1311.0	0.0	40529.0	1236.846923828125	0.6825	794.0	-81.0	0.6659919028340081	-0.3582995951417004	-16.0	-3308.0	-17.846765560483256	-1249.0	19.274462387764416	49.801460290595465	1028.0	
9.464972416847127	2277.0	2.449622637093484	1861.0	-2.9165987869450807	1289.0	0.0	41169.0	1256.378173828125	0.6725	790.0	-75.0	0.6781376518218624	-0.34210526315789475	-24.0	-3541.0	-18.96314421165316	-1022.0	15.791942642015714	53.341899785481075	1101.0	
8.593053052272364	2278.0	2.1624480843792027	1886.0	-2.9431096644161983	1362.0	0.0	41809.0	1275.909423828125	0.6725	790.0	-75.0	0.6781376518218624	-0.34210526315789475	-24.0	-3733.0	-20.553601468114394	-905.0	14.026552943100382	56.270386750851905	1205.0	
9.128303630257701	2286.0	2.1160773114843043	1889.0	-3.0350701162629172	1317.0	0.0	42449.0	1295.440673828125	0.6725	790.0	-75.0	0.6781376518218624	-0.34210526315789475	-24.0	-3790.0	-30.20339501452822	-875.0	13.942339284094096	57.14418018277497	1836.0	
9.437732733352592	2259.0	2.1066066685924825	1889.0	-2.7068640332705276	1291.0	0.0	43089.0	1314.971923828125	0.6725	790.0	-75.0	0.6781376518218624	-0.34210526315789475	-24.0	-3973.0	-22.23581587398685	-630.0	9.827316238909788	59.91107046175998	1315.0	
9.537239953244473	2277.0	2.5335191339710583	1854.0	-2.914198181643556	1283.0	0.0	43729.0	1334.503173828125	0.68	793.0	-63.0	0.7024291497975709	-0.2591093117408907	-65.0	-3882.0	-16.149258296375596	-558.0	8.490429184934966	58.501353578330864	917.0	
9.040998687396721	2278.0	2.909392549195849	1824.0	-2.923691318768622	1325.0	0.0	44369.0	1354.034423828125	0.68	793.0	-63.0	0.7024291497975709	-0.2591093117408907	-65.0	-3751.0	-11.20966508640465	-396.0	5.8212893247788005	56.46453482051494	594.0	
8.59755380403864	2270.0	2.61252326100681	1849.0	-2.8376776111973085	1362.0	0.0	45009.0	1373.565673828125	0.68	793.0	-63.0	0.7024291497975709	-0.2591093117408907	-65.0	-3842.0	-16.5315797522557	-370.0	5.620284060805886	57.85887278076458	942.0	
9.561308971649114	2294.0	2.5594685934827464	1852.0	-3.118257779377709	1281.0	0.0	45649.0	1393.096923828125	0.68	793.0	-55.0	0.7186234817813765	-0.22874493927125505	-80.0	-3814.0	-27.634194831013918	-425.0	6.914579378512002	57.442170191514144	1668.0	
9.51086442513371	2268.0	2.276918703847102	1875.0	-2.8111602105873836	1285.0	0.0	46289.0	1412.628173828125	0.68	793.0	-55.0	0.7186234817813765	-0.22874493927125505	-80.0	-3844.0	-21.257072946933786	-284.0	4.486236899544295	57.87822127646821	1251.0	
9.666324240569097	2266.0	2.3467097711952762	1869.0	-2.784113405543897	1272.0	0.0	46929.0	1432.159423828125	0.68	793.0	-55.0	0.7186234817813765	-0.22874493927125505	-80.0	-3710.0	-18.41260131518581	-60.0	0.9477497408998498	55.78667559469303	1065.0	
9.385075113908332	2282.0	2.7932256765473635	1833.0	-2.9707666630408127	1296.0	0.0	47569.0	1451.690673828125	0.66	785.0	-44.0	0.7408906882591093	-0.15789473684210525	-115.0	-3594.0	-13.090686649334762	-47.0	0.5527430204790444	54.002765423146336	717.0	
8.824668031178982	2265.0	2.704898355993494	1841.0	-2.7733180031707496	1343.0	0.0	48209.0	1471.221923828125	0.66	785.0	-44.0	0.7408906882591093	-0.15789473684210525	-115.0	-3501.0	-14.74231533873681	-241.0	3.616928402967603	52.606370296765604	825.0	
9.619084080561054	2269.0	2.384598532296009	1866.0	-2.8199726102352165	1276.0	0.0	48849.0	1490.753173828125	0.66	785.0	-44.0	0.7408906882591093	-0.15789473684210525	-115.0	-3422.0	-26.410766172197587	-303.0	5.0493447676162795	51.40848025142022	1588.0	
9.903385582984052	2257.0	2.2433202031671877	1877.0	-2.6753768485405502	1252.0	0.0	49489.0	1510.284423828125	0.66	785.0	-44.0	0.7408906882591093	-0.15789473684210525	-115.0	-3270.0	-22.159351582810828	-350.0	5.62551987927498	49.081880486501824	1310.0	
9.21208856027038	2270.0	2.161236979418967	1885.0	-2.840557989266748	1310.0	0.0	50129.0	1529.815673828125	0.6575	784.0	-38.0	0.7530364372469636	-0.17611336032388664	-106.0	-3070.0	-7.875821991130143	-159.0	2.147205957321889	45.97820061565731	376.0	
8.903703587406683	2253.0	2.275120645430216	1876.0	-2.6365448885667266	1336.0	0.0	50769.0	1549.346923828125	0.6575	784.0	-38.0	0.7530364372469636	-0.17611336032388664	-106.0	-2920.0	-1.5904572564612327	-310.0	4.241318263794502	43.697469190003304	-35.0	
9.192167834321712	2256.0	2.550116765504391	1853.0	-2.664304902009346	1312.0	0.0	51409.0	1568.878173828125	0.6575	784.0	-38.0	0.7530364372469636	-0.17611336032388664	-106.0	-2955.0	-5.383086098791865	-519.0	7.60220677627661	44.26813500316249	213.0	
9.108994824665084	2274.0	2.56614913317497	1852.0	-2.881683454632018	1319.0	0.0	52049.0	1588.409423828125	0.645	779.0	-33.0	0.7631578947368421	-0.12955465587044535	-129.0	-2962.0	-6.270071876433706	-613.0	9.082395469826833	44.39034827570487	271.0	
9.466178192514157	2266.0	2.570200203796612	1851.0	-2.78164505737242	1289.0	0.0	52689.0	1607.940673828125	0.645	779.0	-33.0	0.7631578947368421	-0.12955465587044535	-129.0	-2810.0	-9.542743538767397	-598.0	9.005899867768932	42.0572218036493	485.0	
8.990819623608756	2270.0	2.6533909323040694	1845.0	-2.832927599575662	1329.0	0.0	53329.0	1627.471923828125	0.645	779.0	-33.0	0.7631578947368421	-0.12955465587044535	-129.0	-2521.0	-4.083193148799511	-481.0	7.032337646644236	37.60293040423996	128.0	
8.968107187279939	2266.0	2.763099680374797	1836.0	-2.7827677778931985	1331.0	0.0	53969.0	1647.003173828125	0.645	779.0	-33.0	0.7631578947368421	-0.12955465587044535	-129.0	-2336.0	-3.410307386450528	-496.0	7.264520025951682	34.76652275127993	84.0	
9.075358850031913	2273.0	2.773980241286495	1835.0	-2.865814999445035	1322.0	0.0	54609.0	1666.534423828125	0.6375000000000001	776.0	-26.0	0.7773279352226721	-0.048582995951417005	-169.0	-2196.0	-4.679614619972473	-512.0	7.58285874069905	32.62147842628992	167.0	
9.039180991373637	2287.0	2.7276229468874797	1839.0	-3.035778622714779	1325.0	0.0	55249.0	1686.065673828125	0.6375000000000001	776.0	-26.0	0.7773279352226721	-0.048582995951417005	-169.0	-1953.0	-6.988836213488302	-446.0	6.697374821724886	28.883914058175822	318.0	
9.013423405300617	2285.0	2.5328167205378835	1855.0	-3.0158359375603325	1327.0	0.0	55889.0	1705.596923828125	0.6375000000000001	776.0	-26.0	0.7773279352226721	-0.048582995951417005	-169.0	-1723.0	-7.264107661721977	-337.0	5.067175883519963	25.33838082742504	336.0	
8.89390125685917	2276.0	2.485363781155158	1859.0	-2.9095464828926425	1337.0	0.0	56529.0	1725.128173828125	0.625	771.0	-31.0	0.7672064777327935	-0.09716599190283401	-145.0	-1420.0	-3.9608502829178778	-218.0	3.15124334981564	20.669842953676156	120.0	
9.048022555263806	2276.0	2.421303145428272	1864.0	-2.909286482623134	1324.0	0.0	57169.0	1744.659423828125	0.625	771.0	-31.0	0.7672064777327935	-0.09716599190283401	-145.0	-1256.0	-5.031350359382169	-174.0	2.542470232454647	18.14725990257006	190.0	
8.927411716146652	2274.0	2.2649811384746426	1877.0	-2.889522645611209	1334.0	0.0	57809.0	1764.190673828125	0.625	771.0	-31.0	0.7672064777327935	-0.09716599190283401	-145.0	-1251.0	-5.061936075852578	-156.0	2.267607891604289	18.06778886087093	192.0	
9.176516600286465	2281.0	2.175469552456075	1884.0	-2.973159177887773	1313.0	0.0	58449.0	1783.721923828125	0.6175	768.0	-20.0	0.7894736842105263	-0.0465587044534413	-170.0	-1248.0	-7.27940051995718	-208.0	3.15655485119118	18.030644879492424	337.0	
9.116156251241241	2285.0	2.0918156003146193	1891.0	-3.0236286315053915	1318.0	0.0	59089.0	1803.253173828125	0.6175	768.0	-20.0	0.7894736842105263	-0.0465587044534413	-170.0	-1348.0	-7.524086251720448	-151.0	2.2742978360722415	19.556270675153726	353.0	
8.805624005434582	2307.0	1.990971972029653	1900.0	-3.293811067493013	1344.0	0.0	59729.0	1822.784423828125	0.6175	768.0	-20.0	0.7894736842105263	-0.0465587044534413	-170.0	-1368.0	-7.355864811133202	-56.0	0.8033335340925637	19.848450705296425	342.0	
9.198040121656986	2310.0	1.9468693085557514	1903.0	-3.3269135379135197	1311.0	0.0	60369.0	1842.315673828125	0.6175	768.0	-20.0	0.7894736842105263	-0.0465587044534413	-170.0	-1370.0	-13.396543814038845	-78.0	1.3830053128230668	19.884936390399982	737.0	
9.294213826686798	2293.0	2.04043028772749	1895.0	-3.1192613041713533	1303.0	0.0	61009.0	1861.846923828125	0.595	759.0	-22.0	0.7854251012145749	-0.03441295546558704	-176.0	-1441.0	-14.467043890503136	-69.0	1.2765011429382758	20.973329688428006	807.0	
9.328460517339684	2295.0	1.8936707815873823	1907.0	-3.1459504129297953	1300.0	0.0	61649.0	1881.378173828125	0.595	759.0	-22.0	0.7854251012145749	-0.03441295546558704	-176.0	-1508.0	-16.332772595198044	-170.0	2.894294845068398	22.017588030543674	929.0	
9.206268560854765	2296.0	1.5792370378574787	1933.0	-3.1655092001403267	1310.0	0.0	62289.0	1900.909423828125	0.595	759.0	-22.0	0.7854251012145749	-0.03441295546558704	-176.0	-1471.0	-18.534944181067445	-255.0	4.295410211126965	21.463853288853638	1073.0	
9.374609577999339	2297.0	1.7466720856480986	1919.0	-3.1725252817841527	1296.0	0.0	62929.0	1920.440673828125	0.5925	758.0	-21.0	0.7874493927125507	-0.04453441295546559	-171.0	-1444.0	-14.864658204618445	-286.0	4.629558083297877	21.052893708805975	833.0	
9.212012422714558	2308.0	2.1536232238367483	1886.0	-3.2985423510551555	1310.0	0.0	63569.0	1939.971923828125	0.5925	758.0	-21.0	0.7874493927125507	-0.04453441295546559	-171.0	-1523.0	-6.178314727022481	-307.0	4.593013083184658	22.26474246779671	265.0	
9.117876131654414	2296.0	2.2638036416319434	1877.0	-3.152701792356841	1318.0	0.0	64209.0	1959.503173828125	0.5925	758.0	-21.0	0.7874493927125507	-0.04453441295546559	-171.0	-1682.0	-3.884385991741857	-318.0	4.646057638034186	24.705045814987066	115.0	
9.012317853916173	2278.0	2.4222615820934483	1864.0	-2.9337207464454753	1327.0	0.0	64849.0	1979.034423828125	0.5925	758.0	-21.0	0.7874493927125507	-0.04453441295546559	-171.0	-1706.0	-12.891879492277107	-262.0	4.141319238269553	25.068266038784415	704.0	
9.142886647334986	2285.0	2.3839028287367188	1867.0	-3.017519582976012	1316.0	0.0	65489.0	1998.565673828125	0.5750000000000001	751.0	-17.0	0.7955465587044535	-0.02834008097165992	-179.0	-1521.0	-29.62226640159046	-156.0	3.208496909855042	22.22020833874716	1798.0	
9.127915040857248	2267.0	2.0772183714390984	1892.0	-2.8069355183072235	1317.0	0.0	593.0	2018.096923828125	0.5750000000000001	751.0	-17.0	0.7955465587044535	-0.02834008097165992	-179.0	-1392.0	-36.30524545037468	-51.0	1.8806071118025671	20.227491048868526	2235.0	
9.62598243308245	2264.0	1.883957593959442	1907.0	-2.7696754816213116	1275.0	0.0	1233.0	2037.628173828125	0.5750000000000001	751.0	-17.0	0.7955465587044535	-0.02834008097165992	-179.0	-1409.0	-37.45220981801499	33.0	0.6318930893664377	20.475860130832288	2310.0	
9.253598106118348	2266.0	1.5502868023110254	1935.0	-2.80416912626609	1306.0	0.0	1873.0	2057.159423828125	0.535	735.0	-12.0	0.805668016194332	-0.0020242914979757085	-192.0	-1483.0	-23.979201712800126	92.0	-0.8257890687357894	21.59677509995251	1429.0	
9.228689019056702	2260.0	1.4403304770987664	1944.0	-2.734328187014446	1308.0	0.0	2513.0	2076.690673828125	0.535	735.0	-12.0	0.805668016194332	-0.0020242914979757085	-192.0	-1347.0	-13.687108120507725	64.0	-0.7859053342518493	19.51032415979236	756.0	
9.149145379764551	2255.0	1.8192998812169658	1913.0	-2.6673032714695815	1315.0	0.0	3153.0	2096.221923828125	0.535	735.0	-12.0	0.805668016194332	-0.0020242914979757085	-192.0	-1276.0	-1.988071570576541	111.0	-1.965819918978342	18.409066674218227	-9.0	
8.93660935235614	2255.0	1.994268568947402	1899.0	-2.6659292579890566	1333.0	0.0	3793.0	2115.753173828125	0.5325	734.0	-13.0	0.8036437246963563	0.03643724696356275	-211.0	-1291.0	1.1775500841107205	119.0	-2.217779252859459	18.63671433575129	-216.0	
8.895299552194125	2259.0	1.4347171241743588	1945.0	-2.725726155970475	1336.0	0.0	4433.0	2135.284423828125	0.5325	734.0	-13.0	0.8036437246963563	0.03643724696356275	-211.0	-1230.0	-10.077993576999543	60.0	-0.8507813869677511	17.714370811264587	520.0	
9.440254645117063	2264.0	1.1683216545634745	1966.0	-2.785845478288885	1290.0	0.0	5073.0	2154.815673828125	0.5325	734.0	-13.0	0.8036437246963563	0.03643724696356275	-211.0	-1042.0	-23.19926594280471	62.0	-0.32789964900164004	14.834836700916767	1378.0	
9.405654290817536	2272.0	1.279714796039262	1957.0	-2.880349161171039	1293.0	0.0	5713.0	2174.346923828125	0.5325	734.0	-13.0	0.8036437246963563	0.03643724696356275	-211.0	-1196.0	-11.806086557577613	101.0	-1.4070571200038273	17.187095609557982	633.0	
9.11138158639316	2268.0	1.614349115506382	1930.0	-2.8284064307416035	1318.0	0.0	6353.0	2193.878173828125	0.52	729.0	-7.0	0.8157894736842105	0.03441295546558704	-210.0	-1500.0	3.211500229392874	180.0	-3.2694192474887678	21.833195020353102	-349.0	
9.255064547167464	2269.0	1.6969309072227228	1923.0	-2.837366158070618	1306.0	0.0	6993.0	2213.409423828125	0.52	729.0	-7.0	0.8157894736842105	0.03441295546558704	-210.0	-1711.0	5.5818932558495185	198.0	-3.673451905726018	25.066840745635083	-504.0	
9.359489573785483	2257.0	1.4251478547388379	1945.0	-2.697179255601103	1297.0	0.0	7633.0	2232.940673828125	0.52	729.0	-7.0	0.8157894736842105	0.03441295546558704	-210.0	-1836.0	2.1410001529285827	202.0	-3.616531473764181	26.985470407220316	-279.0	
9.32427368612089	2260.0	1.4749876597079132	1941.0	-2.732679196691621	1300.0	0.0	8273.0	2252.471923828125	0.52	729.0	-6.0	0.8178137651821863	0.058704453441295545	-222.0	-1813.0	0.9328643523474538	211.0	-3.703108392770749	26.63168151389338	-200.0	
9.1837589817638	2258.0	1.7092315097132387	1922.0	-2.7053030811929166	1312.0	0.0	8913.0	2272.003173828125	0.52	729.0	-6.0	0.8178137651821863	0.058704453441295545	-222.0	-1777.0	6.75944333996024	241.0	-4.392046110930128	26.07239072501929	-581.0	
9.16129275878101	2256.0	1.8435615923866508	1911.0	-2.678744756227107	1314.0	0.0	9553.0	2291.534423828125	0.52	729.0	-6.0	0.8178137651821863	0.058704453441295545	-222.0	-1785.0	6.805321914665852	196.0	-3.7029765197547073	26.202037290196042	-584.0	
9.185107133485255	2264.0	1.8440466818588879	1911.0	-2.774882452859295	1312.0	0.0	10193.0	2311.065673828125	0.52	729.0	-6.0	0.8178137651821863	0.058704453441295545	-222.0	-1815.0	0.7034714788193914	118.0	-2.263834348622017	26.676763221651115	-185.0	
9.113939126790662	2266.0	1.8701031552566303	1909.0	-2.7991693890004545	1318.0	0.0	10833.0	2330.596923828125	0.5275	732.0	-18.0	0.7935222672064778	0.08097165991902834	-233.0	-1792.0	0.8105214864658206	129.0	-2.4337748613678873	26.322140692386785	-192.0	
9.293081779902913	2264.0	1.9272256093389335	1904.0	-2.7721391278455174	1303.0	0.0	11473.0	2350.128173828125	0.5275	732.0	-18.0	0.7935222672064778	0.08097165991902834	-233.0	-1787.0	-2.079828719987766	39.0	-0.9331412926528833	26.260424609783307	-3.0	
9.090257493450133	2267.0	1.8828922021563255	1908.0	-2.81119861716695	1320.0	0.0	12113.0	2369.659423828125	0.5275	732.0	-18.0	0.7935222672064778	0.08097165991902834	-233.0	-1709.0	-5.0925217923229855	-39.0	0.3990173246455156	25.07687647062255	194.0	
9.186828218234767	2276.0	2.016155156810036	1897.0	-2.916001385765789	1312.0	0.0	12753.0	2389.190673828125	0.52	729.0	-10.0	0.8097165991902834	0.10526315789473684	-245.0	-1589.0	-6.117143294081664	-70.0	0.9352116611003627	23.240900375012114	261.0	
9.451948839083514	2257.0	2.3377410512085173	1870.0	-2.678002799018729	1290.0	0.0	13393.0	2408.721923828125	0.52	729.0	-10.0	0.8097165991902834	0.10526315789473684	-245.0	-1597.0	-4.985471784676556	-86.0	1.134813264027807	23.365652260306387	187.0	
9.308874185656245	2255.0	2.315989994195947	1872.0	-2.655772181151085	1302.0	0.0	14033.0	2428.253173828125	0.52	729.0	-10.0	0.8097165991902834	0.10526315789473684	-245.0	-1530.0	-16.256308304022024	-183.0	3.08781037096621	22.357101826281397	924.0	
9.449388890013333	2257.0	2.0817461441906215	1891.0	-2.683148296649789	1290.0	0.0	14673.0	2447.784423828125	0.5	721.0	-5.0	0.819838056680162	0.12550607287449392	-255.0	-1448.0	-27.03777335984096	-295.0	5.254246681263739	21.12051852941813	1629.0	
9.88843806323308	2259.0	1.9390444185460405	1902.0	-2.705708224972652	1253.0	0.0	15313.0	2467.315673828125	0.5	721.0	-5.0	0.819838056680162	0.12550607287449392	-255.0	-1304.0	-33.35372381098028	-325.0	5.9903746095277945	18.91827416193079	2042.0	
9.877133161546302	2249.0	1.9990304403445742	1897.0	-2.5841396258427056	1254.0	0.0	15953.0	2486.846923828125	0.5	721.0	-5.0	0.819838056680162	0.12550607287449392	-255.0	-1332.0	-24.162716011622575	-177.0	3.3421298316585286	19.32143725657959	1441.0	
9.616373325082083	2245.0	2.1135229843988266	1888.0	-2.5362646022419253	1276.0	0.0	16593.0	2506.378173828125	0.5	721.0	-5.0	0.819838056680162	0.12550607287449392	-255.0	-1526.0	-8.242850588775044	-23.0	0.30700410076376333	22.26791582894688	400.0	
9.712814921512013	2248.0	2.233873103582076	1878.0	-2.569037762207214	1268.0	0.0	17233.0	2525.909423828125	0.47500000000000003	711.0	-3.0	0.8238866396761134	0.13360323886639677	-259.0	-1760.0	-1.6822144058724577	56.0	-1.206373762424203	25.84339122631622	-29.0	
9.80788307515738	2224.0	2.2168789443093786	1879.0	-2.2792703373501904	1260.0	0.0	17873.0	2545.440673828125	0.47500000000000003	711.0	-3.0	0.8238866396761134	0.13360323886639677	-259.0	-1827.0	-0.36702859764489987	126.0	-2.345905467568821	26.860076314359148	-115.0	
9.630311904722184	2215.0	2.3169047579327597	1871.0	-2.1706117978423154	1275.0	0.0	18513.0	2564.971923828125	0.47500000000000003	711.0	-3.0	0.8238866396761134	0.13360323886639677	-259.0	-1679.0	-3.4714788193913444	90.0	-1.6453267209072746	24.596098520423276	88.0	
9.54517039263368	2218.0	2.136086882415682	1886.0	-2.2112241487867954	1282.0	0.0	19153.0	2584.503173828125	0.47250000000000003	710.0	1.0	0.8319838056680162	0.13562753036437247	-260.0	-1642.0	-1.988071570576541	110.0	-2.006594402833907	24.024739948253387	-9.0	
9.48652871966529	2232.0	2.2243005379577268	1879.0	-2.3787209912008187	1287.0	0.0	19793.0	2604.034423828125	0.47250000000000003	710.0	1.0	0.8319838056680162	0.13562753036437247	-260.0	-1483.0	-7.080593362899527	18.0	-0.36349321484296804	21.601398058491437	324.0	
9.318787579513389	2223.0	2.116853189434112	1888.0	-2.2741136146330514	1301.0	0.0	20433.0	2623.565673828125	0.47250000000000003	710.0	1.0	0.8319838056680162	0.13562753036437247	-260.0	-1530.0	-1.896314421165316	-124.0	1.6060061118754205	22.34228378369049	-15.0	
9.185067390386093	2231.0	1.8400723719427063	1911.0	-2.377371975042827	1312.0	0.0	21073.0	2643.096923828125	0.47250000000000003	710.0	1.0	0.8319838056680162	0.13562753036437247	-260.0	-1503.0	5.1384003670285985	-116.0	1.2057425662116286	21.92398008946448	-475.0	
8.76627935906194	2222.0	1.6279359061941228	1929.0	-2.2773688497312814	1347.0	0.0	21713.0	2662.628173828125	0.47250000000000003	710.0	6.0	0.8421052631578947	0.1417004048582996	-263.0	-1425.0	8.4569506040679	-53.0	0.11599654884355237	20.716212903957057	-692.0	
8.67108207706187	2240.0	1.632017229996359	1929.0	-2.495106665954755	1355.0	0.0	22353.0	2682.159423828125	0.47250000000000003	710.0	6.0	0.8421052631578947	0.1417004048582996	-263.0	-1409.0	9.695672121119438	14.0	-0.961600110068044	20.459925198837947	-773.0	
8.65991112107515	2240.0	1.7053978218006483	1923.0	-2.4937507636785368	1356.0	0.0	22993.0	2701.690673828125	0.47250000000000003	710.0	6.0	0.8421052631578947	0.1417004048582996	-263.0	-1425.0	7.891114849365347	89.0	-2.0454332196312457	20.69459860627231	-655.0	
8.864575985941437	2247.0	1.9337890703342757	1904.0	-2.5714736394567916	1339.0	0.0	23633.0	2721.221923828125	0.47000000000000003	709.0	-4.0	0.8218623481781376	0.1437246963562753	-264.0	-1499.0	3.257378804098486	71.0	-1.5946032987935022	21.834598696181928	-352.0	
8.711441949593585	2257.0	2.0965759117395484	1891.0	-2.6902311707030075	1352.0	0.0	24273.0	2740.753173828125	0.47000000000000003	709.0	-4.0	0.8218623481781376	0.1437246963562753	-264.0	-1570.0	-1.91160727940052	-29.0	0.13931305799220636	22.941396199476653	-14.0	
8.579411532471008	2251.0	1.9887722947198756	1900.0	-2.6214183905881208	1363.0	0.0	24913.0	2760.284423828125	0.47000000000000003	709.0	-4.0	0.8218623481781376	0.1437246963562753	-264.0	-1471.0	-14.51292246520875	-200.0	3.288606334217026	21.453785250084536	810.0	
9.056625131825978	2269.0	2.0910846111693218	1891.0	-2.8314674781451004	1323.0	0.0	25553.0	2779.815673828125	0.47250000000000003	710.0	1.0	0.8319838056680162	0.16194331983805668	-273.0	-1509.0	-11.423765101697509	-77.0	1.2673946442266923	22.01666351219338	608.0	
9.10507106750105	2255.0	2.173773416771717	1884.0	-2.6606545438811215	1319.0	0.0	26193.0	2799.346923828125	0.47250000000000003	710.0	1.0	0.8319838056680162	0.16194331983805668	-273.0	-1636.0	-3.517357394096957	74.0	-1.3908029201695389	23.938830961131284	91.0	
9.024298770151441	2242.0	2.4298770151441387	1863.0	-2.4997136888630727	1326.0	0.0	26833.0	2818.878173828125	0.47250000000000003	710.0	1.0	0.8319838056680162	0.16194331983805668	-273.0	-1670.0	-2.4315644593974617	52.0	-1.101071259702015	24.463440722112203	20.0	
9.024658455479775	2237.0	2.4658455479775765	1860.0	-2.438749757497699	1326.0	0.0	27473.0	2838.409423828125	0.47250000000000003	710.0	1.0	0.8319838056680162	0.16194331983805668	-273.0	-1594.0	-9.328643523474538	74.0	-1.151930679082132	23.29675136990091	471.0	
9.25213357228479	2228.0	2.5943096094315217	1849.0	-2.3254719901608105	1307.0	0.0	28113.0	2857.940673828125	0.46	705.0	1.0	0.8319838056680162	0.1882591093117409	-286.0	-1504.0	-14.130601009328645	77.0	-0.9922050635715671	21.917345096824775	785.0	
9.454835956400894	2225.0	2.626452782946611	1846.0	-2.286657524536095	1290.0	0.0	28753.0	2877.471923828125	0.46	705.0	1.0	0.8319838056680162	0.1882591093117409	-286.0	-1422.0	-19.131365652240405	43.0	-0.2566690927697579	20.666452796566553	1112.0	
9.323055365633358	2224.0	2.5436318014310944	1853.0	-2.2775835573029966	1301.0	0.0	29393.0	2897.003173828125	0.46	705.0	1.0	0.8319838056680162	0.1882591093117409	-286.0	-1339.0	-16.02691543049396	11.0	0.12408270892964057	19.396668170959178	909.0	
9.392271730604811	2221.0	2.3224111557192266	1871.0	-2.245171228254266	1295.0	0.0	30033.0	2916.534423828125	0.425	691.0	8.0	0.8461538461538461	0.22064777327935223	-302.0	-1127.0	-12.891879492277107	1.0	0.18502797107784594	16.144247088058176	704.0	
9.344779335569054	2217.0	2.335076414048156	1870.0	-2.1972000759537074	1299.0	0.0	30673.0	2936.065673828125	0.425	691.0	8.0	0.8461538461538461	0.22064777327935223	-302.0	-966.0	-7.906407707600551	-22.0	0.36408753677389516	13.675575814757028	378.0	
9.36907409360197	2219.0	2.383599836387526	1866.0	-2.2200830454687597	1297.0	0.0	31313.0	2955.596923828125	0.425	691.0	8.0	0.8461538461538461	0.22064777327935223	-302.0	-926.0	-4.633736045266861	-17.0	0.16242738533500667	13.059779866917644	164.0	
9.439265677266825	2216.0	2.2599010600158094	1876.0	-2.1857105268462926	1291.0	0.0	31953.0	2975.128173828125	0.425	691.0	8.0	0.8461538461538461	0.22064777327935223	-302.0	-958.0	-0.6270071876433706	73.0	-1.3869994606867568	13.535309075517425	-98.0	
9.236443799486723	2221.0	2.2158085201008486	1880.0	-2.2488615602778146	1308.0	0.0	32593.0	2994.659423828125	0.4225	690.0	11.0	0.8522267206477733	0.22469635627530365	-304.0	-941.0	1.2540143752867412	147.0	-2.597797098692514	13.262344876949243	-221.0	
9.283321865493754	2221.0	2.1417103588990307	1886.0	-2.2498747428417807	1304.0	0.0	33233.0	3014.190673828125	0.4225	690.0	11.0	0.8522267206477733	0.22469635627530365	-304.0	-922.0	2.2480501605750116	175.0	-3.0652992967632287	12.966124665464163	-286.0	
9.282349055473029	2223.0	2.044429356826527	1894.0	-2.2759264765256066	1304.0	0.0	33873.0	3033.721923828125	0.4225	690.0	11.0	0.8522267206477733	0.22469635627530365	-304.0	-895.0	9.680379262884234	329.0	-5.727049603494422	12.525206103627479	-772.0	
9.199156776434988	2225.0	2.0585347863559273	1893.0	-2.3005726762675676	1311.0	0.0	34513.0	3053.253173828125	0.4275	692.0	18.0	0.8663967611336032	0.25708502024291496	-320.0	-884.0	16.439822602844472	464.0	-8.072108537443283	12.332966194048616	-1214.0	
9.141001508476963	2238.0	2.1953889429342235	1882.0	-2.4550436518396785	1316.0	0.0	35153.0	3072.784423828125	0.4275	692.0	18.0	0.8663967611336032	0.25708502024291496	-320.0	-839.0	18.290258449304176	618.0	-10.50784370839561	11.61810707772347	-1335.0	
9.22591607660085	2249.0	2.353512421989795	1869.0	-2.5835621570592555	1309.0	0.0	35793.0	3092.315673828125	0.4275	692.0	18.0	0.8663967611336032	0.25708502024291496	-320.0	-746.0	11.760207982872	642.0	-10.601535923949598	10.190133175362314	-908.0	
9.178310209582785	2252.0	2.354830482087971	1869.0	-2.620156432840726	1313.0	0.0	36433.0	3111.846923828125	0.43	693.0	10.0	0.8502024291497976	0.25708502024291496	-320.0	-763.0	6.377121884080135	617.0	-10.0043245412384	10.456961511377552	-556.0	
9.427264287313806	2235.0	2.2502382551901166	1877.0	-2.4149394594929388	1292.0	0.0	37073.0	3131.378173828125	0.43	693.0	10.0	0.8502024291497976	0.25708502024291496	-320.0	-795.0	0.7034714788193914	460.0	-7.367539363404804	10.974352840215886	-185.0	
9.4223725374744	2222.0	1.7610632712496552	1917.0	-2.268145370646046	1292.0	0.0	37713.0	3150.909423828125	0.43	693.0	10.0	0.8502024291497976	0.25708502024291496	-320.0	-707.0	-4.343171738797982	239.0	-3.7530549339859833	9.66018312259508	145.0	
9.147782776007036	2237.0	1.6830395054654324	1924.0	-2.4531746351426693	1315.0	0.0	38353.0	3170.440673828125	0.43	693.0	10.0	0.8502024291497976	0.25708502024291496	-320.0	-604.0	-2.370393026456645	106.0	-1.770520416086893	8.099526650987206	16.0	
9.123495243992148	2241.0	1.6352386849290041	1928.0	-2.5025662979578835	1317.0	0.0	38993.0	3189.971923828125	0.425	691.0	12.0	0.854251012145749	0.2793522267206478	-331.0	-704.0	-1.4528215323443954	-45.0	0.49992477757395615	9.656679468736305	-44.0	
8.979930572545502	2237.0	1.5644858259787113	1934.0	-2.457224230767019	1329.0	0.0	39633.0	3209.503173828125	0.425	691.0	12.0	0.854251012145749	0.2793522267206478	-331.0	-886.0	-2.3398073099862366	-65.0	0.8150907095243866	12.452527153834541	14.0	
8.95489235712915	2225.0	1.4416166652959912	1944.0	-2.315353682881825	1331.0	0.0	40273.0	3229.034423828125	0.425	691.0	12.0	0.854251012145749	0.2793522267206478	-331.0	-1046.0	-7.401743385838814	-31.0	0.4700550201916666	14.9041941822412	345.0	
9.096612837153272	2216.0	1.3279503819937937	1953.0	-2.2077760688078687	1319.0	0.0	40913.0	3248.565673828125	0.41500000000000004	687.0	20.0	0.8704453441295547	0.2834008097165992	-333.0	-1148.0	-12.4942651781618	18.0	-0.09556911438780419	16.463675274024144	678.0	
9.215031842882949	2220.0	1.2650890501997318	1958.0	-2.25604187647079	1309.0	0.0	41553.0	3268.096923828125	0.41500000000000004	687.0	20.0	0.8704453441295547	0.2834008097165992	-333.0	-1372.0	-14.543508181679158	56.0	-0.6324428078938634	19.895470876509062	812.0	
9.2492616728271	2208.0	1.1166434731860928	1970.0	-2.1140901764586095	1306.0	0.0	42193.0	3287.628173828125	0.41500000000000004	687.0	20.0	0.8704453441295547	0.2834008097165992	-333.0	-1661.0	-13.916500994035786	52.0	-0.6403388680264182	24.329947693105836	771.0	
9.263110867211658	2205.0	1.3110867211657469	1954.0	-2.0739182412419175	1305.0	0.0	42833.0	3307.159423828125	0.41500000000000004	687.0	20.0	0.8704453441295547	0.2834008097165992	-333.0	-1963.0	-12.402508028750574	-48.0	0.7908428430222267	28.978293574970046	672.0	
9.193152249193108	2199.0	1.4580820621680886	1942.0	-1.9993887639755503	1311.0	0.0	43473.0	3326.690673828125	0.3875	676.0	13.0	0.8562753036437247	0.25303643724696356	-318.0	-2233.0	-12.004893714635266	-103.0	1.579452992229039	33.12919026415584	646.0	
9.218412591228722	2193.0	1.60316388477702	1930.0	-1.9239453674765097	1309.0	0.0	44113.0	3346.221923828125	0.3875	676.0	13.0	0.8562753036437247	0.25303643724696356	-318.0	-2495.0	-13.503593821685275	-124.0	1.9221914020662942	37.152872366682935	744.0	
9.281583920035505	2195.0	1.967915813074351	1900.0	-1.9401150011646637	1304.0	0.0	44753.0	3365.753173828125	0.3875	676.0	13.0	0.8562753036437247	0.25303643724696356	-318.0	-2723.0	-15.614008258143448	-89.0	1.4332927356831915	40.64652565407158	882.0	
9.320425565055563	2166.0	2.280651743651425	1874.0	-1.5840742757414759	1301.0	0.0	45393.0	3385.284423828125	0.355	663.0	27.0	0.8846153846153846	0.3016194331983806	-342.0	-2926.0	-17.953815568129684	-47.0	0.849739628406323	43.75562030559817	1035.0	
9.358557474109656	2155.0	2.522414077632213	1854.0	-1.4463275894893914	1298.0	0.0	46033.0	3404.815673828125	0.355	663.0	27.0	0.8846153846153846	0.3016194331983806	-342.0	-2995.0	-22.83223734515981	-135.0	2.3877729042970848	44.829770010767696	1354.0	
9.516338251287225	2157.0	2.8243013191985398	1829.0	-1.462808422428458	1285.0	0.0	46673.0	3424.346923828125	0.355	663.0	27.0	0.8846153846153846	0.3016194331983806	-342.0	-2975.0	-23.780394555742472	-196.0	3.3669873499794525	44.53267248206202	1416.0	
