Device	Device	Device	Device	Device	Device	Device	Device	Device	Device	Device	Device	Device	Device	Device	Device	Device	Device	Device	Device	Device	
Low Noise Accelerometer X	Low Noise Accelerometer X	Low Noise Accelerometer Z	Low Noise Accelerometer Z	Low Noise Accelerometer Y	Low Noise Accelerometer Y	Event_Marker	Timestamp	Timestamp	Magnetometer Z	Magnetometer Z	Magnetometer X	Magnetometer X	Magnetometer Y	Magnetometer Y	Gyroscope Y	Gyroscope Y	Gyroscope Z	Gyroscope Z	Gyroscope X	Gyroscope X	
CAL	UNCAL	UNCAL	CAL	CAL	UNCAL	CAL	CAL	UNCAL	UNCAL	CAL	CAL	UNCAL	UNCAL	CAL	UNCAL	CAL	CAL	UNCAL	CAL	UNCAL	
m/(s^2)	no units	no units	m/(s^2)	m/(s^2)	no units	no units	ms	no units	no units	local_flux	local_flux	no units	no units	local_flux	no units	deg/s	deg/s	no units	deg/s	no units	
9.773322352755228	2071.0	2161.0	-1.2391932959059564	-0.5053638954026151	1260.0	0.0	430.2978515625	14100.0	236.0	-0.7125	0.7753036437246964	-27.0	59.0	-0.5101214574898786	-2531.0	4.81725034408931	7.043958269735449	-505.0	37.75649144705213	-454.0	
9.678949483039764	2065.0	2154.0	-1.1526707436428567	-0.4322880164280017	1268.0	0.0	449.8291015625	14740.0	236.0	-0.7125	0.7753036437246964	-27.0	59.0	-0.5101214574898786	-2412.0	1.1010857929346995	6.41105113603925	-453.0	35.9241688203983	-211.0	
9.427684078257265	2086.0	2165.0	-1.2792112218925655	-0.6903435282335918	1289.0	0.0	469.3603515625	15380.0	247.0	-0.685	0.771255060728745	-29.0	61.0	-0.5141700404858299	-2383.0	-2.263343018810216	7.226815563257808	-497.0	35.48733643858486	9.0	
9.664004371961465	2069.0	2179.0	-1.4567056609963565	-0.48671093697019197	1269.0	0.0	488.8916015625	16020.0	247.0	-0.685	0.771255060728745	-29.0	61.0	-0.5141700404858299	-2572.0	-7.799357699954122	9.77248458885955	-650.0	38.41290054022649	371.0	
9.530059647542231	2093.0	2204.0	-1.7559400076816205	-0.7831916976541137	1280.0	0.0	508.4228515625	16660.0	247.0	-0.685	0.771255060728745	-29.0	61.0	-0.5141700404858299	-2416.0	-11.072029362287813	14.203150973191914	-928.0	36.06346775340232	585.0	
10.227318342846722	2107.0	2245.0	-2.2681657153277595	-0.9551383236491724	1221.0	0.0	527.9541015625	17300.0	251.0	-0.675	0.7793522267206477	-25.0	69.0	-0.5303643724696356	-2635.0	-8.441657745832696	17.171249154231276	-1130.0	39.45359065634207	413.0	
10.45491777066109	2100.0	2233.0	-2.127270552938648	-0.865707076725656	1202.0	0.0	547.4853515625	17940.0	251.0	-0.675	0.7793522267206477	-25.0	69.0	-0.5303643724696356	-2972.0	-8.625172044655146	23.540639662161663	-1547.0	44.688375554209465	425.0	
10.282478541729635	2101.0	2183.0	-1.514050588941239	-0.8672152625061067	1217.0	0.0	567.0166015625	18580.0	251.0	-0.675	0.7793522267206477	-25.0	69.0	-0.5303643724696356	-2906.0	-7.371157669368405	23.23913836545285	-1530.0	43.672624619806136	343.0	
9.584260284104142	2100.0	2150.0	-1.0977811133955426	-0.8538238628003634	1276.0	0.0	586.5478515625	19220.0	251.0	-0.675	0.7793522267206477	-25.0	69.0	-0.5303643724696356	-2749.0	-11.851965132283224	21.55061374294615	-1407.0	41.24665543925546	636.0	
9.490732300391034	2087.0	2136.0	-0.9267699608965767	-0.6947124135634187	1284.0	0.0	606.0791015625	19860.0	257.0	-0.66	0.7449392712550608	-42.0	102.0	-0.597165991902834	-2455.0	-22.572258755161343	18.056267492166207	-1149.0	36.70043378125894	1337.0	
9.709592797270496	2075.0	2098.0	-0.46929170152191746	-0.5387959301541189	1266.0	0.0	625.6103515625	20500.0	257.0	-0.66	0.7449392712550608	-42.0	102.0	-0.597165991902834	-1906.0	-26.028444716317484	14.75655112291627	-920.0	28.243315089255866	1563.0	
9.973783964206692	2094.0	2079.0	-0.24065119837828702	-0.7604968710724868	1244.0	0.0	645.1416015625	21140.0	257.0	-0.66	0.7449392712550608	-42.0	102.0	-0.597165991902834	-1233.0	-16.47040831931488	11.69361728729247	-739.0	17.885848248981564	938.0	
9.598444311266638	2136.0	2034.0	0.320621602854295	-1.2590489079627778	1276.0	0.0	664.6728515625	21780.0	256.0	-0.6625	0.7388663967611336	-45.0	108.0	-0.6093117408906883	-1320.0	-3.5632359688025694	5.011749325370818	-339.0	19.153999647619216	94.0	
9.035861051522211	2134.0	2060.0	0.014676580792441385	-1.2466972554592906	1323.0	0.0	684.2041015625	22420.0	256.0	-0.6625	0.7388663967611336	-45.0	108.0	-0.6093117408906883	-1782.0	-3.4714788193913444	5.044859956024276	-346.0	26.243482203979458	88.0	
9.399225809908687	2133.0	2106.0	-0.5536094853217124	-1.2423811364266242	1292.0	0.0	703.7353515625	23060.0	256.0	-0.6625	0.7388663967611336	-45.0	108.0	-0.6093117408906883	-2097.0	-12.31075087933935	4.427222545552932	-286.0	31.07081818218409	666.0	
9.691398474873807	2114.0	2150.0	-1.0982477507145971	-1.0214365124342284	1267.0	0.0	723.2666015625	23700.0	256.0	-0.6625	0.7388663967611336	-45.0	108.0	-0.6093117408906883	-2171.0	-16.5315797522557	6.814888104300808	-431.0	32.23018662847281	942.0	
9.544331152744714	2137.0	2185.0	-1.519265677909697	-1.308435977934361	1279.0	0.0	742.7978515625	24340.0	258.0	-0.6575	0.7186234817813765	-55.0	138.0	-0.6700404858299596	-2024.0	-23.688637406331246	8.53872131552055	-523.0	29.991785862840647	1410.0	
9.479434360355775	2184.0	2132.0	-0.8660877739464281	-1.8622864480199492	1285.0	0.0	762.3291015625	24980.0	258.0	-0.6575	0.7186234817813765	-55.0	138.0	-0.6700404858299596	-2191.0	-15.461079675791407	5.8000190116782955	-368.0	32.52692761070908	872.0	
9.36160439259172	2163.0	2122.0	-0.7443226455897747	-1.6080173969376852	1295.0	0.0	781.8603515625	25620.0	258.0	-0.6575	0.7186234817813765	-55.0	138.0	-0.6700404858299596	-2694.0	3.226793087628078	3.5296169933730046	-274.0	40.22249887056286	-350.0	
9.843941064583355	2119.0	2168.0	-1.320179255950109	-1.0845906804972651	1254.0	0.0	801.3916015625	26260.0	265.0	-0.64	0.7186234817813765	-55.0	136.0	-0.6659919028340081	-2936.0	10.84263648875975	0.5424015202390322	-102.0	43.905991761097745	-848.0	
9.569096659415594	2125.0	2177.0	-1.423667391773783	-1.161698043891922	1277.0	0.0	820.9228515625	26900.0	265.0	-0.64	0.7186234817813765	-55.0	136.0	-0.6659919028340081	-2823.0	9.328643523474538	-0.9023976542923335	-3.0	42.157617115984316	-749.0	
9.653157911182758	2136.0	2171.0	-1.350875548390843	-1.2919317149885192	1270.0	0.0	840.4541015625	27540.0	265.0	-0.64	0.7186234817813765	-55.0	136.0	-0.6659919028340081	-2602.0	-6.270071876433706	0.07839141826172305	-24.0	38.77629411826425	271.0	
9.97831050849319	2144.0	2140.0	-0.9784729602049284	-1.3776176794203714	1243.0	0.0	859.9853515625	28180.0	275.0	-0.615	0.7165991902834008	-56.0	153.0	-0.7004048582995952	-2337.0	-11.377886526991896	0.2156774151848806	-17.0	34.71137880883039	605.0	
9.718043098721022	2144.0	2127.0	-0.8147377469453061	-1.3769456492529004	1265.0	0.0	879.5166015625	28820.0	275.0	-0.615	0.7165991902834008	-56.0	153.0	-0.7004048582995952	-2182.0	-5.352500382321456	-1.3550349115604208	71.0	32.31727671855357	211.0	
9.869976176747198	2149.0	2150.0	-1.0976204205184121	-1.4413249357995226	1252.0	0.0	899.0478515625	29460.0	275.0	-0.615	0.7165991902834008	-56.0	153.0	-0.7004048582995952	-2077.0	3.0891573635112404	-2.968537069658992	155.0	30.68997091286947	-341.0	
9.798428011006518	2139.0	2151.0	-1.1095798517291104	-1.3217976783703	1258.0	0.0	918.5791015625	30100.0	275.0	-0.615	0.7165991902834008	-56.0	153.0	-0.7004048582995952	-2024.0	10.705000764642913	-5.987394396240085	332.0	29.84652470572304	-839.0	
9.692181675356402	2157.0	2144.0	-1.019927702455066	-1.5379345686208385	1267.0	0.0	938.1103515625	30740.0	286.0	-0.5875	0.7125506072874495	-58.0	169.0	-0.7327935222672065	-1943.0	8.105214864658205	-7.1629652777115735	416.0	28.591865820600205	-669.0	
9.584092352620099	2163.0	2152.0	-1.1145742617996883	-1.6131975496616	1276.0	0.0	957.6416015625	31380.0	286.0	-0.5875	0.7125506072874495	-58.0	169.0	-0.7327935222672065	-1861.0	-3.7773359840954277	-5.352388420755783	330.0	27.351723929203523	108.0	
9.643243312989275	2167.0	2155.0	-1.1518591772628315	-1.6615445094515082	1271.0	0.0	977.1728515625	32020.0	286.0	-0.5875	0.7125506072874495	-58.0	169.0	-0.7327935222672065	-1795.0	-7.9217005658357555	-4.6689406098549275	297.0	26.34582248587629	379.0	
9.688901151293216	2166.0	2171.0	-1.3479801087736614	-1.6529621569276012	1267.0	0.0	996.7041015625	32660.0	291.0	-0.5750000000000001	0.708502024291498	-60.0	168.0	-0.7307692307692307	-1937.0	-2.9056430646887907	-5.2604868953016855	321.0	28.51882370247556	51.0	
10.06839752704361	2134.0	2182.0	-1.4935806289723663	-1.2665370348993727	1235.0	0.0	1016.2353515625	33300.0	291.0	-0.5750000000000001	0.708502024291498	-60.0	168.0	-0.7307692307692307	-2205.0	7.218229087016364	-6.3986523808405265	366.0	32.619763667997645	-611.0	
9.388870132972986	2138.0	2191.0	-1.5891771788916953	-1.3234370109228026	1292.0	0.0	1035.7666015625	33940.0	291.0	-0.5750000000000001	0.708502024291498	-60.0	168.0	-0.7307692307692307	-2405.0	13.350665239333233	-7.12065181196516	395.0	35.68144040531138	-1012.0	
8.972054217089728	2147.0	2193.0	-1.604102100551151	-1.4363374034545835	1327.0	0.0	1055.2978515625	34580.0	291.0	-0.5750000000000001	0.708502024291498	-60.0	168.0	-0.7307692307692307	-2425.0	3.5326502523321612	-5.931242108178199	343.0	36.00022417551175	-370.0	
9.485422792712546	2132.0	2180.0	-1.4577207287453398	-1.247553198695974	1284.0	0.0	1074.8291015625	35220.0	306.0	-0.5375	0.7064777327935223	-61.0	172.0	-0.7388663967611336	-2514.0	-5.65835754702554	-6.407852165432392	397.0	37.361117120512326	231.0	
9.464332421186993	2159.0	2158.0	-1.1858055003483337	-1.5676270026625665	1286.0	0.0	1094.3603515625	35860.0	306.0	-0.5375	0.7064777327935223	-61.0	172.0	-0.7388663967611336	-2566.0	-5.551307539379111	-9.25016286097172	581.0	38.13060716377942	224.0	
9.108392163431436	2187.0	2149.0	-1.0655455616183138	-1.9061306040558832	1316.0	0.0	1113.8916015625	36500.0	306.0	-0.5375	0.7064777327935223	-61.0	172.0	-0.7388663967611336	-2546.0	-8.288729163480655	-9.30679617367742	592.0	37.82315115748987	403.0	
8.365927610536676	2181.0	2186.0	-1.5024770415705255	-1.850004722557369	1378.0	0.0	1133.4228515625	37140.0	314.0	-0.5175	0.7165991902834008	-56.0	163.0	-0.7206477732793523	-2343.0	-6.637100474078606	-12.494754245001701	797.0	34.676341394177264	295.0	
9.61693308340729	2111.0	2175.0	-1.4019297545089817	-0.9921102281115284	1273.0	0.0	1152.9541015625	37780.0	314.0	-0.5175	0.7165991902834008	-56.0	163.0	-0.7206477732793523	-2103.0	-13.763572411683745	-15.525895749451106	1015.0	30.9633539011828	761.0	
10.02601057811215	2118.0	2139.0	-0.9703707602135302	-1.0637256226761609	1239.0	0.0	1172.4853515625	38420.0	314.0	-0.5175	0.7165991902834008	-56.0	163.0	-0.7206477732793523	-1780.0	-6.071264719376052	-23.966537717437532	1547.0	25.922679259928586	258.0	
9.074286908863153	2100.0	2135.0	-0.9046424470181815	-0.855060823225226	1319.0	0.0	1192.0166015625	39060.0	321.0	-0.5	0.7388663967611336	-45.0	170.0	-0.7348178137651822	-1590.0	-2.09512157822297	-28.27996927763925	1819.0	22.964093049282837	-2.0	
9.44054601058504	2073.0	2157.0	-1.1834941795912988	-0.5316740620401924	1288.0	0.0	1211.5478515625	39700.0	321.0	-0.5	0.7388663967611336	-45.0	170.0	-0.7348178137651822	-1484.0	-14.084722434623032	-29.306860041223185	1918.0	21.32730887388576	782.0	
10.63227835638329	2100.0	2145.0	-1.0578786473854578	-0.8425456327573702	1188.0	0.0	1231.0791015625	40340.0	321.0	-0.5	0.7388663967611336	-45.0	170.0	-0.7348178137651822	-1353.0	-19.161951368710813	-31.037042200419556	2045.0	19.299879693079433	1114.0	
10.003298141783334	2114.0	2130.0	-0.8606620121428028	-1.0135658009936972	1241.0	0.0	1250.6103515625	40980.0	321.0	-0.5	0.7388663967611336	-45.0	170.0	-0.7348178137651822	-1528.0	-5.352500382321456	-32.16992075827339	2081.0	21.973835547672753	211.0	
9.355772614179237	2078.0	2169.0	-1.3275004868381728	-0.5956428860046096	1295.0	0.0	1270.1416015625	41620.0	321.0	-0.5	0.7550607287449392	-37.0	174.0	-0.742914979757085	-1605.0	-4.939593209970944	-29.02982303709017	1875.0	23.186761766560203	184.0	
10.813577917129209	2067.0	2122.0	-0.7850654299363498	-0.43768601135514573	1173.0	0.0	1289.6728515625	42260.0	321.0	-0.5	0.7550607287449392	-37.0	174.0	-0.742914979757085	-1748.0	-22.067594433399606	-25.45975756710641	1686.0	25.4167235843719	1304.0	
10.71936067116789	2089.0	2114.0	-0.6829805022586681	-0.7016467262250607	1181.0	0.0	1309.2041015625	42900.0	321.0	-0.5	0.7550607287449392	-37.0	174.0	-0.742914979757085	-1931.0	-20.920630065759294	-23.2573639513195	1538.0	28.246788029966627	1229.0	
10.03729380174484	2110.0	2144.0	-1.0325245874208901	-0.9684703248153066	1238.0	0.0	1328.7353515625	43540.0	323.0	-0.495	0.7611336032388664	-34.0	164.0	-0.7226720647773279	-2226.0	-19.788958556354185	-17.057177263278113	1129.0	32.83541257599389	1155.0	
9.685106786850401	2052.0	2201.0	-1.7274165530551262	-0.2870948535540443	1267.0	0.0	1348.2666015625	44180.0	323.0	-0.495	0.7611336032388664	-34.0	164.0	-0.7226720647773279	-2463.0	-18.550237039302647	-11.29841385035218	749.0	36.52964283709875	1074.0	
10.978602280120446	2047.0	2135.0	-0.9492957974790357	-0.19835651965440032	1159.0	0.0	1367.7978515625	44820.0	323.0	-0.495	0.7611336032388664	-34.0	164.0	-0.7226720647773279	-2618.0	-21.65468726104909	-9.706100880625053	652.0	38.92396093380539	1277.0	
10.459185055323942	2064.0	2100.0	-0.5100658961771191	-0.3995853709847607	1203.0	0.0	1387.3291015625	45460.0	323.0	-0.495	0.7611336032388664	-34.0	164.0	-0.7226720647773279	-2882.0	-5.91833613702401	-11.221936467548097	707.0	42.959746263681126	248.0	
9.793515285992248	2072.0	2093.0	-0.4103761626800281	-0.5006338161768106	1259.0	0.0	1406.8603515625	46100.0	328.0	-0.4825	0.7834008097165992	-23.0	148.0	-0.6902834008097166	-3272.0	-2.8138859152775657	-5.822741537000033	344.0	48.998086839655315	45.0	
10.077453490077895	2062.0	2107.0	-0.5879843255437585	-0.3808646696823853	1235.0	0.0	1426.3916015625	46740.0	328.0	-0.4825	0.7834008097165992	-23.0	148.0	-0.6902834008097166	-3247.0	-8.655757761125555	-2.1707364903335447	122.0	48.65099479866886	427.0	
10.495610331664583	2053.0	2094.0	-0.43896683354159527	-0.26526901648671614	1200.0	0.0	1445.9228515625	47380.0	328.0	-0.4825	0.7834008097165992	-23.0	148.0	-0.6902834008097166	-3159.0	-8.85456491818321	-0.5804507007627762	20.0	47.31658309464958	440.0	
10.678080477957213	2081.0	2062.0	-0.049095061421573105	-0.5929962771717509	1185.0	0.0	1465.4541015625	48020.0	341.0	-0.45	0.7631578947368421	-33.0	152.0	-0.6983805668016194	-2945.0	-0.9634500688178621	-1.1093211948161887	36.0	44.02757488687031	-76.0	
9.880730342140566	2070.0	2061.0	-0.022203881181306367	-0.4679018344431843	1252.0	0.0	1484.9853515625	48660.0	341.0	-0.45	0.7631578947368421	-33.0	152.0	-0.6983805668016194	-2917.0	15.537543966967428	-1.1651512113149842	-3.0	43.59737104427783	-1155.0	
9.949864547874508	2100.0	2080.0	-0.25164045064451135	-0.8332450069076391	1246.0	0.0	1504.5166015625	49300.0	341.0	-0.45	0.7631578947368421	-33.0	152.0	-0.6983805668016194	-2568.0	21.3182443798746	-0.8967686004666784	-32.0	38.24483007370072	-1533.0	
9.892513218483339	2072.0	2062.0	-0.03439243738035405	-0.49212416234590617	1251.0	0.0	1524.0478515625	49940.0	357.0	-0.41000000000000003	0.7672064777327935	-31.0	166.0	-0.7267206477732794	-2547.0	25.126166080440438	-1.6303152298800685	6.0	37.91526045058597	-1782.0	
9.597026308037563	2072.0	2045.0	0.17882127994687227	-0.4908147571038194	1276.0	0.0	1543.5791015625	50580.0	357.0	-0.41000000000000003	0.7672064777327935	-31.0	166.0	-0.7267206477732794	-2331.0	10.720293622878117	-1.5593220571608413	41.0	34.601561912158175	-840.0	
9.95217828359866	2098.0	2061.0	-0.02026687822930079	-0.8044980125599247	1246.0	0.0	1563.1103515625	51220.0	357.0	-0.41000000000000003	0.7672064777327935	-31.0	166.0	-0.7267206477732794	-2043.0	-10.781465055818934	0.9752053319709446	-65.0	30.207695892509523	566.0	
10.176123049985447	2093.0	2079.0	-0.24483785859810686	-0.7465090206480113	1227.0	0.0	1582.6416015625	51860.0	357.0	-0.41000000000000003	0.7672064777327935	-31.0	166.0	-0.7267206477732794	-1977.0	-12.111943722281696	1.6230125147474441	-103.0	29.201438042901042	653.0	
10.042395634840123	2095.0	2102.0	-0.5223412778924541	-0.77749274872752	1238.0	0.0	1602.1728515625	52500.0	360.0	-0.4025	0.7753036437246964	-27.0	175.0	-0.7449392712550608	-1912.0	-4.220828872916348	1.055900315329175	-86.0	28.198375483128746	137.0	
10.053926276155176	2090.0	2105.0	-0.5597533368633052	-0.717884719638365	1237.0	0.0	1621.7041015625	53140.0	360.0	-0.4025	0.7753036437246964	-27.0	175.0	-0.7449392712550608	-1875.0	0.9175714941122497	-0.036019483736199454	-28.0	27.619710389787468	-199.0	
9.816615107385177	2094.0	2099.0	-0.4813464043393726	-0.7668824637599236	1257.0	0.0	1641.2353515625	53780.0	360.0	-0.4025	0.7753036437246964	-27.0	175.0	-0.7449392712550608	-1976.0	-1.498700107050008	1.921572056605559	-150.0	29.189079154661503	-41.0	
9.983144450188359	2109.0	2100.0	-0.49507879068800364	-0.9462147096251294	1243.0	0.0	1660.7666015625	54420.0	370.0	-0.3775	0.7651821862348178	-32.0	191.0	-0.7773279352226721	-1961.0	-9.66508640464903	4.619125753945696	-304.0	28.985887436763026	493.0	
10.25484227699299	2122.0	2117.0	-0.7062484911771696	-1.1043476313909628	1220.0	0.0	1680.2978515625	55060.0	370.0	-0.3775	0.7651821862348178	-32.0	191.0	-0.7773279352226721	-1919.0	-12.67777947698425	5.6073852715718235	-360.0	28.351301718298046	690.0	
10.370573409634122	2121.0	2144.0	-1.0378971318257644	-1.097775100106439	1210.0	0.0	1699.8291015625	55700.0	370.0	-0.3775	0.7651821862348178	-32.0	191.0	-0.7773279352226721	-1946.0	-2.110414436458174	3.750184233181739	-267.0	28.747030766683512	-1.0	
9.585240320142894	2104.0	2142.0	-0.9997775095200971	-0.9000467614468043	1276.0	0.0	1719.3603515625	56340.0	370.0	-0.3775	0.7651821862348178	-32.0	191.0	-0.7773279352226721	-2011.0	7.75347912524851	3.130365073864605	-253.0	29.73822401286846	-646.0	
9.644272991184412	2111.0	2146.0	-1.048891357749288	-0.9847760610985634	1271.0	0.0	1738.8916015625	56980.0	379.0	-0.355	0.7510121457489879	-39.0	187.0	-0.7692307692307693	-1887.0	-4.496100321150023	5.1312534644418974	-350.0	27.85551692316675	155.0	
10.108518412247331	2155.0	2146.0	-1.0529206800289197	-1.5103346752612374	1232.0	0.0	1758.4228515625	57620.0	379.0	-0.355	0.7510121457489879	-39.0	187.0	-0.7692307692307693	-1769.0	-15.675179691084265	6.565461388904987	-413.0	26.05920993075264	886.0	
10.224814496127323	2117.0	2168.0	-1.3280741967913963	-1.0568434594564824	1222.0	0.0	1777.9541015625	58260.0	379.0	-0.355	0.7510121457489879	-39.0	187.0	-0.7692307692307693	-1959.0	-5.0466432176173734	3.542632130182325	-246.0	28.944433533209143	191.0	
9.427712982329384	2110.0	2165.0	-1.2763208146807972	-0.9794420575546593	1289.0	0.0	1797.4853515625	58900.0	383.0	-0.34500000000000003	0.7368421052631579	-46.0	207.0	-0.8097165991902834	-2059.0	5.153693225263802	3.0577936771151117	-242.0	30.474033514490962	-476.0	
9.557674672737496	2119.0	2173.0	-1.3753898691074735	-1.088557556678871	1278.0	0.0	1817.0166015625	59540.0	383.0	-0.34500000000000003	0.7368421052631579	-46.0	207.0	-0.8097165991902834	-1908.0	-2.9515216393944033	4.128031115866321	-289.0	28.16771885650161	54.0	
9.56180730882107	2109.0	2139.0	-0.9621262607500698	-0.9597690304400436	1278.0	0.0	1836.5478515625	60180.0	383.0	-0.34500000000000003	0.7368421052631579	-46.0	207.0	-0.8097165991902834	-1785.0	-8.839272059948005	2.5828462465548157	-172.0	26.264895517859134	439.0	
9.908447297411875	2116.0	2127.0	-0.8219369254791891	-1.0378361932463083	1249.0	0.0	1856.0791015625	60820.0	390.0	-0.3275	0.742914979757085	-43.0	189.0	-0.7732793522267206	-1652.0	-10.368557883468421	-0.1502523932910899	11.0	24.196748204930064	539.0	
10.023935829715995	2116.0	2156.0	-1.1778455998289978	-1.0437994814102631	1239.0	0.0	1875.6103515625	61460.0	390.0	-0.3275	0.742914979757085	-43.0	189.0	-0.7732793522267206	-1511.0	-7.126471937605139	-4.334177671108427	276.0	21.991336756356283	327.0	
9.953743041714805	2118.0	2146.0	-1.0542672570911047	-1.0661262279776857	1245.0	0.0	1895.1416015625	62100.0	390.0	-0.3275	0.742914979757085	-43.0	189.0	-0.7732793522267206	-1432.0	-17.49502982107356	-5.091670628512626	353.0	20.77154761779037	1005.0	
9.627146885745683	2126.0	2189.0	-1.5710257111460664	-1.1761129007871514	1272.0	0.0	1914.6728515625	62740.0	390.0	-0.3275	0.742914979757085	-43.0	189.0	-0.7732793522267206	-1324.0	-29.499923535708827	-2.3339880197736314	206.0	19.141920208800272	1790.0	
10.508442392674507	2153.0	2185.0	-1.536713113501794	-1.4919148985842547	1198.0	0.0	1934.2041015625	63380.0	389.0	-0.33	0.7246963562753036	-52.0	193.0	-0.7813765182186235	-1422.0	-53.754396696742624	2.127859873624844	-22.0	20.6902980862305	3376.0	
10.40204886362461	2150.0	2179.0	-1.4617803042055657	-1.455335599375576	1207.0	0.0	1953.7353515625	64020.0	389.0	-0.33	0.7246963562753036	-52.0	193.0	-0.7813765182186235	-1853.0	-53.92261813732987	6.252013288002429	-294.0	27.345012077026105	3387.0	
9.840668970874537	2135.0	2195.0	-1.6473886268319387	-1.2839386731893392	1254.0	0.0	1973.2666015625	64660.0	389.0	-0.33	0.7246963562753036	-52.0	193.0	-0.7813765182186235	-2414.0	-29.11760207982872	6.788812545357198	-399.0	35.958635401807726	1765.0	
9.030434020339692	2118.0	2202.0	-1.7185027279355887	-1.088644027608327	1322.0	0.0	1992.7978515625	65300.0	388.0	-0.3325	0.7226720647773279	-53.0	191.0	-0.7773279352226721	-2626.0	-9.099250649946477	10.47756048014057	-693.0	39.248553416678035	456.0	
9.484816894038186	2135.0	2185.0	-1.5183105961814631	-1.2849156333446932	1284.0	0.0	2012.3291015625	404.0	388.0	-0.3325	0.7226720647773279	-53.0	191.0	-0.7773279352226721	-2577.0	-15.812815415201102	11.045827769825218	-712.0	38.50235639032677	895.0	
9.071647209228137	2135.0	2157.0	-1.168612410519767	-1.28205336647956	1319.0	0.0	2031.8603515625	1044.0	388.0	-0.3325	0.7226720647773279	-53.0	191.0	-0.7773279352226721	-2350.0	-9.343936381709742	8.207206138138895	-542.0	34.99077238361555	472.0	
9.198580610600782	2160.0	2190.0	-1.5705103684932356	-1.590026810902411	1308.0	0.0	2051.3916015625	1684.0	388.0	-0.3325	0.7226720647773279	-53.0	191.0	-0.7773279352226721	-2451.0	-5.688943263495948	6.722783523085464	-456.0	36.52572100693563	233.0	
8.994882534073527	2146.0	2201.0	-1.702222783123478	-1.4260233411651078	1325.0	0.0	2070.9228515625	2324.0	400.0	-0.3025	0.7024291497975709	-63.0	207.0	-0.8097165991902834	-2438.0	-7.585257684661264	5.077983487715031	-344.0	36.3097947190263	357.0	
9.06641383910547	2142.0	2200.0	-1.6919494227863114	-1.3769097898237077	1319.0	0.0	2090.4541015625	2964.0	400.0	-0.3025	0.7024291497975709	-63.0	207.0	-0.8097165991902834	-2626.0	-12.249579446398533	5.266454379587634	-346.0	39.1964423556725	662.0	
9.101044301813454	2159.0	2209.0	-1.800331723416507	-1.5835504083176655	1316.0	0.0	2109.9853515625	3604.0	400.0	-0.3025	0.7024291497975709	-63.0	207.0	-0.8097165991902834	-2549.0	-15.552836825202633	4.179928668944661	-266.0	38.00405185689047	878.0	
9.279810408888634	2148.0	2207.0	-1.7808638730411734	-1.4488432697574793	1301.0	0.0	2129.5166015625	4244.0	408.0	-0.28250000000000003	0.7044534412955465	-62.0	205.0	-0.805668016194332	-2713.0	-10.21562930111638	2.9261723640164403	-200.0	40.508009613773666	529.0	
8.876730215407626	2161.0	2194.0	-1.6126927449517285	-1.6061371551545969	1335.0	0.0	2149.0478515625	4884.0	408.0	-0.28250000000000003	0.7044534412955465	-62.0	205.0	-0.805668016194332	-2816.0	-5.214864658204619	1.449140254790493	-118.0	42.07372110946827	202.0	
9.150261394607739	2178.0	2196.0	-1.640527205892817	-1.808777809689851	1312.0	0.0	2168.5791015625	5524.0	408.0	-0.28250000000000003	0.7044534412955465	-62.0	205.0	-0.805668016194332	-2735.0	-8.992200642300046	-0.29456176559415254	6.0	40.81338091295631	449.0	
8.934295241063687	2164.0	2210.0	-1.8085711317264401	-1.6456236509467832	1330.0	0.0	2188.1103515625	6164.0	418.0	-0.2575	0.7024291497975709	-63.0	210.0	-0.8157894736842105	-2680.0	-9.40510781465056	-1.1770704460225507	65.0	39.96060922495516	476.0	
9.362552413006458	2177.0	2212.0	-1.8399967945921147	-1.7985960985087657	1294.0	0.0	2207.6416015625	6804.0	418.0	-0.2575	0.7024291497975709	-63.0	210.0	-0.8157894736842105	-2649.0	-11.57669368404955	-1.7160685257808619	106.0	39.479540250755704	618.0	
9.38976680543789	2174.0	2184.0	-1.4995099324014107	-1.755369639027384	1292.0	0.0	2227.1728515625	7444.0	418.0	-0.2575	0.7024291497975709	-63.0	210.0	-0.8157894736842105	-2678.0	-15.50695825049702	-2.855302826275874	190.0	39.913137933836374	875.0	
9.174524839895861	2154.0	2192.0	-1.5951350580328627	-1.518470705773747	1310.0	0.0	2246.7041015625	8084.0	418.0	-0.2575	0.7024291497975709	-63.0	210.0	-0.8157894736842105	-2796.0	-8.900443492888822	-4.844900573733395	301.0	41.703891028020536	443.0	
9.052495733183118	2189.0	2217.0	-1.8932838245452426	-1.9473407191590737	1320.0	0.0	2266.2353515625	8724.0	428.0	-0.2325	0.7004048582995952	-64.0	217.0	-0.8299595141700405	-2753.0	-9.282764948768925	-3.761742730259245	232.0	41.0549098091559	468.0	
9.223212171571607	2138.0	2183.0	-1.488306652363077	-1.3230761800062443	1306.0	0.0	2285.7666015625	9364.0	428.0	-0.2325	0.7004048582995952	-64.0	217.0	-0.8299595141700405	-2792.0	-0.3976143141153082	-4.2615233661715495	241.0	41.64834686546365	-113.0	
8.948045415501998	2180.0	2195.0	-1.624029878371655	-1.8345664084726538	1329.0	0.0	2305.2978515625	10004.0	428.0	-0.2325	0.7004048582995952	-64.0	217.0	-0.8299595141700405	-2663.0	-4.37375745526839	-5.513107244503799	334.0	39.656392634782215	147.0	
9.021488619157921	2144.0	2178.0	-1.4225666556365446	-1.3960677722223565	1323.0	0.0	2324.8291015625	10644.0	441.0	-0.2	0.7044534412955465	-62.0	225.0	-0.8461538461538461	-2665.0	-0.3517357394096957	-7.827578399565977	474.0	39.66393689054785	-116.0	
8.902735219163011	2166.0	2176.0	-1.3931447503656236	-1.6617271090807424	1333.0	0.0	2344.3603515625	11284.0	441.0	-0.2	0.7044534412955465	-62.0	225.0	-0.8461538461538461	-2643.0	-4.389050313503594	-9.016229066991944	562.0	39.31447174339484	148.0	
9.436893493463623	2178.0	2188.0	-1.5487458917328962	-1.804075862418094	1288.0	0.0	2363.8916015625	11924.0	441.0	-0.2	0.7044534412955465	-62.0	225.0	-0.8461538461538461	-2426.0	-9.175714941122497	-11.190878313451174	718.0	35.96297229711714	461.0	
9.879967852466327	2182.0	2166.0	-1.2889290390817083	-1.8426415528593805	1251.0	0.0	2383.4228515625	12564.0	441.0	-0.2	0.7044534412955465	-62.0	225.0	-0.8461538461538461	-2490.0	-2.966814497629607	-12.21806452635015	768.0	36.93474738910814	55.0	
9.464348077559391	2172.0	2158.0	-1.1842398631086257	-1.7242220393781447	1286.0	0.0	2402.9541015625	13204.0	451.0	-0.17500000000000002	0.6761133603238867	-76.0	232.0	-0.8603238866396761	-2531.0	2.186878727634195	-10.169517762273257	621.0	37.584356686732036	-282.0	
9.582274656597015	2172.0	2167.0	-1.2963438641080578	-1.7252848536077572	1276.0	0.0	2422.4853515625	13844.0	451.0	-0.17500000000000002	0.6761133603238867	-76.0	232.0	-0.8603238866396761	-2480.0	-1.804557271754091	-7.879513289978711	483.0	36.82468806489061	-21.0	
9.74829350766307	2168.0	2172.0	-1.3611254241694142	-1.6767275252139864	1262.0	0.0	2442.0166015625	14484.0	451.0	-0.17500000000000002	0.6761133603238867	-76.0	232.0	-0.8603238866396761	-2500.0	-0.030585716470408322	-7.922772225258582	481.0	37.13114514870031	-137.0	
9.654169259966308	2166.0	2163.0	-1.249740670035982	-1.6513446870661168	1270.0	0.0	2461.5478515625	15124.0	469.0	-0.13	0.7064777327935223	-61.0	226.0	-0.8481781376518218	-2376.0	-3.1809145129224654	-7.608558597294564	470.0	35.231571311372456	69.0	
9.262231118399898	2155.0	2156.0	-1.1578405409625945	-1.5208959454183852	1303.0	0.0	2481.0791015625	15764.0	469.0	-0.13	0.7064777327935223	-61.0	226.0	-0.8481781376518218	-2419.0	-10.643829331702095	-7.4089535863261915	476.0	35.89338015878152	557.0	
9.938372946779394	2174.0	2175.0	-1.4008005601558486	-1.7479093901690579	1246.0	0.0	2500.6103515625	16404.0	469.0	-0.13	0.7064777327935223	-61.0	226.0	-0.8481781376518218	-2157.0	-14.971708212264874	-8.456875500280528	558.0	31.86264622121325	840.0	
9.77136562932022	2167.0	2178.0	-1.4348656394067032	-1.6659234155310765	1260.0	0.0	2520.1416015625	17044.0	479.0	-0.105	0.6983805668016194	-65.0	226.0	-0.8481781376518218	-2311.0	-10.643829331702095	-7.500048176709886	483.0	34.23526497780019	557.0	
9.806801234931399	2144.0	2180.0	-1.4627336497172143	-1.389017985946235	1257.0	0.0	2539.6728515625	17684.0	479.0	-0.105	0.6983805668016194	-65.0	226.0	-0.8481781376518218	-2198.0	-14.543508181679158	-5.634860897578472	373.0	32.51999019722339	812.0	
9.947214510669564	2163.0	2200.0	-1.7071203616150563	-1.6214172500774124	1245.0	0.0	2559.2041015625	18324.0	479.0	-0.105	0.6983805668016194	-65.0	226.0	-0.8481781376518218	-2164.0	-13.809450986389358	-5.274485876328752	348.0	32.00188150305964	764.0	
9.935679052009156	2164.0	2197.0	-1.6701900371794998	-1.63284219094639	1246.0	0.0	2578.7353515625	18964.0	479.0	-0.105	0.6983805668016194	-65.0	226.0	-0.8481781376518218	-2236.0	-11.041443645817404	-5.473145576639384	353.0	33.104697729441526	583.0	
9.805845285619409	2160.0	2188.0	-1.5583285809161862	-1.5837105284006838	1257.0	0.0	2598.2666015625	19604.0	486.0	-0.08750000000000001	0.7024291497975709	-63.0	212.0	-0.819838056680162	-2318.0	-5.444257531732681	-4.617561385401685	282.0	34.37150123132015	217.0	
9.63933521219764	2161.0	2187.0	-1.5426692564263762	-1.5971106354161897	1271.0	0.0	2617.7978515625	20244.0	486.0	-0.08750000000000001	0.7024291497975709	-63.0	212.0	-0.819838056680162	-2317.0	-4.205536014681145	-2.513652348280704	142.0	34.37719583803323	136.0	
9.867067381375728	2163.0	2174.0	-1.3884999576653327	-1.6158463132913565	1252.0	0.0	2637.3291015625	20884.0	486.0	-0.08750000000000001	0.7024291497975709	-63.0	212.0	-0.819838056680162	-2343.0	-0.13763572411683744	-1.542168656549327	68.0	34.785867250061784	-130.0	
9.499426406514912	2156.0	2163.0	-1.2478355389849278	-1.5323720852687661	1283.0	0.0	2656.8603515625	21524.0	496.0	-0.0625	0.708502024291498	-60.0	222.0	-0.840080971659919	-2198.0	6.667686190549015	-2.837995373325515	136.0	32.54795885246592	-575.0	
9.226408127724604	2160.0	2157.0	-1.1687110370634664	-1.5817125491025774	1306.0	0.0	2676.3916015625	22164.0	496.0	-0.0625	0.708502024291498	-60.0	222.0	-0.840080971659919	-2099.0	13.809450986389358	-4.04667124072285	197.0	31.01676821163758	-1042.0	
8.776790284183486	2152.0	2135.0	-0.892400153079944	-1.4842969676896434	1344.0	0.0	2695.9228515625	22804.0	496.0	-0.0625	0.708502024291498	-60.0	222.0	-0.840080971659919	-2048.0	9.206300657592905	-4.946769201929101	268.0	30.22519856546115	-741.0	
8.859875112920909	2162.0	2137.0	-0.9172506126709786	-1.6044450563049335	1337.0	0.0	2715.4541015625	23444.0	496.0	-0.0625	0.708502024291498	-60.0	222.0	-0.840080971659919	-1831.0	-11.515522251108733	-5.115192588984925	335.0	26.893761377777484	614.0	
9.095611186004838	2166.0	2156.0	-1.1531671138020667	-1.654998796681053	1317.0	0.0	2734.9853515625	24084.0	508.0	-0.0325	0.7105263157894737	-59.0	223.0	-0.8421052631578947	-1787.0	-23.826273130448083	-6.830883251344861	479.0	26.201447190196387	1419.0	
9.462268511817882	2166.0	2175.0	-1.3921964372593882	-1.656112809892069	1286.0	0.0	2754.5166015625	24724.0	508.0	-0.0325	0.7105263157894737	-59.0	223.0	-0.8421052631578947	-1748.0	-24.422694601621046	-8.385258241505314	582.0	25.587468577627913	1458.0	
9.583603538937059	2162.0	2156.0	-1.1634556301035874	-1.602131872393424	1276.0	0.0	2774.0478515625	25364.0	508.0	-0.0325	0.7105263157894737	-59.0	223.0	-0.8421052631578947	-1805.0	-15.29285823520416	-9.820429707750797	651.0	26.447752431478577	861.0	
9.548032783289484	2174.0	2155.0	-1.1491026234326558	-1.746778833069493	1279.0	0.0	2793.5791015625	26004.0	518.0	-0.0075	0.7186234817813765	-55.0	196.0	-0.7874493927125507	-1680.0	-7.294693378192385	-10.351856288072383	666.0	24.52437770840975	338.0	
9.522993363536795	2161.0	2165.0	-1.2720922177491993	-1.5928625131292546	1281.0	0.0	2813.1103515625	26644.0	518.0	-0.0075	0.7186234817813765	-55.0	196.0	-0.7874493927125507	-1827.0	-4.832543202324515	-8.150399250185501	515.0	26.80203137653298	177.0	
9.403733084813771	2167.0	2167.0	-1.2933581852895326	-1.6667695918937975	1291.0	0.0	2832.6416015625	27284.0	518.0	-0.0075	0.7186234817813765	-55.0	196.0	-0.7874493927125507	-1784.0	-6.117143294081664	-8.846077746047195	564.0	26.13526179427499	261.0	
9.655756399015763	2168.0	2150.0	-1.0910267650905898	-1.672250923118883	1270.0	0.0	2852.1728515625	27924.0	524.0	0.0075	0.7449392712550608	-42.0	194.0	-0.7834008097165992	-1814.0	-8.778100627007188	-8.990344353323476	580.0	26.594153637945976	435.0	
9.203827228423167	2164.0	2147.0	-1.0458485862546307	-1.6276738801637525	1308.0	0.0	2871.7041015625	28564.0	524.0	0.0075	0.7449392712550608	-42.0	194.0	-0.7834008097165992	-1825.0	-7.01942192995871	-9.354605697084384	599.0	26.75930034474774	320.0	
9.379427487753809	2156.0	2171.0	-1.3429655103333158	-1.535474673883345	1293.0	0.0	2891.2353515625	29204.0	524.0	0.0075	0.7449392712550608	-42.0	194.0	-0.7834008097165992	-1622.0	-13.396543814038845	-9.053019429637143	598.0	23.647386024822858	737.0	
9.56754444611995	2152.0	2190.0	-1.5788887213382885	-1.4901191974354455	1277.0	0.0	2910.7666015625	29844.0	524.0	0.0075	0.7449392712550608	-42.0	194.0	-0.7834008097165992	-1597.0	-14.207065300504667	-10.631740710038569	703.0	23.247986720565724	790.0	
9.582872124917008	2162.0	2162.0	-1.2365970321087005	-1.6036020145737269	1276.0	0.0	2930.2978515625	30484.0	526.0	0.0125	0.7530364372469636	-38.0	187.0	-0.7692307692307693	-1593.0	-8.56400061171433	-12.364136669357046	801.0	23.169284826340036	421.0	
9.356742751160773	2175.0	2162.0	-1.230486788684644	-1.7623676094669043	1295.0	0.0	2949.8291015625	31124.0	526.0	0.0125	0.7530364372469636	-38.0	187.0	-0.7692307692307693	-1623.0	-4.832543202324515	-12.118084445048048	775.0	23.632079858326872	177.0	
9.532948909165775	2164.0	2181.0	-1.4670138453272061	-1.6328059685377776	1280.0	0.0	2969.3603515625	31764.0	526.0	0.0125	0.7530364372469636	-38.0	187.0	-0.7692307692307693	-1558.0	-8.074629148187798	-11.163263384048125	722.0	22.644236631158755	389.0	
9.306286161281987	2139.0	2185.0	-1.5142410146585248	-1.3348123201261337	1299.0	0.0	2988.8916015625	32404.0	536.0	0.0375	0.757085020242915	-36.0	181.0	-0.757085020242915	-1533.0	-14.834072488148037	-10.735269840041717	712.0	22.264904475145695	831.0	
9.68411564741809	2140.0	2210.0	-1.8265304962863118	-1.3493280076684127	1267.0	0.0	3008.4228515625	33044.0	536.0	0.0375	0.757085020242915	-36.0	181.0	-0.757085020242915	-1387.0	-20.339501452821533	-11.73851157080858	793.0	20.014577443751794	1191.0	
9.754823744501762	2161.0	2216.0	-1.898577930776185	-1.6030739235801446	1261.0	0.0	3027.9541015625	33684.0	536.0	0.0375	0.757085020242915	-36.0	181.0	-0.757085020242915	-1383.0	-20.263037161645514	-12.617656635035733	850.0	19.94440805847702	1186.0	
9.83934249720717	2147.0	2206.0	-1.7800359935687617	-1.4311831985137613	1254.0	0.0	3047.4853515625	34324.0	536.0	0.0375	0.757085020242915	-36.0	181.0	-0.757085020242915	-1578.0	-20.920630065759294	-11.544624543278612	780.0	22.947312692728943	1229.0	
10.204690210061582	2173.0	2236.0	-2.150026612889375	-1.7481825458198221	1223.0	0.0	3067.0166015625	34964.0	537.0	0.04	0.7672064777327935	-31.0	209.0	-0.8137651821862348	-1579.0	-16.271601162257227	-11.976811907675428	796.0	22.958335302743105	925.0	
10.029041777277412	2141.0	2212.0	-1.857727034163637	-1.3585508698984503	1238.0	0.0	3086.5478515625	35604.0	537.0	0.04	0.7672064777327935	-31.0	209.0	-0.8137651821862348	-1812.0	-7.799357699954122	-9.98278736728783	642.0	26.55354024049008	371.0	
9.779713562181996	2151.0	2207.0	-1.7905485437051047	-1.4801825099510773	1259.0	0.0	3106.0791015625	36244.0	537.0	0.04	0.7672064777327935	-31.0	209.0	-0.8137651821862348	-1741.0	-5.566600397614315	-8.36931704568975	532.0	25.480216603979194	225.0	
9.955216005902727	2163.0	2232.0	-2.0974470287748352	-1.6291437684682766	1244.0	0.0	3125.6103515625	36884.0	544.0	0.0575	0.7975708502024291	-16.0	181.0	-0.757085020242915	-1681.0	-4.220828872916348	-7.983276851728154	504.0	24.563407986431315	137.0	
10.061603513270931	2161.0	2238.0	-2.172982006240182	-1.6054942074017329	1235.0	0.0	3145.1416015625	37524.0	544.0	0.0575	0.7975708502024291	-16.0	181.0	-0.757085020242915	-1807.0	0.030585716470408322	-7.972699306965108	491.0	26.496918702802688	-141.0	
9.884173514553824	2168.0	2229.0	-2.0588390208081027	-1.6893229970778525	1250.0	0.0	3164.6728515625	38164.0	544.0	0.0575	0.7975708502024291	-16.0	181.0	-0.757085020242915	-1964.0	6.682979048784218	-7.047780709562487	412.0	28.915251823102324	-576.0	
9.574555066287317	2139.0	2230.0	-2.068302895077926	-1.3432108686844684	1276.0	0.0	3184.2041015625	38804.0	556.0	0.08750000000000001	0.791497975708502	-19.0	182.0	-0.7591093117408907	-2138.0	7.38645052760361	-4.7647454433194065	260.0	31.608022332278484	-622.0	
9.516151176310586	2148.0	2221.0	-1.9563109403699621	-1.4499888034298354	1281.0	0.0	3203.7353515625	39444.0	556.0	0.08750000000000001	0.791497975708502	-19.0	182.0	-0.7591093117408907	-2130.0	3.257378804098486	-4.859843736898572	277.0	31.484315480077694	-352.0	
9.398960828638366	2152.0	2206.0	-1.7705838028301224	-1.495638935240098	1291.0	0.0	3223.2666015625	40084.0	556.0	0.08750000000000001	0.791497975708502	-19.0	182.0	-0.7591093117408907	-2218.0	1.2234286588163328	-5.391843383248492	316.0	32.82931004552919	-219.0	
9.591088520751404	2138.0	2192.0	-1.6054336391452102	-1.321739956250089	1275.0	0.0	3242.7978515625	40724.0	556.0	0.08750000000000001	0.791497975708502	-19.0	182.0	-0.7591093117408907	-2321.0	-4.725493194678085	-5.031287142937533	307.0	34.41339742471916	170.0	
9.55550933474946	2143.0	2191.0	-1.5919236679110442	-1.3820665125408467	1278.0	0.0	3262.3291015625	41364.0	565.0	0.11	0.7975708502024291	-16.0	179.0	-0.7530364372469636	-2334.0	-2.82917877351277	-6.216537897288927	379.0	34.60102320473127	46.0	
9.582359224507206	2141.0	2166.0	-1.287887073089073	-1.351620896204661	1276.0	0.0	3281.8603515625	42004.0	565.0	0.11	0.7975708502024291	-16.0	179.0	-0.7530364372469636	-2367.0	0.764642911760208	-6.119248191121053	363.0	35.10836406251108	-189.0	
9.513733101837715	2128.0	2143.0	-1.0076421971807903	-1.190075753889094	1282.0	0.0	3301.3916015625	42644.0	565.0	0.11	0.7975708502024291	-16.0	179.0	-0.7530364372469636	-2454.0	3.0738645052760365	-5.486682065787015	315.0	36.44965980202128	-340.0	
9.707468406717961	2133.0	2116.0	-0.6817307567754831	-1.241861135887607	1266.0	0.0	3320.9228515625	43284.0	578.0	0.14250000000000002	0.8036437246963563	-13.0	177.0	-0.7489878542510121	-2439.0	3.3950145282153237	-5.727936002034046	330.0	36.21708000778693	-361.0	
9.637517014717442	2133.0	2104.0	-0.5340128139701996	-1.2396062909515067	1272.0	0.0	3340.4541015625	43924.0	578.0	0.14250000000000002	0.8036437246963563	-13.0	177.0	-0.7489878542510121	-2399.0	9.84860070347148	-6.902759106357829	390.0	35.5915524304187	-783.0	
9.66351238378212	2130.0	2086.0	-0.31542828845468407	-1.1988300684372966	1270.0	0.0	3359.9853515625	44564.0	578.0	0.14250000000000002	0.8036437246963563	-13.0	177.0	-0.7489878542510121	-2256.0	9.940357852882705	-6.2692601752047965	350.0	33.40362625661837	-789.0	
9.7252208845488	2132.0	2068.0	-0.09695916416757885	-1.2179399864860563	1265.0	0.0	3379.5166015625	45204.0	578.0	0.14250000000000002	0.8036437246963563	-13.0	177.0	-0.7489878542510121	-2105.0	4.083193148799511	-5.212032197506548	298.0	31.097181504018494	-406.0	
