Device	Device	Device	Device	Device	Device	Device	Device	Device	Device	Device	Device	Device	Device	Device	Device	Device	Device	Device	Device	Device	Device	Device	Device	Device	Device	Device	
Low Noise Accelerometer X	Low Noise Accelerometer X	Low Noise Accelerometer Z	Low Noise Accelerometer Z	Low Noise Accelerometer Y	Low Noise Accelerometer Y	Wide Range Accelerometer X	Wide Range Accelerometer X	Wide Range Accelerometer Z	Wide Range Accelerometer Z	Wide Range Accelerometer Y	Wide Range Accelerometer Y	Event_Marker	Timestamp	Timestamp	Magnetometer Z	Magnetometer Z	Magnetometer X	Magnetometer X	Magnetometer Y	Magnetometer Y	Gyroscope Y	Gyroscope Y	Gyroscope Z	Gyroscope Z	Gyroscope X	Gyroscope X	
UNCAL	CAL	UNCAL	CAL	CAL	UNCAL	CAL	UNCAL	UNCAL	CAL	CAL	UNCAL	CAL	UNCAL	CAL	UNCAL	CAL	UNCAL	CAL	CAL	UNCAL	CAL	UNCAL	CAL	UNCAL	UNCAL	CAL	
no units	m/(s^2)	no units	m/(s^2)	m/(s^2)	no units	m/(s^2)	no units	no units	m/(s^2)	m/(s^2)	no units	no units	no units	ms	no units	local_flux	no units	local_flux	local_flux	no units	deg/s	no units	deg/s	no units	no units	deg/s	
1981.0	9.721131279790603	1950.0	1.235328486212374	1.0734200193467764	1267.0	9.849172286940528	-16064.0	-2112.0	1.2949110974862048	0.8632740649908032	1408.0	0.0	8373.0	255.523681640625	789.0	-0.24347826086956523	-162.0	1.202020202020202	-0.4990019960079841	-511.0	2.299483258514721	193.0	1.999567870281454	-108.0	-194.0	-2.2891545284026376	
1981.0	9.770621168992344	1944.0	1.307485090836891	1.074636484285039	1263.0	9.809932556713672	-16000.0	-2240.0	1.3733905579399142	0.9417535254445125	1536.0	0.0	9013.0	275.054931640625	792.0	-0.23695652173913043	-178.0	1.1696969696969697	-0.5169660678642716	-502.0	2.1020509785084585	155.0	1.630371196292434	-84.0	-181.0	-1.7092334375417386	
1978.0	9.745507733937904	1947.0	1.270691483526529	1.1101619921746442	1265.0	9.809932556713672	-16000.0	-2176.0	1.3341508277130594	0.9809932556713672	1600.0	0.0	9653.0	294.586181640625	791.0	-0.2391304347826087	-170.0	1.185858585858586	-0.5508982035928145	-485.0	1.805278723292978	161.0	1.204901622925722	-54.0	-162.0	-1.7975204678412948	
1979.0	9.758063372075346	1945.0	1.2950641928521482	1.0984830828781904	1264.0	9.809932556713672	-16000.0	-2304.0	1.4126302881667687	0.9417535254445125	1536.0	0.0	10293.0	314.117431640625	793.0	-0.23478260869565218	-162.0	1.202020202020202	-0.4930139720558883	-514.0	0.8154203575685092	186.0	0.8242372744635261	-23.0	-98.0	-2.1678500210661795	
1984.0	9.855967902031935	1947.0	1.2699061283345983	1.038969583677159	1256.0	9.888412017167381	-16128.0	-2112.0	1.2949110974862048	0.9025137952176578	1472.0	0.0	10933.0	333.648681640625	796.0	-0.2282608695652174	-164.0	1.197979797979798	-0.49500998003992025	-513.0	0.36252196233240475	215.0	0.4835964908720155	3.0	-69.0	-2.6043856758970882	
1985.0	9.782579926610302	1950.0	1.2350511344386577	1.0258389612128989	1262.0	9.966891477621092	-16256.0	-2176.0	1.3341508277130594	0.9025137952176578	1472.0	0.0	11573.0	353.179931640625	789.0	-0.24347826086956523	-165.0	1.195959595959596	-0.5229540918163673	-499.0	1.4019758148488812	211.0	0.0040194414614227875	30.0	-137.0	-2.5539437125211126	
1980.0	9.79463992658387	1946.0	1.2823737264485588	1.0866737509881554	1261.0	9.927651747394236	-16192.0	-2176.0	1.3341508277130594	0.9417535254445125	1536.0	0.0	12213.0	372.711181640625	793.0	-0.23478260869565218	-169.0	1.187878787878788	-0.5349301397205589	-493.0	1.4968401261401563	210.0	0.2666735878428055	12.0	-143.0	-2.53968323015874	
1984.0	9.709549647744444	1948.0	1.2606705022452038	1.0374130448733903	1268.0	9.692213366033108	-15808.0	-2240.0	1.3733905579399142	0.9025137952176578	1472.0	0.0	12853.0	392.242431640625	798.0	-0.22391304347826088	-171.0	1.183838383838384	-0.4890219560878244	-516.0	0.37311213471811383	227.0	0.19030972013958825	23.0	-70.0	-2.7870010833243675	
1991.0	9.71040945880277	1948.0	1.2623395472407783	0.9531009840363389	1268.0	9.809932556713672	-16000.0	-2176.0	1.3341508277130594	0.8240343347639485	1344.0	0.0	13493.0	411.773681640625	795.0	-0.23043478260869565	-172.0	1.1818181818181819	-0.5089820359281437	-506.0	-0.0846592651608467	212.0	0.22803763803411875	22.0	-40.0	-2.5542864871963005	
1996.0	9.478541070340524	1955.0	1.1828781465864184	0.8897467222897512	1287.0	9.613733905579398	-15680.0	-2048.0	1.25567136725935	0.7063151440833844	1152.0	0.0	14133.0	431.304931640625	793.0	-0.23478260869565218	-163.0	1.2	-0.5069860279441119	-507.0	-1.0872275085213166	181.0	-0.7405331826899098	90.0	25.0	-2.0727779150288557	
1997.0	9.563883485821	1956.0	1.169202806765879	0.8784152002752661	1280.0	9.574494175352545	-15616.0	-2112.0	1.2949110974862048	0.7063151440833844	1152.0	0.0	14773.0	450.836181640625	795.0	-0.23043478260869565	-171.0	1.183838383838384	-0.5069860279441119	-507.0	-3.3754891990649587	105.0	-0.5075658804879317	82.0	175.0	-0.8940017620017459	
1995.0	9.46574408945982	1959.0	1.13412494458031	0.9011794132319674	1288.0	9.53525444512569	-15552.0	-2112.0	1.2949110974862048	0.7063151440833844	1152.0	0.0	15413.0	470.367431640625	792.0	-0.23695652173913043	-175.0	1.1757575757575758	-0.5249500998003993	-498.0	-3.252733535154626	82.0	-0.8599371525921239	104.0	167.0	-0.5454194327092903	
1988.0	9.477679100502641	1954.0	1.1931609129317207	0.9862264724235	1287.0	9.496014714898834	-15488.0	-1984.0	1.2164316370324952	0.8240343347639485	1344.0	0.0	16053.0	489.898681640625	793.0	-0.23478260869565218	-168.0	1.1898989898989898	-0.4850299401197605	-518.0	-4.599573301175026	74.0	-0.6061464837998101	93.0	255.0	-0.4102780312468049	
1978.0	9.61116027352177	1949.0	1.2490193927426527	1.108601796662644	1276.0	9.53525444512569	-15552.0	-2304.0	1.4126302881667687	0.8632740649908032	1408.0	0.0	16693.0	509.429931640625	797.0	-0.22608695652173913	-166.0	1.1939393939393939	-0.48103792415169666	-520.0	-4.81559344621075	124.0	0.03900691917028426	53.0	269.0	-1.1685741035607062	
1978.0	9.63578454675101	1947.0	1.2729074487146668	1.1090869199546565	1274.0	9.731453096259962	-15872.0	-2176.0	1.3341508277130594	0.9809932556713672	1600.0	0.0	17333.0	528.961181640625	790.0	-0.24130434782608695	-173.0	1.1797979797979798	-0.5169660678642716	-502.0	-3.686758652859958	249.0	1.2508784485276958	-28.0	195.0	-3.081003135904861	
1981.0	9.576161081962688	1939.0	1.3723758162059136	1.0733407906684327	1279.0	9.731453096259962	-15872.0	-2304.0	1.4126302881667687	0.8632740649908032	1408.0	0.0	17973.0	548.492431640625	791.0	-0.2391304347826087	-168.0	1.1898989898989898	-0.4790419161676647	-521.0	-2.911090515175238	306.0	1.4114787972060006	-40.0	144.0	-3.9556799693729627	
1980.0	9.611888619310676	1945.0	1.2982572481023662	1.0850050731319616	1276.0	9.652973635806253	-15744.0	-2240.0	1.3733905579399142	0.9025137952176578	1472.0	0.0	18613.0	568.023681640625	792.0	-0.23695652173913043	-174.0	1.1777777777777778	-0.48702594810379246	-517.0	-5.100800531428518	238.0	0.8778361318750381	3.0	287.0	-2.899562336891038	
1973.0	9.867894277956522	1938.0	1.3767493420495156	1.1726874000554817	1255.0	9.849172286940528	-16064.0	-2368.0	1.4518700183936235	0.9417535254445125	1536.0	0.0	19253.0	587.554931640625	791.0	-0.2391304347826087	-170.0	1.185858585858586	-0.5109780439121757	-505.0	-5.620073466335424	160.0	1.4812177103348325	-38.0	322.0	-1.7080578204697259	
1981.0	9.843890631821905	1943.0	1.3181980270517104	1.075476308275483	1257.0	9.927651747394236	-16192.0	-2240.0	1.3733905579399142	0.9809932556713672	1600.0	0.0	19893.0	607.086181640625	787.0	-0.24782608695652175	-166.0	1.1939393939393939	-0.4990019960079841	-511.0	-2.6532401831777794	212.0	2.7456414546357433	-134.0	129.0	-2.5286006780161308	
1984.0	9.856209244775199	1945.0	1.2942866210150872	1.0392158020313966	1256.0	9.966891477621092	-16256.0	-2240.0	1.3733905579399142	0.7847946045370937	1280.0	0.0	20533.0	626.617431640625	790.0	-0.24130434782608695	-174.0	1.1777777777777778	-0.4830339321357286	-519.0	-0.6418881448367282	240.0	3.252370730720815	-176.0	-2.0	-2.9745697117075265	
1992.0	9.819893462025961	1951.0	1.223791278031275	0.9417621486053913	1259.0	9.888412017167381	-16128.0	-1984.0	1.2164316370324952	0.745554874310239	1216.0	0.0	21173.0	646.148681640625	788.0	-0.24565217391304348	-172.0	1.1818181818181819	-0.5169660678642716	-502.0	-0.8046409685625646	254.0	2.537582753860122	-127.0	8.0	-3.1858699401242605	
1990.0	9.92961233165374	1949.0	1.2454789355248908	0.967172599418774	1250.0	9.966891477621092	-16256.0	-2048.0	1.25567136725935	0.7847946045370937	1280.0	0.0	21813.0	665.679931640625	788.0	-0.24565217391304348	-172.0	1.1818181818181819	-0.4990019960079841	-511.0	-3.0310378216787344	219.0	1.9066295080171853	-76.0	153.0	-2.6312865799581178	
1992.0	10.064567466487146	1944.0	1.3041986353282362	0.9450129622229728	1239.0	10.084610668301655	-16448.0	-1920.0	1.1771919068056407	0.7847946045370937	1280.0	0.0	22453.0	685.211181640625	791.0	-0.2391304347826087	-170.0	1.185858585858586	-0.4850299401197605	-518.0	-2.7395489740983825	241.0	2.2295609971026145	-98.0	134.0	-2.9688022288901954	
1995.0	9.930226482409687	1949.0	1.2466711105217296	0.9069496988208802	1250.0	10.084610668301655	-16448.0	-2112.0	1.2949110974862048	0.745554874310239	1216.0	0.0	23093.0	704.742431640625	788.0	-0.24565217391304348	-172.0	1.1818181818181819	-0.5289421157684632	-496.0	0.33986100774302663	272.0	2.154033407940813	-106.0	-67.0	-3.4710792184424495	
1996.0	9.808313988759362	1950.0	1.2371814827232281	0.8935874848353076	1260.0	9.849172286940528	-16064.0	-2304.0	1.4126302881667687	0.6670754138565297	1088.0	0.0	23733.0	724.273681640625	788.0	-0.24565217391304348	-167.0	1.1919191919191918	-0.4830339321357286	-519.0	1.3288684434746851	283.0	1.462205348201726	-64.0	-132.0	-3.6482696730279027	
1992.0	9.771851629283796	1945.0	1.297917629489692	0.9420229937925538	1263.0	9.849172286940528	-16064.0	-2112.0	1.2949110974862048	0.7847946045370937	1280.0	0.0	24373.0	743.804931640625	794.0	-0.2326086956521739	-179.0	1.1676767676767676	-0.49500998003992025	-513.0	-0.6027192869914116	238.0	0.9995522859578676	-26.0	-6.0	-2.9445431493354093	
1997.0	9.89486311795615	1941.0	1.3454086063051338	0.8834870545920103	1253.0	9.966891477621092	-16256.0	-2240.0	1.3733905579399142	0.7063151440833844	1152.0	0.0	25013.0	763.336181640625	790.0	-0.24130434782608695	-172.0	1.1818181818181819	-0.5109780439121757	-505.0	-1.1404645770356598	263.0	1.3220535510864995	-44.0	29.0	-3.3193938333170965	
2002.0	9.748817671681346	1944.0	1.3129846625320893	0.82146139683611	1265.0	9.849172286940528	-16064.0	-2240.0	1.3733905579399142	0.6670754138565297	1088.0	0.0	25653.0	782.867431640625	786.0	-0.25	-181.0	1.1636363636363636	-0.5528942115768464	-484.0	0.7169468408333071	260.0	1.3108926513307926	-52.0	-92.0	-3.2923405710699307	
2006.0	9.713217282043663	1940.0	1.363438042953251	0.7734171556596076	1268.0	9.770692826486817	-15936.0	-2304.0	1.4126302881667687	0.5493562231759657	896.0	0.0	26293.0	802.398681640625	790.0	-0.24130434782608695	-174.0	1.1777777777777778	-0.5109780439121757	-505.0	1.2105190475155305	207.0	0.7495440560499492	-19.0	-124.0	-2.491192642946638	
1994.0	9.687119047000152	1942.0	1.3366887669888237	0.9174669938025402	1270.0	9.652973635806253	-15744.0	-2496.0	1.5303494788473329	0.9025137952176578	1472.0	0.0	26933.0	821.929931640625	788.0	-0.24565217391304348	-173.0	1.1797979797979798	-0.5249500998003993	-498.0	-0.40786953460999814	90.0	-0.1835075494866344	46.0	-18.0	-0.6955410765170179	
1993.0	9.66309597184951	1938.0	1.385703754058909	0.9297651056928189	1272.0	9.613733905579398	-15680.0	-2304.0	1.4126302881667687	0.745554874310239	1216.0	0.0	27573.0	841.461181640625	787.0	-0.24782608695652175	-169.0	1.187878787878788	-0.4850299401197605	-518.0	-1.5321643729219154	77.0	-0.7728355389048144	90.0	55.0	-0.4865794969551916	
1989.0	9.77172448157349	1943.0	1.3215828171720778	0.9784029525055277	1263.0	9.809932556713672	-16000.0	-2240.0	1.3733905579399142	0.745554874310239	1216.0	0.0	28213.0	860.992431640625	793.0	-0.23478260869565218	-173.0	1.1797979797979798	-0.4830339321357286	-519.0	-2.498140784771857	27.0	-1.4406695077525478	137.0	118.0	0.2835365409275665	
1991.0	9.588374135001258	1949.0	1.2526114844429088	0.951783350170345	1278.0	9.652973635806253	-15744.0	-2240.0	1.3733905579399142	0.8240343347639485	1344.0	0.0	28853.0	880.523681640625	785.0	-0.25217391304347825	-178.0	1.1696969696969697	-0.5229540918163673	-499.0	-1.2982271054746393	-41.0	-2.195237478545699	179.0	40.0	1.305757936453986	
1984.0	9.525712298126573	1956.0	1.1668418068368105	1.0346363844231277	1283.0	9.574494175352545	-15616.0	-2112.0	1.2949110974862048	0.745554874310239	1216.0	0.0	29493.0	900.054931640625	786.0	-0.25	-171.0	1.183838383838384	-0.4790419161676647	-521.0	-1.903992804206887	-137.0	-2.8411643851603188	221.0	80.0	2.771891639068685	
1988.0	9.562053986230508	1962.0	1.093915413730102	0.9860777662887624	1280.0	9.613733905579398	-15680.0	-1856.0	1.137952176578786	0.745554874310239	1216.0	0.0	30133.0	919.586181640625	789.0	-0.24347826086956523	-172.0	1.1818181818181819	-0.48103792415169666	-520.0	-5.712105397807206	-187.0	-3.790945795698256	300.0	328.0	3.570429038768947	
1981.0	9.609356679285977	1967.0	1.0303102636163548	1.07025209111577	1276.0	9.731453096259962	-15872.0	-1728.0	1.0594727161250765	0.8240343347639485	1344.0	0.0	30773.0	939.117431640625	788.0	-0.24565217391304348	-173.0	1.1797979797979798	-0.5129740518962077	-504.0	-6.959254819698939	-164.0	-3.840076837978588	310.0	409.0	3.2330906470563052	
1981.0	9.730305960742811	1975.0	0.9303261093520238	1.070461742387695	1266.0	9.770692826486817	-15936.0	-1600.0	0.9809932556713672	0.8632740649908032	1408.0	0.0	31413.0	958.648681640625	787.0	-0.24782608695652175	-168.0	1.1898989898989898	-0.4930139720558883	-514.0	-7.514589029822028	-164.0	-2.587032773355821	229.0	446.0	3.238643989157536	
1983.0	9.828566028475619	1971.0	0.9775942178778371	1.0478206386081126	1258.0	9.888412017167381	-16128.0	-1792.0	1.0987124463519313	0.9025137952176578	1472.0	0.0	32053.0	978.179931640625	788.0	-0.24565217391304348	-178.0	1.1696969696969697	-0.48103792415169666	-520.0	-4.117274352753336	-151.0	-1.8410643860044675	164.0	225.0	3.0069522112081417	
1983.0	9.401382059484506	1975.0	0.9374508749151723	1.0431473654885748	1293.0	9.496014714898834	-15488.0	-1728.0	1.0594727161250765	0.7847946045370937	1280.0	0.0	32693.0	997.711181640625	786.0	-0.25	-171.0	1.183838383838384	-0.5169660678642716	-502.0	0.8990565915704556	-52.0	-0.5707524930421768	60.0	-102.0	1.4510854797116721	
1987.0	9.68275976616452	1971.0	0.9815025781261584	0.9982088885031475	1270.0	9.809932556713672	-16000.0	-1728.0	1.0594727161250765	0.8632740649908032	1408.0	0.0	33333.0	1017.242431640625	787.0	-0.24782608695652175	-178.0	1.1696969696969697	-0.5109780439121757	-505.0	-0.24541811330256286	-1.0	-0.6699654900871961	74.0	-28.0	0.6868648275208584	
1974.0	9.815389763243557	1970.0	0.9878847675780091	1.1562255163925528	1259.0	9.809932556713672	-16000.0	-1664.0	1.020232985898222	1.020232985898222	1664.0	0.0	33973.0	1036.773681640625	787.0	-0.24782608695652175	-165.0	1.195959595959596	-0.4770459081836328	-522.0	-2.3597192035094783	26.0	0.10830837497767659	33.0	110.0	0.2973614505902279	
1981.0	9.853547998260638	1964.0	1.061956635552338	1.0730104680248764	1256.0	9.849172286940528	-16064.0	-1792.0	1.0987124463519313	0.8240343347639485	1344.0	0.0	34613.0	1056.304931640625	785.0	-0.25217391304347825	-170.0	1.185858585858586	-0.502994011976048	-509.0	-1.5417459808885	31.0	0.6391269099552249	-6.0	57.0	0.21313609098759223	
1977.0	9.706276409253492	1968.0	1.0151965304447392	1.119262922168066	1268.0	9.809932556713672	-16000.0	-1984.0	1.2164316370324952	0.9025137952176578	1472.0	0.0	35253.0	1075.836181640625	785.0	-0.25217391304347825	-168.0	1.1898989898989898	-0.4770459081836328	-522.0	-2.6363215442809653	42.0	0.31720378317706577	21.0	128.0	0.05678146639337999	
1978.0	9.84098804256408	1964.0	1.061487548908472	1.1090247559147253	1257.0	9.849172286940528	-16064.0	-1920.0	1.1771919068056407	0.9809932556713672	1600.0	0.0	35893.0	1095.367431640625	789.0	-0.24347826086956523	-176.0	1.1737373737373737	-0.48103792415169666	-520.0	-3.351463348411063	43.0	0.9522936639404435	-18.0	175.0	0.0487237589593958	
1968.0	9.754178141608007	1966.0	1.036446234713968	1.2283881714740625	1264.0	9.888412017167381	-16128.0	-1728.0	1.0594727161250765	1.0594727161250765	1728.0	0.0	36533.0	1114.898681640625	787.0	-0.24782608695652175	-174.0	1.1777777777777778	-0.502994011976048	-509.0	-2.285681886707202	53.0	1.7837491492835251	-78.0	106.0	-0.11402531041049452	
1975.0	9.877193947839476	1964.0	1.0600335888476562	1.145516853680124	1254.0	9.927651747394236	-16192.0	-1920.0	1.1771919068056407	1.0594727161250765	1728.0	0.0	37173.0	1134.429931640625	781.0	-0.2608695652173913	-173.0	1.1797979797979798	-0.502994011976048	-509.0	-1.6226872438928686	68.0	2.316445339857604	-116.0	63.0	-0.3487921389679155	
1977.0	9.791616665954411	1968.0	1.0134730019650766	1.1200990894502787	1261.0	9.888412017167381	-16128.0	-1792.0	1.0987124463519313	0.9417535254445125	1536.0	0.0	37813.0	1153.961181640625	783.0	-0.2565217391304348	-179.0	1.1676767676767676	-0.5049900199600799	-508.0	-1.2343689577602528	79.0	1.4115526812124692	-57.0	37.0	-0.5199757020573785	
1975.0	9.804045156381548	1964.0	1.0615108989730815	1.1448001388667988	1260.0	9.888412017167381	-16128.0	-1984.0	1.2164316370324952	1.020232985898222	1664.0	0.0	38453.0	1173.492431640625	784.0	-0.25434782608695655	-173.0	1.1797979797979798	-0.5169660678642716	-502.0	-2.5552765894098806	46.0	0.8087491380822398	-12.0	123.0	-0.004865485056471541	
1968.0	9.778681743465613	1965.0	1.0481440443457375	1.2287501855889564	1262.0	9.888412017167381	-16128.0	-1792.0	1.0987124463519313	1.020232985898222	1664.0	0.0	39093.0	1193.023681640625	782.0	-0.25869565217391305	-170.0	1.185858585858586	-0.4730538922155689	-524.0	-2.5149906280074514	76.0	0.6892636520058395	-3.0	120.0	-0.461542108929051	
1964.0	9.949353621749214	1961.0	1.0925042327499193	1.2790932773401718	1248.0	10.084610668301655	-16448.0	-1856.0	1.137952176578786	1.0987124463519313	1792.0	0.0	39733.0	1212.554931640625	788.0	-0.24565217391304348	-165.0	1.195959595959596	-0.4770459081836328	-522.0	-1.7292285783314192	71.0	0.9163903594677234	-22.0	69.0	-0.3933541020493855	
1978.0	9.876959081434887	1969.0	0.9997976621445372	1.108767567435794	1254.0	9.966891477621092	-16256.0	-1664.0	1.020232985898222	0.9417535254445125	1536.0	0.0	40373.0	1232.086181640625	786.0	-0.25	-171.0	1.183838383838384	-0.5149700598802396	-503.0	-0.18924908119807365	154.0	-0.36968322430113737	60.0	-33.0	-1.6711113114693883	
1978.0	9.7554064431199	1966.0	1.0388305847076458	1.1079423702782751	1264.0	9.849172286940528	-16064.0	-1792.0	1.0987124463519313	0.9025137952176578	1472.0	0.0	41013.0	1251.617431640625	784.0	-0.25434782608695655	-173.0	1.1797979797979798	-0.4770459081836328	-522.0	-0.5305566604336742	116.0	-1.313573823640707	123.0	-11.0	-1.0897514676161955	
1980.0	9.707127585193588	1964.0	1.0646728208038203	1.0836216185178051	1268.0	9.770692826486817	-15936.0	-1920.0	1.1771919068056407	0.8632740649908032	1408.0	0.0	41653.0	1271.148681640625	786.0	-0.25	-179.0	1.1676767676767676	-0.4890219560878244	-516.0	-3.367334129569453	131.0	-2.366378951346264	207.0	173.0	-1.2895205750541154	
1973.0	9.913402011894432	1965.0	1.0466278174459638	1.1698412621488252	1251.0	10.006131207847945	-16320.0	-1600.0	0.9809932556713672	0.9809932556713672	1600.0	0.0	42293.0	1290.679931640625	787.0	-0.24782608695652175	-173.0	1.1797979797979798	-0.500998003992016	-510.0	-3.8688106855900464	131.0	-1.8667085668553272	176.0	206.0	-1.2845058094939095	
1975.0	9.768436131625633	1956.0	1.15977152475775	1.1454266548770866	1263.0	9.849172286940528	-16064.0	-1920.0	1.1771919068056407	0.9417535254445125	1536.0	0.0	42933.0	1310.211181640625	784.0	-0.25434782608695655	-169.0	1.187878787878788	-0.47504990019960086	-523.0	0.5834268549623521	212.0	-0.493123824592123	67.0	-84.0	-2.5609673483975324	
1976.0	9.805012686134154	1957.0	1.1470810583541606	1.1336173229870514	1260.0	9.849172286940528	-16064.0	-2048.0	1.25567136725935	0.9417535254445125	1536.0	0.0	43573.0	1329.742431640625	780.0	-0.26304347826086955	-179.0	1.1676767676767676	-0.4990019960079841	-511.0	1.0051264272024758	202.0	0.08613488866301369	26.0	-111.0	-2.413093089367082	
1982.0	9.817699789541015	1959.0	1.1238849573156409	1.061223076384229	1259.0	9.888412017167381	-16128.0	-1984.0	1.2164316370324952	0.7847946045370937	1280.0	0.0	44213.0	1349.273681640625	783.0	-0.2565217391304348	-167.0	1.1919191919191918	-0.4990019960079841	-511.0	-0.03139785286366088	189.0	0.6001433457522466	-4.0	-43.0	-2.2050092153877134	
1979.0	9.84219691505995	1955.0	1.1714382009700406	1.0980881583892153	1257.0	9.927651747394236	-16192.0	-1984.0	1.2164316370324952	0.9025137952176578	1472.0	0.0	44853.0	1368.804931640625	778.0	-0.2673913043478261	-171.0	1.183838383838384	-0.5149700598802396	-503.0	-0.8460036998221718	102.0	0.6938671785353221	-10.0	11.0	-0.8736692405683183	
1980.0	9.902794385939556	1959.0	1.1216845588372428	1.086148403905599	1252.0	10.006131207847945	-16320.0	-1856.0	1.137952176578786	0.8632740649908032	1408.0	0.0	45493.0	1388.336181640625	786.0	-0.25	-169.0	1.187878787878788	-0.46906187624750506	-526.0	-0.8922046683064211	130.0	1.1039220839254196	-36.0	14.0	-1.2990627441914608	
1979.0	9.999358578130854	1966.0	1.0341446526222633	1.0982868395364465	1244.0	10.006131207847945	-16320.0	-1728.0	1.0594727161250765	0.9417535254445125	1536.0	0.0	46133.0	1407.867431640625	784.0	-0.25434782608695655	-172.0	1.1818181818181819	-0.5169660678642716	-502.0	-0.3804815419267522	107.0	1.2792013151140214	-51.0	-19.0	-0.9543700895236983	
1985.0	9.780166499177676	1970.0	0.9912462076337673	1.0233767776705238	1262.0	9.927651747394236	-16192.0	-1792.0	1.0987124463519313	0.8240343347639485	1344.0	0.0	46773.0	1427.398681640625	781.0	-0.2608695652173913	-170.0	1.185858585858586	-0.4770459081836328	-522.0	1.945989591044651	118.0	0.8091283607576926	-30.0	-171.0	-1.1449351810815493	
1979.0	9.791620983513528	1970.0	0.9895693792833231	1.095763710856884	1261.0	9.927651747394236	-16192.0	-1728.0	1.0594727161250765	0.9025137952176578	1472.0	0.0	47413.0	1446.929931640625	788.0	-0.24565217391304348	-172.0	1.1818181818181819	-0.471057884231537	-525.0	1.15696325726732	69.0	0.9691672413901692	-39.0	-119.0	-0.39179776945480255	
1980.0	9.681779283734562	1972.0	0.9676432867903395	1.08239784016308	1270.0	9.731453096259962	-15872.0	-1664.0	1.020232985898222	0.9025137952176578	1472.0	0.0	48053.0	1466.461181640625	787.0	-0.24782608695652175	-176.0	1.1737373737373737	-0.502994011976048	-509.0	0.31147372737817636	67.0	0.8019090264105418	-24.0	-64.0	-0.3529246232053407	
1971.0	9.851474997147323	1971.0	0.9742405611769487	1.1925945049808326	1256.0	9.966891477621092	-16256.0	-1664.0	1.020232985898222	0.9809932556713672	1600.0	0.0	48693.0	1485.992431640625	786.0	-0.25	-167.0	1.1919191919191918	-0.4670658682634731	-527.0	-1.4245704836217472	75.0	0.7476945786707165	-12.0	49.0	-0.45723718489762283	
1982.0	9.81625173308144	1971.0	0.9776020012327068	1.059745766258804	1259.0	9.927651747394236	-16192.0	-1728.0	1.0594727161250765	0.9809932556713672	1600.0	0.0	49333.0	1505.523681640625	786.0	-0.25	-175.0	1.1757575757575758	-0.47504990019960086	-523.0	-0.05038591119372693	151.0	1.193039697562749	-45.0	-41.0	-1.6268725667435762	
1976.0	9.815876766289197	1968.0	1.0127421302572337	1.1323825745076326	1259.0	9.809932556713672	-16000.0	-1728.0	1.0594727161250765	0.9417535254445125	1536.0	0.0	49973.0	1525.054931640625	782.0	-0.25869565217391305	-169.0	1.187878787878788	-0.502994011976048	-509.0	1.2418510860809442	160.0	1.6333129189079425	-80.0	-125.0	-1.7766770659938895	
1980.0	9.694453434464075	1968.0	1.01615805379708	1.0830097293404426	1269.0	9.731453096259962	-15872.0	-1728.0	1.0594727161250765	0.9417535254445125	1536.0	0.0	50613.0	1544.586181640625	784.0	-0.25434782608695655	-169.0	1.187878787878788	-0.4730538922155689	-524.0	2.6629063078696946	226.0	2.00934217542185	-109.0	-218.0	-2.7946898995805984	
1975.0	9.645073422736175	1968.0	1.0159507522171913	1.1427548200627862	1273.0	9.692213366033108	-15808.0	-1728.0	1.0594727161250765	0.9809932556713672	1600.0	0.0	51253.0	1564.117431640625	779.0	-0.26521739130434785	-171.0	1.183838383838384	-0.48702594810379246	-517.0	1.1792410052229585	182.0	1.8459571596795463	-93.0	-121.0	-2.110651725641583	
1978.0	9.815881083848314	1970.0	0.9888385075754802	1.1080471959142377	1259.0	9.927651747394236	-16192.0	-1792.0	1.0987124463519313	0.9417535254445125	1536.0	0.0	51893.0	1583.648681640625	784.0	-0.25434782608695655	-173.0	1.1797979797979798	-0.5169660678642716	-502.0	-1.0113247882944025	125.0	1.3940285903959189	-55.0	22.0	-1.2218259156151552	
1974.0	9.79088616138595	1971.0	0.9761869579462396	1.1558635022776589	1261.0	9.849172286940528	-16064.0	-1664.0	1.020232985898222	1.020232985898222	1664.0	0.0	52533.0	1603.179931640625	784.0	-0.25434782608695655	-168.0	1.1898989898989898	-0.47504990019960086	-523.0	-0.4726884921319741	98.0	1.1302185961959428	-41.0	-13.0	-0.8165658907440796	
1974.0	9.583389909511888	1973.0	0.9559921772877884	1.1535865919523338	1278.0	9.652973635806253	-15744.0	-1792.0	1.0987124463519313	1.0594727161250765	1728.0	0.0	53173.0	1622.711181640625	785.0	-0.25217391304347825	-178.0	1.1696969696969697	-0.4890219560878244	-516.0	1.2593294723262178	133.0	1.435760522734452	-68.0	-126.0	-1.3662054620236426	
1977.0	9.693240244409088	1975.0	0.9301110244172652	1.1182817054593475	1269.0	9.809932556713672	-16000.0	-1536.0	0.9417535254445125	0.9025137952176578	1472.0	0.0	53813.0	1642.242431640625	787.0	-0.24782608695652175	-175.0	1.1757575757575758	-0.4990019960079841	-511.0	0.7438053389636392	180.0	1.2453615945918828	-51.0	-93.0	-2.07587911802842	
1982.0	9.693975066536666	1974.0	0.9434934457543485	1.0581819140385726	1269.0	9.770692826486817	-15936.0	-1664.0	1.020232985898222	0.9417535254445125	1536.0	0.0	54453.0	1661.773681640625	784.0	-0.25434782608695655	-168.0	1.1898989898989898	-0.4730538922155689	-524.0	0.5255743976423827	201.0	1.228348622262704	-48.0	-79.0	-2.393088443596196	
1979.0	9.69384791882636	1972.0	0.9671586334367342	1.0945618727515465	1269.0	9.770692826486817	-15936.0	-1664.0	1.020232985898222	0.9025137952176578	1472.0	0.0	55093.0	1681.304931640625	782.0	-0.25869565217391305	-174.0	1.1777777777777778	-0.5049900199600799	-508.0	0.36865723291449337	175.0	0.4888198827752977	1.0	-69.0	-1.9960820095915026	
1979.0	9.742975793913207	1969.0	1.0027444990405177	1.0954090101584528	1265.0	9.849172286940528	-16064.0	-1792.0	1.0987124463519313	0.9417535254445125	1536.0	0.0	55733.0	1700.836181640625	787.0	-0.24782608695652175	-169.0	1.187878787878788	-0.4910179640718563	-515.0	-0.7671422698040462	146.0	0.040483815176895435	35.0	5.0	-1.5436593757810473	
1976.0	9.693841442487685	1969.0	1.0030140674593644	1.1310649406416389	1269.0	9.809932556713672	-16000.0	-1728.0	1.0594727161250765	0.9025137952176578	1472.0	0.0	56373.0	1720.367431640625	785.0	-0.25217391304347825	-170.0	1.185858585858586	-0.46906187624750506	-526.0	-0.7967910870153008	140.0	0.05388968648885626	34.0	7.0	-1.4521081347572236	
1981.0	9.767966398816457	1966.0	1.0392996713515117	1.0719280823884263	1263.0	9.809932556713672	-16000.0	-1792.0	1.0987124463519313	0.8632740649908032	1408.0	0.0	57013.0	1739.898681640625	788.0	-0.24565217391304348	-179.0	1.1676767676767676	-0.49500998003992025	-513.0	-1.2458386508873396	196.0	0.5090169354502633	8.0	36.0	-2.299328685734473	
1979.0	9.829281421587174	1961.0	1.0985429412828112	1.0972300508576152	1258.0	9.927651747394236	-16192.0	-1728.0	1.0594727161250765	0.9025137952176578	1472.0	0.0	57653.0	1759.429931640625	782.0	-0.25869565217391305	-174.0	1.1777777777777778	-0.502994011976048	-509.0	-0.814006152271963	196.0	0.7188414535166481	-8.0	8.0	-2.3036470107206264	
1980.0	9.804900649880757	1962.0	1.0870835666504095	1.0848234566231427	1260.0	9.849172286940528	-16064.0	-1856.0	1.137952176578786	0.9417535254445125	1536.0	0.0	58293.0	1778.961181640625	784.0	-0.25434782608695655	-171.0	1.183838383838384	-0.471057884231537	-525.0	0.49631522130907774	218.0	1.6305323637099702	-74.0	-77.0	-2.651350984912711	
1987.0	9.76942740795338	1960.0	1.1138717593891854	1.0003992567336664	1263.0	9.888412017167381	-16128.0	-1920.0	1.1771919068056407	0.8632740649908032	1408.0	0.0	58933.0	1798.492431640625	787.0	-0.24782608695652175	-182.0	1.1616161616161615	-0.4850299401197605	-518.0	2.4239063577234417	175.0	1.8900024297455662	-102.0	-202.0	-2.0166345008395923	
1995.0	9.784049570865458	1948.0	1.2618159771128243	0.9056393783713489	1262.0	9.849172286940528	-16064.0	-2304.0	1.4126302881667687	0.745554874310239	1216.0	0.0	59573.0	1818.023681640625	788.0	-0.24565217391304348	-177.0	1.1717171717171717	-0.5229540918163673	-499.0	1.5614908217391243	126.0	2.38498428131042	-133.0	-145.0	-1.2627631971907753	
1991.0	9.611067666284397	1963.0	1.0814555989710108	0.9502987266284574	1276.0	9.770692826486817	-15936.0	-1920.0	1.1771919068056407	0.745554874310239	1216.0	0.0	60213.0	1837.554931640625	785.0	-0.25217391304347825	-172.0	1.1818181818181819	-0.4730538922155689	-524.0	0.1911816283193336	45.0	2.251170189655002	-121.0	-55.0	-0.01712094175847851	
1987.0	9.842938213526203	1957.0	1.1489651882844938	1.0014852990783478	1257.0	9.966891477621092	-16256.0	-1984.0	1.2164316370324952	0.8632740649908032	1408.0	0.0	60853.0	1857.086181640625	786.0	-0.25	-180.0	1.1656565656565656	-0.4970059880239522	-512.0	0.03592407025558908	22.0	1.7232460890745687	-86.0	-45.0	0.3342415197537179	
1992.0	9.87964407452459	1961.0	1.1006577228576424	0.9411283191786414	1254.0	9.966891477621092	-16256.0	-1728.0	1.0594727161250765	0.7063151440833844	1152.0	0.0	61493.0	1876.617431640625	786.0	-0.25	-168.0	1.1898989898989898	-0.5069860279441119	-507.0	1.853766050616791	81.0	1.7675503570962354	-95.0	-164.0	-0.5812753030917194	
1992.0	9.916580484368449	1958.0	1.1364898068156633	0.9418560041166602	1251.0	10.0453709380748	-16384.0	-1856.0	1.137952176578786	0.7063151440833844	1152.0	0.0	62133.0	1896.148681640625	784.0	-0.25434782608695655	-169.0	1.187878787878788	-0.47504990019960086	-523.0	1.9701544374934001	77.0	1.0673610928797845	-49.0	-172.0	-0.5216026850593448	
1988.0	9.842578358190869	1961.0	1.1004426379228838	0.988948282250294	1257.0	9.888412017167381	-16128.0	-1856.0	1.137952176578786	0.8632740649908032	1408.0	0.0	62773.0	1915.679931640625	784.0	-0.25434782608695655	-176.0	1.1737373737373737	-0.5129740518962077	-504.0	1.5925468096971684	56.0	-0.17850339646741575	35.0	-148.0	-0.19843497380039377	
1984.0	9.853916488714205	1964.0	1.0626719405504415	1.0368767276661401	1256.0	9.966891477621092	-16256.0	-1792.0	1.0987124463519313	0.9025137952176578	1472.0	0.0	63413.0	1935.211181640625	787.0	-0.24782608695652175	-175.0	1.1757575757575758	-0.5189620758483035	-501.0	0.41400573814623637	-18.0	-0.9810761591893673	91.0	-71.0	0.9388257220862183	
1979.0	9.792827697229841	1960.0	1.1114718426857682	1.0969948026280716	1261.0	9.849172286940528	-16064.0	-1792.0	1.0987124463519313	0.9417535254445125	1536.0	0.0	64053.0	1954.742431640625	786.0	-0.25	-171.0	1.183838383838384	-0.48702594810379246	-517.0	-0.052312420515002296	-35.0	-1.8285278380610432	149.0	-41.0	1.2020440367526786	
1976.0	9.865245984119309	1963.0	1.0727084885415061	1.1334759302687765	1255.0	9.966891477621092	-16256.0	-1856.0	1.137952176578786	0.9809932556713672	1600.0	0.0	64693.0	1974.273681640625	790.0	-0.24130434782608695	-183.0	1.1595959595959595	-0.4830339321357286	-519.0	-1.0336347086671278	-49.0	-1.9486549620493263	161.0	23.0	1.4247850162881925	
1977.0	9.877198265398592	1966.0	1.036129966165903	1.1211814750867288	1254.0	9.966891477621092	-16256.0	-1792.0	1.0987124463519313	0.9809932556713672	1600.0	0.0	65333.0	1993.804931640625	789.0	-0.24347826086956523	-178.0	1.1696969696969697	-0.5149700598802396	-503.0	0.8051909676552385	-40.0	-2.101146951446512	163.0	-97.0	1.269514630247402	
1971.0	9.705539428346356	1968.0	1.0137659204485325	1.1915304028855387	1268.0	9.770692826486817	-15936.0	-1728.0	1.0594727161250765	0.9417535254445125	1536.0	0.0	437.0	2013.336181640625	787.0	-0.24782608695652175	-171.0	1.183838383838384	-0.4730538922155689	-524.0	1.2591496175999228	-4.0	-2.2007963552870073	169.0	-127.0	0.717446526637689	
1977.0	9.64495706892366	1971.0	0.979856883195193	1.1182963322922725	1273.0	9.731453096259962	-15872.0	-1728.0	1.0594727161250765	0.9417535254445125	1536.0	0.0	1077.0	2032.867431640625	789.0	-0.24347826086956523	-175.0	1.1757575757575758	-0.4770459081836328	-522.0	0.12330493391017776	32.0	-1.6650578159221383	140.0	-53.0	0.1812764563643203	
1977.0	9.693360915780719	1974.0	0.9423012707575096	1.1184048146364662	1269.0	9.731453096259962	-15872.0	-1664.0	1.020232985898222	0.9025137952176578	1472.0	0.0	1717.0	2052.398681640625	786.0	-0.25	-169.0	1.187878787878788	-0.4890219560878244	-516.0	-3.431775918257674	44.0	-2.4597990707519344	210.0	178.0	0.034317759182576735	
1978.0	9.730058141660873	1974.0	0.9418010506941648	1.10671859192355	1266.0	9.809932556713672	-16000.0	-1536.0	0.9417535254445125	0.9417535254445125	1536.0	0.0	2357.0	2071.929931640625	790.0	-0.24130434782608695	-168.0	1.1898989898989898	-0.4730538922155689	-524.0	-4.08529378178761	101.0	-2.4845849476034823	217.0	220.0	-0.8260672142733787	
1975.0	9.706754777180903	1962.0	1.0878611384874706	1.1440907374699363	1268.0	9.692213366033108	-15808.0	-1792.0	1.0987124463519313	1.020232985898222	1664.0	0.0	2997.0	2091.461181640625	789.0	-0.24347826086956523	-175.0	1.1757575757575758	-0.4770459081836328	-522.0	-4.3564433375462865	94.0	-2.0801663962044836	191.0	238.0	-0.7168918403887958	
1977.0	9.815878925068755	1969.0	1.000790318916357	1.1202148852109353	1259.0	9.888412017167381	-16128.0	-1664.0	1.020232985898222	0.9417535254445125	1536.0	0.0	3637.0	2110.992431640625	785.0	-0.25217391304347825	-175.0	1.1757575757575758	-0.502994011976048	-509.0	-3.8720632267399786	80.0	-1.4327411897689692	145.0	207.0	-0.5088078848428664	
1975.0	9.778938197665783	1970.0	0.9888618576400894	1.1438225788663114	1262.0	9.809932556713672	-16000.0	-1728.0	1.0594727161250765	0.9417535254445125	1536.0	0.0	4277.0	2130.523681640625	788.0	-0.24565217391304348	-174.0	1.1777777777777778	-0.4830339321357286	-519.0	-0.9189884617628306	76.0	-0.861098458584876	93.0	15.0	-0.4775021305914972	
1977.0	9.547425346979752	1971.0	0.9818266300290932	1.1173407125411725	1281.0	9.574494175352545	-15616.0	-1600.0	0.9809932556713672	0.9417535254445125	1536.0	0.0	4917.0	2150.054931640625	789.0	-0.24347826086956523	-180.0	1.1656565656565656	-0.4930139720558883	-514.0	1.1644514984620353	116.0	-0.6369436928491737	70.0	-121.0	-1.1067015492051528	
1973.0	9.79076333123476	1971.0	0.9759485229468717	1.1679080823972376	1261.0	9.888412017167381	-16128.0	-1600.0	0.9809932556713672	0.9809932556713672	1600.0	0.0	5557.0	2169.586181640625	788.0	-0.24565217391304348	-177.0	1.1717171717171717	-0.500998003992016	-510.0	0.07234732855530417	84.0	0.16922426417426645	20.0	-49.0	-0.6090884922969599	
1976.0	9.63336680175927	1965.0	1.05300614459153	1.1309601150056763	1274.0	9.692213366033108	-15808.0	-1792.0	1.0987124463519313	0.9809932556713672	1600.0	0.0	6197.0	2189.117431640625	788.0	-0.24565217391304348	-169.0	1.187878787878788	-0.4650698602794412	-528.0	1.8200606052809778	134.0	0.7376718359822712	-24.0	-163.0	-1.3870218988284753	
1972.0	9.742357325598142	1967.0	1.025455946725432	1.1799672893497413	1265.0	9.809932556713672	-16000.0	-1856.0	1.137952176578786	1.020232985898222	1664.0	0.0	6837.0	2208.648681640625	779.0	-0.26521739130434785	-180.0	1.1656565656565656	-0.5269461077844312	-497.0	-0.25784735063448644	115.0	-0.14875496051979295	44.0	-28.0	-1.0772694352389023	
1971.0	9.840007560134122	1965.0	1.0476282575726534	1.1932137075746576	1257.0	9.927651747394236	-16192.0	-1856.0	1.137952176578786	1.020232985898222	1664.0	0.0	7477.0	2228.179931640625	787.0	-0.24782608695652175	-171.0	1.183838383838384	-0.4890219560878244	-516.0	-1.694300396589439	110.0	0.3979554588273928	14.0	66.0	-0.986859277402927	
1972.0	9.864392649399658	1966.0	1.0351840095233016	1.1812849232157352	1255.0	9.888412017167381	-16128.0	-1792.0	1.0987124463519313	1.020232985898222	1664.0	0.0	8117.0	2247.711181640625	786.0	-0.25	-170.0	1.185858585858586	-0.4650698602794412	-528.0	0.6719906901855426	123.0	0.8708555018562917	-28.0	-88.0	-1.208240819449384	
1973.0	9.85244468567949	1965.0	1.0478589092171513	1.1692439998043875	1256.0	9.927651747394236	-16192.0	-1728.0	1.0594727161250765	0.9809932556713672	1600.0	0.0	8757.0	2267.242431640625	789.0	-0.24347826086956523	-176.0	1.1737373737373737	-0.4790419161676647	-521.0	1.5369324200953034	143.0	1.7223730827223567	-88.0	-144.0	-1.5210727462541849	
1976.0	9.90157903710501	1965.0	1.0475893407983046	1.1335880693212015	1252.0	9.966891477621092	-16256.0	-1856.0	1.137952176578786	0.9417535254445125	1536.0	0.0	9397.0	2286.773681640625	785.0	-0.25217391304347825	-175.0	1.1757575757575758	-0.502994011976048	-509.0	1.897378925194472	181.0	1.5105088242161246	-74.0	-168.0	-2.1026239793660135	
1980.0	9.816488758265587	1967.0	1.0258861165949493	1.0843273632064363	1259.0	9.966891477621092	-16256.0	-1664.0	1.020232985898222	0.9025137952176578	1472.0	0.0	10037.0	2306.304931640625	792.0	-0.23695652173913043	-171.0	1.183838383838384	-0.4770459081836328	-522.0	0.8143912886096242	191.0	0.7973657152618697	-21.0	-98.0	-2.2438853577530167	
1984.0	9.927306622915397	1962.0	1.0855751231055053	1.0378396608337028	1250.0	10.0453709380748	-16384.0	-1664.0	1.020232985898222	0.8240343347639485	1344.0	0.0	10677.0	2325.836181640625	786.0	-0.25	-179.0	1.1676767676767676	-0.5069860279441119	-507.0	0.13281090424868977	188.0	0.12333843504631159	27.0	-54.0	-2.1914421774835517	
1982.0	9.817699789541015	1959.0	1.1238849573156409	1.061223076384229	1259.0	9.809932556713672	-16000.0	-1856.0	1.137952176578786	0.8632740649908032	1408.0	0.0	11317.0	2345.367431640625	789.0	-0.24347826086956523	-177.0	1.1717171717171717	-0.9960079840319362	-262.0	1.423546991026962	158.0	-0.17965029588943554	40.0	-138.0	-1.7480757740927793	
1981.0	9.756981647289782	1956.0	1.1614483531081943	1.0730397216907266	1264.0	9.849172286940528	-16064.0	-2048.0	1.25567136725935	0.8632740649908032	1408.0	0.0	11957.0	2364.898681640625	788.0	-0.24565217391304348	-183.0	1.1595959595959595	-0.5129740518962077	-504.0	2.2031944034479483	160.0	-0.4575845819778024	55.0	-189.0	-1.7862904991675594	
1984.0	9.611414568942383	1953.0	1.2016890173778814	1.0358418792366964	1276.0	9.692213366033108	-15808.0	-2112.0	1.2949110974862048	0.9417535254445125	1536.0	0.0	12597.0	2384.429931640625	791.0	-0.2391304347826087	-174.0	1.1777777777777778	-0.48103792415169666	-520.0	2.5371038458566804	145.0	-1.0596652968834068	93.0	-211.0	-1.5614927114623693	
1978.0	9.610798259406877	1952.0	1.2124486537219192	1.1082324691312877	1276.0	9.770692826486817	-15936.0	-2176.0	1.3341508277130594	0.9417535254445125	1536.0	0.0	13237.0	2403.961181640625	787.0	-0.24782608695652175	-171.0	1.183838383838384	-0.4910179640718563	-515.0	0.6812787243679699	94.0	-1.711151671803671	143.0	-90.0	-0.7672690610079383	
1976.0	9.536559108045148	1959.0	1.1281173694668971	1.130743150317289	1282.0	9.574494175352545	-15616.0	-1920.0	1.1771919068056407	0.9417535254445125	1536.0	0.0	13877.0	2423.492431640625	790.0	-0.24130434782608695	-180.0	1.1656565656565656	-0.5129740518962077	-504.0	-0.8774891258481755	-5.0	-2.547447287450187	202.0	12.0	0.7540220395474553	
1967.0	9.583374798054981	1966.0	1.0396548566739254	1.2387604170292164	1278.0	9.652973635806253	-15744.0	-1792.0	1.0987124463519313	1.0987124463519313	1792.0	0.0	14517.0	2443.023681640625	791.0	-0.2391304347826087	-177.0	1.1717171717171717	-0.4730538922155689	-524.0	-2.6057128502162703	-104.0	-3.4469112929963566	266.0	125.0	2.277007698844368	
1975.0	9.498775839820315	1968.0	1.0189053724680415	1.1413213904361361	1285.0	9.53525444512569	-15552.0	-1856.0	1.137952176578786	0.9809932556713672	1600.0	0.0	15157.0	2462.554931640625	789.0	-0.24347826086956523	-175.0	1.1757575757575758	-0.48103792415169666	-520.0	-2.033194031493385	-115.0	-3.1486230317816983	243.0	88.0	2.438582890885276	
1965.0	9.570213644279825	1972.0	0.9662827269879604	1.2619914697367738	1279.0	9.692213366033108	-15808.0	-1792.0	1.0987124463519313	1.0987124463519313	1792.0	0.0	15797.0	2482.086181640625	792.0	-0.23695652173913043	-170.0	1.185858585858586	-0.4730538922155689	-524.0	-2.3664288169670833	-119.0	-2.768043260833752	219.0	110.0	2.502751740641154	
1965.0	9.789660018653613	1972.0	0.9618507966116852	1.264141614176749	1261.0	9.888412017167381	-16128.0	-1600.0	0.9809932556713672	0.9809932556713672	1600.0	0.0	16437.0	2501.617431640625	791.0	-0.2391304347826087	-178.0	1.1696969696969697	-0.4930139720558883	-514.0	-2.3350421067492424	-90.0	-2.257832566625427	186.0	108.0	2.0613732347557057	
1967.0	9.75357262597029	1970.0	0.9874468143536221	1.2399403148851664	1264.0	9.849172286940528	-16064.0	-1728.0	1.0594727161250765	1.0987124463519313	1792.0	0.0	17077.0	2521.148681640625	787.0	-0.24782608695652175	-167.0	1.1919191919191918	-0.48103792415169666	-520.0	-0.6862868642018002	-37.0	-0.7961146994421532	83.0	1.0	1.238802032140117	
1964.0	9.753445478259984	1968.0	1.011112002036008	1.27632027359814	1264.0	9.809932556713672	-16000.0	-1856.0	1.137952176578786	1.137952176578786	1856.0	0.0	17717.0	2540.679931640625	788.0	-0.24565217391304348	-170.0	1.185858585858586	-0.45708582834331346	-532.0	1.1438235338407166	18.0	0.41431751898667135	-4.0	-118.0	0.38399902701900734	
1968.0	9.693582829507958	1963.0	1.074248065505889	1.2281602366609814	1269.0	9.770692826486817	-15936.0	-1792.0	1.0987124463519313	1.0987124463519313	1792.0	0.0	18357.0	2560.211181640625	791.0	-0.2391304347826087	-175.0	1.1757575757575758	-0.4610778443113773	-530.0	1.1942012837515967	62.0	1.5170395582944434	-76.0	-121.0	-0.28570627139264904	
1968.0	9.864263342909794	1963.0	1.0708010085465638	1.2298325712254066	1255.0	9.966891477621092	-16256.0	-1856.0	1.137952176578786	1.0987124463519313	1792.0	0.0	18997.0	2579.742431640625	786.0	-0.25	-185.0	1.1555555555555554	-0.500998003992016	-510.0	0.8592980012380779	91.0	2.2326540809743824	-121.0	-99.0	-0.7234218773507839	
1974.0	9.779539395744381	1964.0	1.0617649006821885	1.1566058140486026	1262.0	9.849172286940528	-16064.0	-1792.0	1.0987124463519313	0.9809932556713672	1600.0	0.0	19637.0	2599.273681640625	786.0	-0.25	-173.0	1.1797979797979798	-0.46307385229540926	-529.0	1.64893542992234	81.0	2.7713118156728807	-161.0	-150.0	-0.5792269968847749	
1968.0	9.729674539750397	1967.0	1.0247484250821985	1.2280261573591689	1266.0	9.849172286940528	-16064.0	-1792.0	1.0987124463519313	1.0594727161250765	1728.0	0.0	20277.0	2618.804931640625	793.0	-0.23478260869565218	-176.0	1.1737373737373737	-0.46906187624750506	-526.0	2.048967029797762	61.0	2.5663847747119384	-150.0	-176.0	-0.27904480337782556	
1975.0	9.621414520479986	1962.0	1.0895846669671332	1.143254570187724	1275.0	9.613733905579398	-15680.0	-1856.0	1.137952176578786	1.020232985898222	1664.0	0.0	20917.0	2638.336181640625	790.0	-0.24130434782608695	-175.0	1.1757575757575758	-0.4970059880239522	-512.0	1.990040526409023	29.0	2.3261308225175403	-135.0	-172.0	0.20823647686518734	
1970.0	9.705899283681692	1964.0	1.0622884708101425	1.2040674197135925	1268.0	9.770692826486817	-15936.0	-1856.0	1.137952176578786	1.0594727161250765	1728.0	0.0	21557.0	2657.867431640625	794.0	-0.2326086956521739	-177.0	1.1717171717171717	-0.4590818363273454	-531.0	-0.6832116041378329	36.0	2.1566276359816587	-111.0	2.0	0.1285051198436597	
1973.0	9.718941924864774	1960.0	1.1115185428149865	1.168545568532219	1267.0	9.849172286940528	-16064.0	-1984.0	1.2164316370324952	1.0594727161250765	1728.0	0.0	22197.0	2677.398681640625	791.0	-0.2391304347826087	-178.0	1.1696969696969697	-0.4930139720558883	-514.0	-0.5160850175265086	15.0	1.6674523439623672	-80.0	-9.0	0.4462254889585351	
1968.0	9.668717213535455	1967.0	1.025979516853386	1.2274288950147314	1271.0	9.692213366033108	-15808.0	-1792.0	1.0987124463519313	1.0594727161250765	1728.0	0.0	22837.0	2696.929931640625	790.0	-0.24130434782608695	-169.0	1.187878787878788	-0.4930139720558883	-514.0	-0.1615434386047718	-25.0	1.2136440481095578	-53.0	-32.0	1.0510450921807244	
1970.0	9.65713342270974	1964.0	1.0632733442270927	1.2035896098380425	1272.0	9.692213366033108	-15808.0	-1856.0	1.137952176578786	1.0987124463519313	1792.0	0.0	23477.0	2716.461181640625	789.0	-0.24347826086956523	-180.0	1.1656565656565656	-0.4790419161676647	-521.0	-0.14485428623250401	-24.0	1.3630158856047188	-63.0	-33.0	1.0356690751817166	
1970.0	9.717728734809786	1967.0	1.0254715134351715	1.203817544651124	1267.0	9.849172286940528	-16064.0	-1792.0	1.0987124463519313	1.0987124463519313	1792.0	0.0	24117.0	2735.992431640625	789.0	-0.24347826086956523	-180.0	1.1656565656565656	-0.49500998003992025	-513.0	-0.2215431301821697	-25.0	1.352752560376478	-62.0	-28.0	1.0516450890964986	
1972.0	9.669208534140212	1967.0	1.0269332568508571	1.1792505745364164	1271.0	9.731453096259962	-15872.0	-1728.0	1.0594727161250765	0.9417535254445125	1536.0	0.0	24757.0	2755.523681640625	789.0	-0.24347826086956523	-172.0	1.1818181818181819	-0.4930139720558883	-514.0	-1.21570672070547	10.0	0.6936139345360022	-12.0	36.0	0.5292673333667506	
1970.0	9.766615267153371	1966.0	1.036676886358466	1.2044184637037927	1263.0	9.849172286940528	-16064.0	-1856.0	1.137952176578786	1.0594727161250765	1728.0	0.0	25397.0	2775.054931640625	788.0	-0.24565217391304348	-169.0	1.187878787878788	-0.4650698602794412	-528.0	-1.675370795441641	9.0	0.7549831966148801	-14.0	66.0	0.5490730995893975	
1973.0	9.595579215975317	1972.0	0.9676977702744276	1.1658737337179188	1277.0	9.692213366033108	-15808.0	-1664.0	1.020232985898222	1.020232985898222	1664.0	0.0	26037.0	2794.586181640625	792.0	-0.23695652173913043	-180.0	1.1656565656565656	-0.47504990019960086	-523.0	-1.2040796507266314	19.0	0.45839991566656274	4.0	35.0	0.3922689333893956	
1972.0	9.669570548255107	1964.0	1.0635039958715906	1.1796199020677727	1271.0	9.731453096259962	-15872.0	-1920.0	1.1771919068056407	0.9417535254445125	1536.0	0.0	26677.0	2814.117431640625	791.0	-0.2391304347826087	-174.0	1.1777777777777778	-0.4990019960079841	-511.0	-2.229457592727119	7.0	0.5674433514460376	1.0	102.0	0.5850322185128226	
1968.0	9.71760374587904	1966.0	1.0371848897766807	1.2280298140674002	1267.0	9.809932556713672	-16000.0	-1984.0	1.2164316370324952	1.0594727161250765	1728.0	0.0	27317.0	2833.648681640625	790.0	-0.24130434782608695	-171.0	1.183838383838384	-0.4830339321357286	-519.0	-1.521674986113989	54.0	1.461317566554982	-60.0	56.0	-0.13687450489171182	
1971.0	9.742596509561848	1964.0	1.0617882507467977	1.1923811970006764	1265.0	9.770692826486817	-15936.0	-1920.0	1.1771919068056407	0.9809932556713672	1600.0	0.0	27957.0	2853.179931640625	793.0	-0.23478260869565218	-180.0	1.1656565656565656	-0.49500998003992025	-513.0	-1.2477114965843763	91.0	1.7945942958459136	-82.0	38.0	-0.7023517823725594	
1972.0	9.706506958098965	1961.0	1.099336079829612	1.1803475870057913	1268.0	9.809932556713672	-16000.0	-1920.0	1.1771919068056407	1.020232985898222	1664.0	0.0	28597.0	2872.711181640625	791.0	-0.2391304347826087	-173.0	1.1797979797979798	-0.4830339321357286	-519.0	-2.2817664315736024	82.0	1.0814790392475122	-30.0	105.0	-0.5551291037451005	
1967.0	9.864381855501867	1961.0	1.0949430662276851	1.2421233696992229	1255.0	9.927651747394236	-16192.0	-1728.0	1.0594727161250765	1.0594727161250765	1728.0	0.0	29237.0	2892.242431640625	790.0	-0.24130434782608695	-170.0	1.185858585858586	-0.4670658682634731	-527.0	-3.1101789590467877	27.0	0.28108876896709223	25.0	159.0	0.2896569226703158	
1968.0	9.8887669447674	1962.0	1.0824988181783333	1.2301945853403002	1253.0	9.966891477621092	-16256.0	-1856.0	1.137952176578786	1.0594727161250765	1728.0	0.0	29877.0	2911.773681640625	788.0	-0.24565217391304348	-180.0	1.1656565656565656	-0.4850299401197605	-518.0	-1.80073578689113	16.0	0.6030496139234591	-3.0	74.0	0.44386287117689616	
1972.0	9.815626788427704	1966.0	1.0361688829402516	1.1808071133401852	1259.0	9.927651747394236	-16192.0	-1664.0	1.020232985898222	1.020232985898222	1664.0	0.0	30517.0	2931.304931640625	783.0	-0.2565217391304348	-171.0	1.183838383838384	-0.4970059880239522	-512.0	-0.9018693348126793	10.0	-0.1528168536690625	43.0	15.0	0.5261289595078226	
1969.0	9.888648432175328	1964.0	1.058356760497212	1.217903786866484	1253.0	9.927651747394236	-16192.0	-1984.0	1.2164316370324952	1.020232985898222	1664.0	0.0	31157.0	2950.836181640625	788.0	-0.24565217391304348	-176.0	1.1737373737373737	-0.45708582834331346	-532.0	-1.5647689722746516	-19.0	-0.8889393156074628	94.0	58.0	0.9738225946657123	
1970.0	9.80258630602418	1971.0	0.9749869995945308	1.2041612752248614	1260.0	9.770692826486817	-15936.0	-1856.0	1.137952176578786	1.020232985898222	1664.0	0.0	31797.0	2970.367431640625	787.0	-0.24782608695652175	-176.0	1.1737373737373737	-0.4590818363273454	-531.0	-2.360423180285908	23.0	-1.542643135589571	143.0	109.0	0.34299586678384764	
1972.0	9.900243016898834	1972.0	0.961303876419122	1.1809046255596853	1252.0	10.0453709380748	-16384.0	-1536.0	0.9417535254445125	1.0594727161250765	1728.0	0.0	32437.0	2989.898681640625	789.0	-0.24347826086956523	-176.0	1.1737373737373737	-0.500998003992016	-510.0	-2.8208156506553914	-11.0	-2.056021861482651	178.0	139.0	0.8647100576472384	
1971.0	9.752977904230367	1979.0	0.8786883372888928	1.1906540118127824	1264.0	9.888412017167381	-16128.0	-1472.0	0.9025137952176578	1.020232985898222	1664.0	0.0	33077.0	3009.429931640625	787.0	-0.24782608695652175	-170.0	1.185858585858586	-0.4730538922155689	-524.0	-1.3776761444969634	-20.0	-2.146947152534254	177.0	45.0	0.9871607918632207	
1968.0	9.753212770634956	1974.0	0.9389242639920119	1.2274032980571126	1264.0	9.849172286940528	-16064.0	-1664.0	1.020232985898222	1.0594727161250765	1728.0	0.0	33717.0	3028.961181640625	790.0	-0.24130434782608695	-176.0	1.1737373737373737	-0.4670658682634731	-527.0	-1.4367965729075474	-25.0	-1.995949158330675	167.0	49.0	1.0637976235237523	
1967.0	9.740415789754252	1978.0	0.8901710619859036	1.2388359889993288	1265.0	9.809932556713672	-16000.0	-1536.0	0.9417535254445125	1.0987124463519313	1792.0	0.0	34357.0	3048.492431640625	786.0	-0.25	-171.0	1.183838383838384	-0.4850299401197605	-518.0	-1.1427492839106261	0.0	-1.3715205667482862	125.0	30.0	0.6806290137516539	
1967.0	9.691649928782299	1978.0	0.8911559354028535	1.2383581791237788	1269.0	9.770692826486817	-15936.0	-1600.0	0.9809932556713672	1.137952176578786	1856.0	0.0	34997.0	3068.023681640625	787.0	-0.24782608695652175	-171.0	1.183838383838384	-0.4590818363273454	-531.0	-1.0887713477187766	69.0	-1.063435177329185	107.0	26.0	-0.3693404234049416	
1966.0	9.751881067987895	1983.0	0.8287351769310758	1.2503844757022013	1264.0	9.849172286940528	-16064.0	-1408.0	0.8632740649908032	1.0594727161250765	1728.0	0.0	35637.0	3087.554931640625	786.0	-0.25	-179.0	1.1676767676767676	-0.48702594810379246	-517.0	-2.610772412682612	96.0	-0.9110930401981423	105.0	125.0	-0.7647668005880028	
1968.0	9.911581147422172	1975.0	0.9235331790466799	1.2288330709755315	1251.0	9.966891477621092	-16256.0	-1472.0	0.9025137952176578	1.0594727161250765	1728.0	0.0	36277.0	3107.086181640625	787.0	-0.24782608695652175	-175.0	1.1757575757575758	-0.48702594810379246	-517.0	-2.021824910000379	96.0	-0.3373911327116622	64.0	87.0	-0.7706562756148252	
1964.0	9.752842121401828	1973.0	0.9501607703347853	1.2757047277125464	1264.0	9.809932556713672	-16000.0	-1728.0	1.0594727161250765	1.0987124463519313	1792.0	0.0	36917.0	3126.617431640625	786.0	-0.25	-177.0	1.1717171717171717	-0.4930139720558883	-514.0	0.2328959941011403	143.0	0.23892112441832708	17.0	-60.0	-1.5080323819942434	
1967.0	9.814288609441968	1972.0	0.9618352299019457	1.2402913588753666	1259.0	10.006131207847945	-16320.0	-1664.0	1.020232985898222	1.0594727161250765	1728.0	0.0	37557.0	3146.148681640625	783.0	-0.2565217391304348	-177.0	1.1717171717171717	-0.4730538922155689	-524.0	0.1700332734644781	177.0	0.608808366627923	-6.0	-56.0	-2.024514020947573	
1966.0	9.776988026703657	1977.0	0.9013842182640678	1.251362035702689	1262.0	9.888412017167381	-16128.0	-1664.0	1.020232985898222	0.9809932556713672	1600.0	0.0	38197.0	3165.679931640625	785.0	-0.25217391304347825	-174.0	1.1777777777777778	-0.4990019960079841	-511.0	0.09351878295104701	144.0	0.12929011334837748	25.0	-51.0	-1.5218477353580278	
1963.0	9.740407154636019	1974.0	0.9379783073494105	1.287506746186119	1265.0	9.770692826486817	-15936.0	-1472.0	0.9025137952176578	1.0987124463519313	1792.0	0.0	38837.0	3185.211181640625	788.0	-0.24565217391304348	-180.0	1.1656565656565656	-0.45708582834331346	-532.0	-0.8194617898604643	180.0	-0.07012286931392345	44.0	8.0	-2.060246446740179	
1960.0	9.899131069199454	1969.0	0.995013395447442	1.3258089145259868	1252.0	10.0453709380748	-16384.0	-1664.0	1.020232985898222	1.1771919068056407	1920.0	0.0	39477.0	3204.742431640625	785.0	-0.25217391304347825	-176.0	1.1737373737373737	-0.4850299401197605	-518.0	-2.7763628599434393	165.0	0.4617495710780808	17.0	136.0	-1.8125405539100714	
1965.0	9.80257551212639	1966.0	1.0347460562989146	1.2649997217083488	1260.0	9.888412017167381	-16128.0	-1856.0	1.137952176578786	1.0594727161250765	1728.0	0.0	40117.0	3224.273681640625	786.0	-0.25	-170.0	1.185858585858586	-0.4890219560878244	-516.0	0.22350605888625688	208.0	1.8233462762019959	-86.0	-59.0	-2.496531638535631	
1966.0	9.777953397676708	1969.0	0.9989061889860239	1.252346909119639	1262.0	9.809932556713672	-16000.0	-1664.0	1.020232985898222	1.137952176578786	1856.0	0.0	40757.0	3243.804931640625	785.0	-0.25217391304347825	-168.0	1.1898989898989898	-0.45309381237524954	-534.0	1.8197510415797293	208.0	1.8321876553915377	-94.0	-163.0	-2.512494088362566	
1965.0	9.766001116397424	1966.0	1.0354847113616272	1.2646413643016865	1263.0	9.809932556713672	-16000.0	-1664.0	1.020232985898222	1.0594727161250765	1728.0	0.0	41397.0	3263.336181640625	788.0	-0.24565217391304348	-180.0	1.1656565656565656	-0.48702594810379246	-517.0	1.568693113922606	191.0	2.558959261743324	-142.0	-146.0	-2.2514283760061464	
1966.0	9.851102189134638	1969.0	0.9974288788605988	1.2530636239329642	1256.0	9.849172286940528	-16064.0	-1856.0	1.137952176578786	1.137952176578786	1856.0	0.0	42037.0	3282.867431640625	784.0	-0.25434782608695655	-185.0	1.1555555555555554	-0.502994011976048	-509.0	1.7331379205909951	150.0	3.0323160648560186	-176.0	-156.0	-1.6294986795861384	
1964.0	9.899622389804211	1969.0	0.9959671354449132	1.2776305940476718	1252.0	10.006131207847945	-16320.0	-1664.0	1.020232985898222	1.0987124463519313	1792.0	0.0	42677.0	3302.398681640625	788.0	-0.24565217391304348	-170.0	1.185858585858586	-0.4650698602794412	-528.0	1.4762325909845582	170.0	3.737026644842522	-221.0	-139.0	-1.9311121357957772	
1964.0	9.997757468606274	1964.0	1.0549486203122354	1.2792017596843654	1244.0	10.006131207847945	-16320.0	-1792.0	1.0987124463519313	1.0987124463519313	1792.0	0.0	43317.0	3321.929931640625	785.0	-0.25217391304347825	-176.0	1.1737373737373737	-0.4830339321357286	-519.0	1.962281070043404	185.0	3.4574505822670565	-204.0	-171.0	-2.164109502715643	
1970.0	9.998253106770148	1966.0	1.0319987376279534	1.2066880606126553	1244.0	10.123850398528509	-16512.0	-1856.0	1.137952176578786	1.020232985898222	1664.0	0.0	43957.0	3341.461181640625	783.0	-0.2565217391304348	-177.0	1.1717171717171717	-0.4830339321357286	-519.0	2.3845327648590637	225.0	3.3174639313352094	-195.0	-199.0	-2.776697038675207	
1972.0	9.925229304242967	1967.0	1.0217626714118693	1.1817590763830539	1250.0	10.006131207847945	-16320.0	-1728.0	1.0594727161250765	0.9809932556713672	1600.0	0.0	44597.0	3360.992431640625	786.0	-0.25	-176.0	1.1737373737373737	-0.49500998003992025	-513.0	3.056297486392956	208.0	2.705644262712597	-158.0	-243.0	-2.524859552810698	
1973.0	9.925352134394156	1967.0	1.022001106411237	1.1697144962634751	1250.0	10.0453709380748	-16384.0	-1856.0	1.137952176578786	0.9809932556713672	1600.0	0.0	45237.0	3380.523681640625	789.0	-0.24347826086956523	-177.0	1.1717171717171717	-0.49500998003992025	-513.0	3.0371811885520104	161.0	1.6139138350318492	-87.0	-242.0	-1.8098394924938852	
1972.0	9.900725702385358	1968.0	1.0100648617801	1.1813970622681602	1252.0	10.006131207847945	-16320.0	-1664.0	1.020232985898222	1.0594727161250765	1728.0	0.0	45877.0	3400.054931640625	788.0	-0.24565217391304348	-167.0	1.1919191919191918	-0.48702594810379246	-517.0	2.311986739084682	158.0	1.182802153717711	-55.0	-195.0	-1.7569601715733565	
1974.0	10.011177235361158	1964.0	1.0570867519516758	1.1588754109574653	1243.0	10.084610668301655	-16448.0	-1856.0	1.137952176578786	1.020232985898222	1664.0	0.0	46517.0	3419.586181640625	789.0	-0.24347826086956523	-168.0	1.1898989898989898	-0.4590818363273454	-531.0	1.0337512803006805	114.0	0.07558398845875264	23.0	-112.0	-1.074976296072969	
1973.0	9.962650558352909	1961.0	1.0944039293899919	1.1708115087328503	1247.0	10.084610668301655	-16448.0	-1920.0	1.1771919068056407	0.9809932556713672	1600.0	0.0	47157.0	3439.117431640625	788.0	-0.24565217391304348	-174.0	1.1777777777777778	-0.5149700598802396	-503.0	3.3067848567044043	103.0	-1.4686215084956582	115.0	-261.0	-0.9304062516088693	
1974.0	9.718823412272702	1962.0	1.0873764851338654	1.1562547700584027	1267.0	9.770692826486817	-15936.0	-1920.0	1.1771919068056407	0.9025137952176578	1472.0	0.0	47797.0	3458.648681640625	788.0	-0.24565217391304348	-172.0	1.1818181818181819	-0.4890219560878244	-516.0	4.693988345238167	-45.0	-6.197937529793454	418.0	-353.0	1.3066722838479987	
1971.0	9.657738938347453	1960.0	1.1122727645874384	1.1920374664269389	1272.0	9.770692826486817	-15936.0	-2048.0	1.25567136725935	0.9809932556713672	1600.0	0.0	48437.0	3478.179931640625	788.0	-0.24565217391304348	-174.0	1.1777777777777778	-0.46906187624750506	-526.0	2.923291220297562	-135.0	-8.13844536385749	552.0	-238.0	2.69320054787307	
1963.0	9.461210167763602	1964.0	1.0655437928993183	1.2859904311728938	1288.0	9.496014714898834	-15488.0	-1856.0	1.137952176578786	1.0987124463519313	1792.0	0.0	49077.0	3497.711181640625	794.0	-0.2326086956521739	-174.0	1.1777777777777778	-0.45708582834331346	-532.0	-0.8068586492497738	-203.0	-9.239536084064854	640.0	5.0	3.7647225788879353	
1957.0	9.508997705085156	1966.0	1.0387478168056727	1.3584895034116788	1284.0	9.53525444512569	-15552.0	-1856.0	1.137952176578786	1.2164316370324952	1984.0	0.0	49717.0	3517.242431640625	791.0	-0.2391304347826087	-168.0	1.1898989898989898	-0.4730538922155689	-524.0	-2.160763706354381	-241.0	-8.613699524132146	603.0	94.0	4.3562083975198185	
1955.0	9.520702167282503	1968.0	1.0136442357722106	1.3824518977654863	1283.0	9.574494175352545	-15616.0	-1600.0	0.9809932556713672	1.25567136725935	2048.0	0.0	50357.0	3536.773681640625	796.0	-0.2282608695652174	-172.0	1.1818181818181819	-0.4650698602794412	-528.0	0.5219592944641696	-163.0	-6.20423893632482	433.0	-80.0	3.143069380439389	
1951.0	9.385380700775086	1974.0	0.942257419629885	1.4285775860233263	1294.0	9.45677498467198	-15424.0	-1664.0	1.020232985898222	1.3733905579399142	2240.0	0.0	50997.0	3556.304931640625	791.0	-0.2391304347826087	-179.0	1.1676767676767676	-0.46906187624750506	-526.0	2.950072086104241	-91.0	-3.2559700368883306	228.0	-237.0	2.0237312183024554	
1951.0	9.361359784404003	1971.0	0.9793205953590935	1.4287080086169077	1296.0	9.417535254445125	-15360.0	-1536.0	0.9417535254445125	1.2164316370324952	1984.0	0.0	51637.0	3575.836181640625	791.0	-0.2391304347826087	-167.0	1.1919191919191918	-0.4730538922155689	-524.0	2.466969565857052	-4.0	-1.1304378350800064	92.0	-205.0	0.7053683271551178	
1954.0	9.544238239387502	1974.0	0.9397718860229006	1.3939967277601277	1281.0	9.53525444512569	-15552.0	-1600.0	0.9809932556713672	1.2164316370324952	1984.0	0.0	52277.0	3595.367431640625	790.0	-0.24130434782608695	-167.0	1.1919191919191918	-0.44710578842315374	-537.0	-0.05835965649886363	42.0	0.2727101695205649	12.0	-40.0	0.031001847515558983	
1955.0	9.605559738496895	1972.0	0.96315972193157	1.382795628339224	1276.0	9.613733905579398	-15680.0	-1664.0	1.020232985898222	1.25567136725935	2048.0	0.0	52917.0	3614.898681640625	794.0	-0.2326086956521739	-175.0	1.1757575757575758	-0.48103792415169666	-520.0	0.7244991592052524	99.0	1.1524502269187646	-48.0	-91.0	-0.8437468927327371	
1956.0	9.629703485019169	1975.0	0.9263349812017292	1.370620625626064	1274.0	9.692213366033108	-15808.0	-1600.0	0.9809932556713672	1.2164316370324952	1984.0	0.0	53557.0	3634.429931640625	790.0	-0.24130434782608695	-170.0	1.185858585858586	-0.48103792415169666	-520.0	1.753948196070074	156.0	2.134967634909187	-116.0	-158.0	-1.7209615351926402	
1958.0	9.66748891202356	1967.0	1.023595166859708	1.347874696210519	1271.0	9.770692826486817	-15936.0	-1792.0	1.0987124463519313	1.2164316370324952	1984.0	0.0	54197.0	3653.961181640625	796.0	-0.2282608695652174	-176.0	1.1737373737373737	-0.4590818363273454	-531.0	2.596105707938131	187.0	2.4100553663831685	-137.0	-213.0	-2.2008660000451603	
1952.0	9.471688487228612	1967.0	1.0261040505313017	1.4182309374257913	1287.0	9.496014714898834	-15488.0	-1856.0	1.137952176578786	1.2949110974862048	2112.0	0.0	54837.0	3673.492431640625	791.0	-0.2391304347826087	-178.0	1.1696969696969697	-0.4730538922155689	-524.0	2.226594359806534	206.0	2.582264825307478	-146.0	-189.0	-2.4861442705942634	
1959.0	9.60774045830449	1958.0	1.1347769106924641	1.3363408363405715	1276.0	9.692213366033108	-15808.0	-1920.0	1.1771919068056407	1.25567136725935	2048.0	0.0	55477.0	3693.023681640625	795.0	-0.23043478260869565	-168.0	1.1898989898989898	-0.4730538922155689	-524.0	0.12674707804219054	237.0	3.3319811578845413	-185.0	-52.0	-2.93662868751046	
1960.0	9.692962202413336	1960.0	1.1089113245316802	1.3248862051489678	1269.0	9.731453096259962	-15872.0	-1920.0	1.1771919068056407	1.1771919068056407	1920.0	0.0	56117.0	3712.554931640625	791.0	-0.2391304347826087	-182.0	1.1616161616161615	-0.4670658682634731	-527.0	-0.514653964432761	213.0	3.2870593912438943	-180.0	-10.0	-2.5651956656788664	
1963.0	9.621267943753654	1951.0	1.2208161567174094	1.2891437325709754	1275.0	9.731453096259962	-15872.0	-2112.0	1.2949110974862048	1.0987124463519313	1792.0	0.0	56757.0	3732.086181640625	792.0	-0.23695652173913043	-175.0	1.1757575757575758	-0.4790419161676647	-521.0	0.2477363869846504	222.0	2.9246297292457006	-159.0	-60.0	-2.7097016984706075	
1961.0	9.620177583849857	1958.0	1.1350075623369622	1.3123711285703017	1275.0	9.652973635806253	-15744.0	-1984.0	1.2164316370324952	1.137952176578786	1856.0	0.0	57397.0	3751.617431640625	790.0	-0.24130434782608695	-170.0	1.185858585858586	-0.4730538922155689	-524.0	-0.36100300342771163	170.0	2.650505438615415	-140.0	-20.0	-1.9127397798516543	
1965.0	9.706009161155531	1958.0	1.1342377738547709	1.265028975374199	1268.0	9.809932556713672	-16000.0	-1984.0	1.2164316370324952	1.1771919068056407	1920.0	0.0	58037.0	3771.148681640625	793.0	-0.23478260869565218	-171.0	1.183838383838384	-0.44710578842315374	-537.0	-0.3364954879064779	140.0	3.110308884904825	-172.0	-21.0	-1.4567110907483118	
1970.0	9.743439050383708	1956.0	1.159071786469386	1.2054106505372053	1265.0	9.809932556713672	-16000.0	-1920.0	1.1771919068056407	0.9809932556713672	1600.0	0.0	58677.0	3790.679931640625	797.0	-0.22608695652173913	-177.0	1.1717171717171717	-0.4770459081836328	-522.0	-0.8442756301454103	137.0	2.9339302352738574	-158.0	12.0	-1.406005912900067	
1970.0	9.754665144653647	1964.0	1.0613035973931926	1.2045452295891426	1264.0	9.809932556713672	-16000.0	-1728.0	1.0594727161250765	1.0987124463519313	1792.0	0.0	59317.0	3810.211181640625	789.0	-0.24347826086956523	-175.0	1.1757575757575758	-0.4830339321357286	-519.0	-2.972995096079478	78.0	0.9622375529916903	-19.0	150.0	-0.48738031519890107	
1969.0	9.840244585318269	1961.0	1.0959123729348959	1.2177953045222902	1257.0	9.888412017167381	-16128.0	-1920.0	1.1771919068056407	1.020232985898222	1664.0	0.0	59957.0	3829.742431640625	794.0	-0.2326086956521739	-176.0	1.1737373737373737	-0.4670658682634731	-527.0	-3.3492544717470727	57.0	-0.1487882409705297	56.0	174.0	-0.16422608646123651	
1975.0	9.730655022180356	1966.0	1.0386077164180176	1.1438372056992363	1266.0	9.731453096259962	-15872.0	-1920.0	1.1771919068056407	1.020232985898222	1664.0	0.0	60597.0	3849.273681640625	791.0	-0.2391304347826087	-179.0	1.1676767676767676	-0.47504990019960086	-523.0	-1.087427942861411	44.0	0.22561002230441357	20.0	27.0	0.01087427942861411	
1979.0	9.560465829383277	1966.0	1.043008513374814	1.0939865506564963	1280.0	9.652973635806253	-15744.0	-1664.0	1.020232985898222	0.9025137952176578	1472.0	0.0	61237.0	3868.804931640625	792.0	-0.23695652173913043	-169.0	1.187878787878788	-0.4790419161676647	-521.0	0.1279978048913781	59.0	0.749842015471028	-20.0	-52.0	-0.22941686017819135	
1967.0	9.58434016902803	1958.0	1.1371768273958816	1.2397452904461665	1278.0	9.613733905579398	-15680.0	-1920.0	1.1771919068056407	1.0594727161250765	1728.0	0.0	61877.0	3888.336181640625	792.0	-0.23695652173913043	-169.0	1.187878787878788	-0.45309381237524954	-534.0	-2.101293391821032	50.0	0.22486272892544196	25.0	93.0	-0.07024181893350072	
1960.0	9.742331420243445	1955.0	1.1688776828159528	1.3259795609101115	1265.0	9.731453096259962	-15872.0	-2112.0	1.2949110974862048	1.1771919068056407	1920.0	0.0	62517.0	3907.867431640625	791.0	-0.2391304347826087	-179.0	1.1676767676767676	-0.5109780439121757	-505.0	-4.1629587601647495	71.0	0.036302717754507774	48.0	227.0	-0.3690168002310522	
1958.0	9.80328442889927	1953.0	1.1915502137265186	1.350912201847944	1260.0	9.888412017167381	-16128.0	-1984.0	1.2164316370324952	1.1771919068056407	1920.0	0.0	63157.0	3927.398681640625	791.0	-0.2391304347826087	-174.0	1.1777777777777778	-0.4770459081836328	-522.0	-2.6799170995431796	85.0	1.2159629470321107	-37.0	131.0	-0.5967749734912603	
1961.0	9.853142808554578	1947.0	1.264422123349139	1.3159949264274704	1256.0	9.927651747394236	-16192.0	-2176.0	1.3341508277130594	1.2164316370324952	1984.0	0.0	63797.0	3946.929931640625	791.0	-0.2391304347826087	-170.0	1.185858585858586	-0.45309381237524954	-534.0	0.4633189863828112	113.0	2.873298400751597	-161.0	-73.0	-1.0540628476585048	
1965.0	9.7923147888295	1950.0	1.2300362160970644	1.2668500160733616	1261.0	9.849172286940528	-16064.0	-2240.0	1.3733905579399142	1.0987124463519313	1792.0	0.0	64437.0	3966.461181640625	794.0	-0.2326086956521739	-176.0	1.1737373737373737	-0.4790419161676647	-521.0	1.3571772235533925	105.0	3.121061526003078	-182.0	-131.0	-0.9413284262279293	
1959.0	9.876314707765125	1955.0	1.1659308459199724	1.3393381181874529	1254.0	9.927651747394236	-16192.0	-1920.0	1.1771919068056407	1.0987124463519313	1792.0	0.0	65077.0	3985.992431640625	793.0	-0.23478260869565218	-177.0	1.1717171717171717	-0.4990019960079841	-511.0	-0.2377419311727446	61.0	2.575614680914226	-140.0	-27.0	-0.25617771376812043	
1961.0	9.961779953396793	1956.0	1.1524939410988009	1.3159620160533894	1247.0	10.006131207847945	-16320.0	-1920.0	1.1771919068056407	1.0987124463519313	1792.0	0.0	181.0	4005.523681640625	793.0	-0.23478260869565218	-175.0	1.1757575757575758	-0.4730538922155689	-524.0	-0.9231025604022655	-13.0	1.978596619376719	-100.0	18.0	0.8761511776952775	
1959.0	9.9851931953506	1962.0	1.0783831563501232	1.3395514261676091	1245.0	10.084610668301655	-16448.0	-1856.0	1.137952176578786	1.2164316370324952	1984.0	0.0	821.0	4025.054931640625	793.0	-0.23478260869565218	-181.0	1.1636363636363636	-0.4670658682634731	-527.0	-0.3142984174330875	-21.0	1.3466492846970617	-61.0	-22.0	0.9917361400678671	
1958.0	9.948737312213709	1960.0	1.103263869093957	1.351483867234763	1248.0	10.084610668301655	-16448.0	-1984.0	1.2164316370324952	1.25567136725935	2048.0	0.0	1461.0	4044.586181640625	790.0	-0.24130434782608695	-169.0	1.187878787878788	-0.4850299401197605	-518.0	0.6916703820351259	-16.0	0.7249530426684714	-24.0	-88.0	0.905630824696759	
1963.0	9.766117470209938	1963.0	1.071578580383625	1.2890998520722003	1263.0	9.809932556713672	-16000.0	-1792.0	1.0987124463519313	1.0594727161250765	1728.0	0.0	2101.0	4064.117431640625	790.0	-0.24130434782608695	-180.0	1.1656565656565656	-0.45708582834331346	-532.0	1.4904232822998402	54.0	0.3221402946895714	2.0	-141.0	-0.16699548757585012	
1961.0	9.64395715747768	1963.0	1.0735638939272647	1.3119944876224827	1273.0	9.809932556713672	-16000.0	-1792.0	1.0987124463519313	1.137952176578786	1856.0	0.0	2741.0	4083.648681640625	791.0	-0.2391304347826087	-180.0	1.1656565656565656	-0.4990019960079841	-511.0	0.3473743868050723	10.0	-1.0793444265887104	99.0	-67.0	0.5136365222916451	
1957.0	9.68064358946004	1958.0	1.1328227305683036	1.3611467113930542	1270.0	9.692213366033108	-15808.0	-1984.0	1.2164316370324952	1.25567136725935	2048.0	0.0	3381.0	4103.179931640625	787.0	-0.24782608695652175	-171.0	1.183838383838384	-0.4890219560878244	-516.0	-1.0460118693477511	-20.0	-1.2105107462045792	113.0	24.0	0.9838441491117285	
1956.0	9.704541675679934	1961.0	1.0955211198397272	1.3730608689190515	1268.0	9.770692826486817	-15936.0	-2048.0	1.25567136725935	1.2949110974862048	2112.0	0.0	4021.0	4122.711181640625	791.0	-0.2391304347826087	-169.0	1.187878787878788	-0.45708582834331346	-532.0	-0.9967560702652553	-33.0	-1.0869151613347359	104.0	21.0	1.1810702222996106	
1958.0	9.705028678725574	1959.0	1.1203784825189518	1.3492179270341316	1268.0	9.809932556713672	-16000.0	-1984.0	1.2164316370324952	1.1771919068056407	1920.0	0.0	4661.0	4142.242431640625	789.0	-0.24347826086956523	-182.0	1.1616161616161615	-0.5049900199600799	-508.0	0.20104254719162057	-29.0	-0.9579534325599256	90.0	-57.0	1.1082557342239014	
1959.0	9.680044550161002	1965.0	1.0479678761853275	1.3361957869140653	1270.0	9.809932556713672	-16000.0	-1920.0	1.1771919068056407	1.1771919068056407	1920.0	0.0	5301.0	4161.773681640625	791.0	-0.2391304347826087	-173.0	1.1797979797979798	-0.4970059880239522	-512.0	0.6161232643607758	-46.0	-1.147110293279352	100.0	-84.0	1.362660060132058	
1957.0	9.7405148733303	1967.0	1.0218794217349152	1.3606359911434227	1265.0	9.809932556713672	-16000.0	-1984.0	1.2164316370324952	1.2949110974862048	2112.0	0.0	5941.0	4181.304931640625	793.0	-0.23478260869565218	-170.0	1.185858585858586	-0.4730538922155689	-524.0	-1.3970577580221015	-82.0	-1.9584292671897223	162.0	47.0	1.9303203874661525	
1951.0	9.73941587830827	1970.0	0.9838780727179751	1.4325341443295392	1265.0	9.809932556713672	-16000.0	-1728.0	1.0594727161250765	1.2949110974862048	2112.0	0.0	6581.0	4200.836181640625	792.0	-0.23695652173913043	-178.0	1.1696969696969697	-0.4510978043912176	-535.0	-1.32569929351303	-65.0	-2.2379111822107527	181.0	42.0	1.671051669741214	
1951.0	9.702962153950935	1969.0	0.9968069741209322	1.4322988960999954	1268.0	9.849172286940528	-16064.0	-1728.0	1.0594727161250765	1.3733905579399142	2240.0	0.0	7221.0	4220.367431640625	790.0	-0.24130434782608695	-172.0	1.1818181818181819	-0.4790419161676647	-521.0	-1.792137005170794	-36.0	-2.397699584401805	195.0	72.0	1.2346514080745217	
1954.0	9.617628373588694	1972.0	0.9626750685779647	1.3949596609276902	1275.0	9.652973635806253	-15744.0	-1728.0	1.0594727161250765	1.2164316370324952	1984.0	0.0	7861.0	4239.898681640625	792.0	-0.23695652173913043	-169.0	1.187878787878788	-0.45309381237524954	-534.0	-0.5692769587828885	65.0	-1.3568980105933093	124.0	-8.0	-0.3136988653931597	
1957.0	9.728685422202206	1964.0	1.0586963791098862	1.3608858662058916	1266.0	9.770692826486817	-15936.0	-1856.0	1.137952176578786	1.2164316370324952	1984.0	0.0	8501.0	4259.429931640625	794.0	-0.2326086956521739	-182.0	1.1616161616161615	-0.48103792415169666	-520.0	1.274086806670054	138.0	1.4527677411073041	-69.0	-127.0	-1.4423986627435066	
1960.0	9.704670982169798	1964.0	1.0599041208164648	1.3245132209093802	1268.0	9.849172286940528	-16064.0	-1920.0	1.1771919068056407	1.137952176578786	1856.0	0.0	9141.0	4278.961181640625	788.0	-0.24565217391304348	-171.0	1.183838383838384	-0.4770459081836328	-522.0	2.103568608014777	160.0	1.8581949505957405	-99.0	-181.0	-1.7852942412132278	
1963.0	9.656635625766306	1961.0	1.098175038252252	1.2882709982064502	1272.0	9.770692826486817	-15936.0	-1984.0	1.2164316370324952	1.2164316370324952	1984.0	0.0	9781.0	4298.492431640625	796.0	-0.2282608695652174	-169.0	1.187878787878788	-0.44910179640718567	-536.0	1.058943072225452	144.0	1.5163694463830946	-72.0	-113.0	-1.531501978250772	
1963.0	9.668103062779506	1967.0	1.0247873418565472	1.287651795612625	1271.0	9.770692826486817	-15936.0	-1792.0	1.0987124463519313	1.137952176578786	1856.0	0.0	10421.0	4318.023681640625	787.0	-0.24782608695652175	-181.0	1.1636363636363636	-0.471057884231537	-525.0	0.11405498115754018	109.0	1.6507959043447777	-78.0	-51.0	-0.9897337057051117	
1966.0	9.730514921792699	1958.0	1.1339837721456636	1.2532233001923954	1266.0	9.809932556713672	-16000.0	-1856.0	1.137952176578786	1.020232985898222	1664.0	0.0	11061.0	4337.554931640625	790.0	-0.24130434782608695	-175.0	1.1757575757575758	-0.47504990019960086	-523.0	0.6835659410876441	95.0	1.602640831267483	-78.0	-88.0	-0.7825010586504202	
1964.0	9.668949921160484	1961.0	1.098167254897382	1.276345870555759	1271.0	9.731453096259962	-15872.0	-1856.0	1.137952176578786	1.0987124463519313	1792.0	0.0	11701.0	4357.086181640625	791.0	-0.2391304347826087	-173.0	1.1797979797979798	-0.47504990019960086	-523.0	0.9845532630208665	118.0	1.355804449128178	-62.0	-108.0	-1.1353208178013114	
1966.0	9.718685470664605	1955.0	1.1708007295206346	1.253473175254864	1267.0	9.770692826486817	-15936.0	-1984.0	1.2164316370324952	0.9809932556713672	1600.0	0.0	12341.0	4376.617431640625	793.0	-0.23478260869565218	-176.0	1.1737373737373737	-0.4790419161676647	-521.0	-0.16267155602042202	55.0	0.7826316466625696	-21.0	-33.0	-0.16567366466793265	
1959.0	9.80352793042209	1952.0	1.203978895066131	1.338990730905484	1260.0	9.849172286940528	-16064.0	-1984.0	1.2164316370324952	1.1771919068056407	1920.0	0.0	12981.0	4396.148681640625	789.0	-0.24347826086956523	-170.0	1.185858585858586	-0.4790419161676647	-521.0	0.5217287999114337	13.0	1.0542736372981298	-44.0	-77.0	0.466265601734726	
1961.0	9.76671650950898	1956.0	1.156433434766601	1.3140507765511893	1263.0	9.849172286940528	-16064.0	-2048.0	1.25567136725935	1.137952176578786	1856.0	0.0	13621.0	4415.679931640625	793.0	-0.23478260869565218	-169.0	1.187878787878788	-0.45508982035928147	-533.0	1.1294911980162108	-17.0	1.518460055004103	-79.0	-116.0	0.9164617420122334	
1965.0	9.828165156328678	1956.0	1.1561560829928845	1.2664697184173117	1258.0	9.888412017167381	-16128.0	-1984.0	1.2164316370324952	1.137952176578786	1856.0	0.0	14261.0	4435.211181640625	793.0	-0.23478260869565218	-176.0	1.1737373737373737	-0.48103792415169666	-520.0	0.46457256580768963	-26.0	0.8846004379690462	-34.0	-73.0	1.0599930576118852	
1963.0	9.839628275782761	1960.0	1.1066720092789335	1.2901858944168816	1257.0	9.927651747394236	-16192.0	-1792.0	1.0987124463519313	1.137952176578786	1856.0	0.0	14901.0	4454.742431640625	791.0	-0.2391304347826087	-186.0	1.1535353535353536	-0.500998003992016	-510.0	-0.1520723644717557	-31.0	0.5346720025701642	-8.0	-33.0	1.1422051342911055	
1961.0	9.80280821975142	1960.0	1.1069337943429105	1.3139166972493765	1260.0	9.888412017167381	-16128.0	-1984.0	1.2164316370324952	1.137952176578786	1856.0	0.0	15541.0	4474.273681640625	794.0	-0.2326086956521739	-177.0	1.1717171717171717	-0.4650698602794412	-528.0	0.199614014024961	-35.0	0.34284362932136186	3.0	-56.0	1.199524772407279	
1958.0	9.826822659783826	1960.0	1.105726052636332	1.350289342545888	1258.0	9.888412017167381	-16128.0	-1984.0	1.2164316370324952	1.2164316370324952	1984.0	0.0	16181.0	4493.804931640625	793.0	-0.23478260869565218	-181.0	1.1636363636363636	-0.4610778443113773	-530.0	1.4918275253968996	-32.0	0.6895132726825612	-26.0	-140.0	1.140975260867704	
1962.0	9.692845848600822	1963.0	1.0728174555096823	1.300427717378454	1269.0	9.809932556713672	-16000.0	-1856.0	1.137952176578786	1.137952176578786	1856.0	0.0	16821.0	4513.336181640625	791.0	-0.2391304347826087	-169.0	1.187878787878788	-0.48103792415169666	-520.0	2.7927346199802145	-4.0	0.7509368931650153	-35.0	-225.0	0.7021106766138862	
1959.0	9.656144305161549	1961.0	1.0972212982547807	1.3364493186847652	1272.0	9.692213366033108	-15808.0	-1984.0	1.2164316370324952	1.25567136725935	2048.0	0.0	17461.0	4532.867431640625	786.0	-0.25	-173.0	1.1797979797979798	-0.4990019960079841	-511.0	1.8250623108705981	-28.0	0.308933501734615	-2.0	-162.0	1.0768064111118265	
1953.0	9.618712257153817	1962.0	1.084339096981042	1.4082353328184567	1275.0	9.652973635806253	-15744.0	-2176.0	1.3341508277130594	1.1771919068056407	1920.0	0.0	18101.0	4552.398681640625	794.0	-0.2326086956521739	-177.0	1.1717171717171717	-0.4590818363273454	-531.0	0.749809775033721	-32.0	0.156450061930927	13.0	-92.0	1.148395438371336	
1954.0	9.680154427634841	1959.0	1.1199171792299556	1.3971573425746717	1270.0	9.692213366033108	-15808.0	-1920.0	1.1771919068056407	1.25567136725935	2048.0	0.0	18741.0	4571.929931640625	792.0	-0.23695652173913043	-169.0	1.187878787878788	-0.4850299401197605	-518.0	0.8599484431775511	-49.0	0.1684272128011744	11.0	-99.0	1.4058491847697456	
1948.0	9.544707972196678	1964.0	1.060243739429139	1.4674953002487878	1281.0	9.652973635806253	-15744.0	-1984.0	1.2164316370324952	1.3341508277130594	2176.0	0.0	19381.0	4591.461181640625	798.0	-0.22391304347826088	-169.0	1.187878787878788	-0.45309381237524954	-534.0	1.2312692037653639	-65.0	0.22280447004883572	5.0	-123.0	1.64548198476843	
1954.0	9.606281607947125	1965.0	1.0482530113139137	1.395701972698634	1276.0	9.652973635806253	-15744.0	-1920.0	1.1771919068056407	1.3341508277130594	2176.0	0.0	20021.0	4610.992431640625	797.0	-0.22608695652173913	-177.0	1.1717171717171717	-0.45309381237524954	-534.0	0.4928261590848422	-32.0	0.5491487153041174	-12.0	-75.0	1.1509652745308248	
1952.0	9.59420649651665	1962.0	1.0845930986901493	1.4200410080002603	1277.0	9.692213366033108	-15808.0	-1984.0	1.2164316370324952	1.25567136725935	2048.0	0.0	20661.0	4630.523681640625	794.0	-0.2326086956521739	-174.0	1.1777777777777778	-0.4970059880239522	-512.0	0.9014593181822512	-36.0	1.4478096197387	-74.0	-101.0	1.2077154448409912	
1952.0	9.666993273859687	1965.0	1.0465450495439905	1.4203883952822292	1271.0	9.692213366033108	-15808.0	-2048.0	1.25567136725935	1.3341508277130594	2176.0	0.0	21301.0	4650.054931640625	797.0	-0.22608695652173913	-175.0	1.1757575757575758	-0.4670658682634731	-527.0	0.4018205077918773	-2.0	1.1134637941369836	-48.0	-69.0	0.695601566785199	
1954.0	9.667238934162066	1965.0	1.0470219195427262	1.3962992350430716	1271.0	9.770692826486817	-15936.0	-1920.0	1.1771919068056407	1.25567136725935	2048.0	0.0	21941.0	4669.586181640625	796.0	-0.2282608695652174	-172.0	1.1818181818181819	-0.45708582834331346	-532.0	0.1383913284668331	-3.0	0.8463325287846025	-29.0	-52.0	0.7134449840537348	
1955.0	9.66772377842815	1962.0	1.0838310935628275	1.384623982454849	1271.0	9.770692826486817	-15936.0	-1856.0	1.137952176578786	1.25567136725935	2048.0	0.0	22581.0	4689.117431640625	793.0	-0.23478260869565218	-170.0	1.185858585858586	-0.48103792415169666	-520.0	0.0918996387741179	-11.0	0.6797838890057389	-18.0	-49.0	0.8355829047529433	
1959.0	9.680647907019157	1960.0	1.10891910788655	1.3368113327996591	1270.0	9.849172286940528	-16064.0	-1984.0	1.2164316370324952	1.137952176578786	1856.0	0.0	23221.0	4708.648681640625	789.0	-0.24347826086956523	-174.0	1.1777777777777778	-0.4990019960079841	-511.0	-1.8212394800319334	-41.0	-0.7795254724489253	87.0	75.0	1.310988060199559	
1951.0	9.764281494280771	1966.0	1.0321466213704782	1.4332654859757892	1263.0	9.809932556713672	-16000.0	-1792.0	1.0987124463519313	1.3341508277130594	2176.0	0.0	23861.0	4728.179931640625	796.0	-0.2282608695652174	-177.0	1.1717171717171717	-0.45708582834331346	-532.0	-3.993135336647549	-103.0	-2.510158113026676	210.0	216.0	2.275672798233396	
1949.0	9.62968837356226	1968.0	1.0099976605878662	1.4557944507029466	1274.0	9.692213366033108	-15808.0	-1792.0	1.0987124463519313	1.2949110974862048	2112.0	0.0	24501.0	4747.711181640625	794.0	-0.2326086956521739	-171.0	1.183838383838384	-0.46906187624750506	-526.0	-3.6354714507823402	-87.0	-3.3349128815775124	264.0	192.0	2.028750151770181	
1947.0	9.703315532947597	1962.0	1.0811849585051725	1.4813389808181416	1268.0	9.770692826486817	-15936.0	-1856.0	1.137952176578786	1.3341508277130594	2176.0	0.0	25141.0	4767.242431640625	792.0	-0.23695652173913043	-173.0	1.1797979797979798	-0.45309381237524954	-534.0	-2.859232423103342	-61.0	-2.053781297574592	176.0	142.0	1.6255504991359766	
1950.0	9.703201337914642	1966.0	1.033139278142298	1.4447128037509303	1268.0	9.652973635806253	-15744.0	-1920.0	1.1771919068056407	1.3341508277130594	2176.0	0.0	25781.0	4786.773681640625	796.0	-0.2282608695652174	-176.0	1.1737373737373737	-0.45508982035928147	-533.0	-1.966441668970039	41.0	-0.2397733485998679	55.0	84.0	0.0652917931155559	
1950.0	9.618585109443512	1960.0	1.1080042846634275	1.4446152915314303	1275.0	9.731453096259962	-15872.0	-1984.0	1.2164316370324952	1.25567136725935	2048.0	0.0	26421.0	4806.304931640625	793.0	-0.23478260869565218	-176.0	1.1737373737373737	-0.48702594810379246	-517.0	-0.8938680605004061	64.0	1.4686833659667684	-63.0	15.0	-0.2952438289006994	
1956.0	9.679676059707434	1965.0	1.0472525711872243	1.3723295272728016	1270.0	9.692213366033108	-15808.0	-1792.0	1.0987124463519313	1.25567136725935	2048.0	0.0	27061.0	4825.836181640625	795.0	-0.23043478260869565	-169.0	1.187878787878788	-0.4670658682634731	-527.0	-0.18447281902859639	102.0	2.386955064014698	-126.0	-31.0	-0.880284549376254	
1956.0	9.851080601339056	1959.0	1.116946992269366	1.3747405168999394	1256.0	9.927651747394236	-16192.0	-1920.0	1.1771919068056407	1.2164316370324952	1984.0	0.0	27701.0	4845.367431640625	794.0	-0.2326086956521739	-177.0	1.1717171717171717	-0.4790419161676647	-521.0	-0.7253806209289686	99.0	3.5022374218349968	-198.0	5.0	-0.8292480949313947	
1958.0	9.79012759268323	1961.0	1.0942744613588002	1.3498078759621066	1261.0	9.927651747394236	-16192.0	-1920.0	1.1771919068056407	1.1771919068056407	1920.0	0.0	28341.0	4864.898681640625	792.0	-0.23695652173913043	-169.0	1.187878787878788	-0.4730538922155689	-524.0	0.7376331024064344	101.0	4.031313554150165	-240.0	-90.0	-0.874296483115319	
1965.0	9.730030077526616	1961.0	1.0971745981255623	1.2648985527806178	1266.0	9.849172286940528	-16064.0	-1856.0	1.137952176578786	1.0987124463519313	1792.0	0.0	28981.0	4884.429931640625	793.0	-0.23478260869565218	-170.0	1.185858585858586	-0.45309381237524954	-534.0	1.6182201914152392	147.0	3.773121927407788	-225.0	-148.0	-1.5827221258685251	
1968.0	9.779647114438662	1957.0	1.1456660150676934	1.2297350590059066	1262.0	9.888412017167381	-16128.0	-1920.0	1.1771919068056407	1.0987124463519313	1792.0	0.0	29621.0	4903.961181640625	794.0	-0.2326086956521739	-180.0	1.1656565656565656	-0.48103792415169666	-520.0	0.6005313113114069	133.0	3.085810775790558	-175.0	-82.0	-1.3596174804134944	
1970.0	9.804155033855386	1958.0	1.1334602020177096	1.2057616945274052	1260.0	9.888412017167381	-16128.0	-1984.0	1.2164316370324952	1.0594727161250765	1728.0	0.0	30261.0	4923.492431640625	788.0	-0.24565217391304348	-172.0	1.1818181818181819	-0.47504990019960086	-523.0	-0.47911541687667836	78.0	1.7181987597029835	-81.0	-12.0	-0.512319111990929	
1965.0	9.718321297770151	1957.0	1.1461818018407777	1.2652715370202055	1267.0	9.809932556713672	-16000.0	-2048.0	1.25567136725935	1.137952176578786	1856.0	0.0	30901.0	4943.023681640625	792.0	-0.23695652173913043	-174.0	1.1777777777777778	-0.45508982035928147	-533.0	-0.7426453067054657	13.0	0.467611406452999	1.0	5.0	0.478909342800895	
1961.0	9.72965942829349	1960.0	1.1084111044683356	1.3131999824360516	1266.0	9.770692826486817	-15936.0	-2048.0	1.25567136725935	1.0987124463519313	1792.0	0.0	31541.0	4962.554931640625	790.0	-0.24130434782608695	-180.0	1.1656565656565656	-0.471057884231537	-525.0	-1.597883827243294	-54.0	-0.12831710246449582	42.0	61.0	1.50647313485038	
1958.0	9.765744662197253	1961.0	1.0947668980672751	1.3495689710243317	1263.0	9.849172286940528	-16064.0	-1920.0	1.1771919068056407	1.137952176578786	1856.0	0.0	32181.0	4982.086181640625	793.0	-0.23478260869565218	-175.0	1.1757575757575758	-0.4730538922155689	-524.0	-1.7777565820861494	-60.0	0.21038693361726907	20.0	73.0	1.5995266152505194	
1964.0	9.79110591633363	1959.0	1.1200855640354959	1.2777866135988716	1261.0	9.849172286940528	-16064.0	-1920.0	1.1771919068056407	1.137952176578786	1856.0	0.0	32821.0	5001.617431640625	793.0	-0.23478260869565218	-181.0	1.1636363636363636	-0.502994011976048	-509.0	-0.07012466053112466	-26.0	1.1317104173959907	-48.0	-38.0	1.0653400298752735	
1961.0	9.741850893536478	1960.0	1.108164886114098	1.313319434904939	1265.0	9.849172286940528	-16064.0	-1920.0	1.1771919068056407	1.1771919068056407	1920.0	0.0	33461.0	5021.148681640625	789.0	-0.24347826086956523	-183.0	1.1595959595959595	-0.4890219560878244	-516.0	0.7532659894612839	9.0	1.12568021131817	-50.0	-92.0	0.5247867317403682	
1957.0	9.717217985189004	1958.0	1.132084075505591	1.3615050687997168	1267.0	9.731453096259962	-15872.0	-1856.0	1.137952176578786	1.2164316370324952	1984.0	0.0	34101.0	5040.679931640625	789.0	-0.24347826086956523	-171.0	1.183838383838384	-0.4850299401197605	-518.0	0.5159137742405283	20.0	0.5791767982778748	-12.0	-77.0	0.3598598736644389	
