Device	Device	Device	Device	Device	Device	Device	Device	Device	Device	Device	Device	Device	Device	Device	Device	Device	Device	Device	Device	Device	Device	Device	Device	Device	Device	Device	
Low Noise Accelerometer X	Low Noise Accelerometer X	Low Noise Accelerometer Z	Low Noise Accelerometer Z	Low Noise Accelerometer Y	Low Noise Accelerometer Y	Wide Range Accelerometer X	Wide Range Accelerometer X	Wide Range Accelerometer Z	Wide Range Accelerometer Z	Wide Range Accelerometer Y	Wide Range Accelerometer Y	Event_Marker	Timestamp	Timestamp	Magnetometer Z	Magnetometer Z	Magnetometer X	Magnetometer X	Magnetometer Y	Magnetometer Y	Gyroscope Y	Gyroscope Y	Gyroscope Z	Gyroscope Z	Gyroscope X	Gyroscope X	
CAL	UNCAL	CAL	UNCAL	CAL	UNCAL	UNCAL	CAL	CAL	UNCAL	CAL	UNCAL	CAL	CAL	UNCAL	CAL	UNCAL	CAL	UNCAL	UNCAL	CAL	CAL	UNCAL	UNCAL	CAL	CAL	UNCAL	
m/(s^2)	no units	m/(s^2)	no units	m/(s^2)	no units	no units	m/(s^2)	m/(s^2)	no units	m/(s^2)	no units	no units	ms	no units	local_flux	no units	local_flux	no units	no units	local_flux	deg/s	no units	no units	deg/s	deg/s	no units	
9.543868206948535	1891.0	-0.7945666896202205	2115.0	2.13568578625762	1279.0	-15616.0	9.574494175352545	-0.5885959534028203	960.0	2.0797057020232983	3392.0	0.0	1573.974609375	51576.0	-0.43695652173913047	700.0	1.2343434343434343	-146.0	-564.0	-0.3932135728542915	1.2649314628255524	-67.0	-13.0	0.48910991424649064	1.6755636131283984	-125.0	
9.555682546619723	1884.0	-0.7477209676090544	2111.0	2.220609736272034	1278.0	-15808.0	9.692213366033108	-0.5885959534028203	960.0	2.118945432250153	3456.0	0.0	1593.505859375	52216.0	-0.4391304347826087	699.0	1.2181818181818183	-154.0	-553.0	-0.41516966067864275	1.6529412469983513	-20.0	13.0	0.1008924917103256	0.9568546179482675	-151.0	
9.458150824675815	1884.0	-0.7457512207751543	2111.0	2.219654116520934	1286.0	-15552.0	9.53525444512569	-0.5493562231759657	896.0	2.118945432250153	3456.0	0.0	1613.037109375	52856.0	-0.44130434782608696	698.0	1.2141414141414142	-156.0	-556.0	-0.40918163672654695	0.930390292182847	40.0	-34.0	0.8923316154680881	0.05153259897931222	-104.0	
9.48155974907051	1880.0	-0.7959583828420785	2115.0	2.267578905228549	1284.0	-15616.0	9.574494175352545	-0.6670754138565297	1088.0	2.1974248927038627	3584.0	0.0	1632.568359375	53496.0	-0.43695652173913047	700.0	1.2282828282828282	-149.0	-574.0	-0.3732534930139721	0.8605053379503195	55.0	-94.0	1.8058713084553994	-0.17590543360764008	-99.0	
9.591888451895118	1881.0	-0.7491749276698703	2111.0	2.2571018340374325	1275.0	-15680.0	9.613733905579398	-0.6670754138565297	1088.0	2.158185162477008	3520.0	0.0	1652.099609375	54136.0	-0.4326086956521739	702.0	1.2303030303030302	-148.0	-567.0	-0.3872255489021957	2.3526519177296894	46.0	-115.0	2.0113852000422967	-0.05394477012786724	-196.0	
9.544103073353122	1888.0	-0.7343307629171013	2110.0	2.1724350725019503	1279.0	-15616.0	9.574494175352545	-0.510116492949111	832.0	2.0797057020232983	3392.0	0.0	1671.630859375	54776.0	-0.4391304347826087	699.0	1.2262626262626262	-150.0	-546.0	-0.42914171656686634	2.3079735548103115	42.0	-120.0	2.08702387276607	0.007338515402467229	-193.0	
9.43450055753786	1888.0	-0.7199245513887191	2109.0	2.171483109459081	1288.0	-15680.0	9.613733905579398	-0.5493562231759657	896.0	2.040465971796444	3328.0	0.0	1691.162109375	55416.0	-0.43478260869565216	701.0	1.2343434343434343	-146.0	-567.0	-0.3872255489021957	0.6163717859610089	32.0	-80.0	1.5989755557628298	0.176345787843812	-83.0	
9.579212142386046	1880.0	-0.7857378833357342	2114.0	2.2686576341567677	1276.0	-15808.0	9.692213366033108	-0.47087676272225626	768.0	2.0797057020232983	3392.0	0.0	1710.693359375	56056.0	-0.4282608695652174	704.0	1.2262626262626262	-150.0	-566.0	-0.3892215568862276	0.06782388866502732	29.0	-101.0	1.9501719730682405	0.2274586432426273	-47.0	
9.541663740565799	1876.0	-0.8347139536314707	2118.0	2.3159851605199453	1279.0	-15808.0	9.692213366033108	-0.745554874310239	1216.0	2.1974248927038627	3584.0	0.0	1730.224609375	56696.0	-0.4282608695652174	704.0	1.2181818181818183	-154.0	-550.0	-0.4211576846307386	1.2799528472508284	82.0	-156.0	2.7226388497052	-0.5907462965333448	-126.0	
9.578966482083667	1878.0	-0.7862147533344698	2114.0	2.292746794395925	1276.0	-15616.0	9.574494175352545	-0.7063151440833844	1152.0	2.275904353157572	3712.0	0.0	1749.755859375	57336.0	-0.4326086956521739	702.0	1.2323232323232323	-147.0	-558.0	-0.4051896207584831	1.7466978703396963	117.0	-132.0	2.351626081808591	-1.1277331383992146	-157.0	
9.71366948027602	1875.0	-0.6921164895072297	2106.0	2.331179385329374	1265.0	-15936.0	9.770692826486817	-0.5885959534028203	960.0	2.2366646229307174	3648.0	0.0	1769.287109375	57976.0	-0.4260869565217391	705.0	1.208080808080808	-159.0	-564.0	-0.3932135728542915	1.1289680089202254	141.0	-127.0	2.3342583218790307	-1.486574851191864	-117.0	
9.689043048267221	1874.0	-0.7040527341383669	2107.0	2.3428619513340587	1267.0	-16000.0	9.809932556713672	-0.5493562231759657	896.0	2.275904353157572	3712.0	0.0	1788.818359375	58616.0	-0.43043478260869567	703.0	1.2222222222222223	-152.0	-555.0	-0.4111776447105789	1.425235917532503	183.0	-98.0	1.904406797542443	-2.128320800239964	-137.0	
9.604306148424461	1874.0	-0.6413779739574819	2102.0	2.34264132993744	1274.0	-15872.0	9.731453096259962	-0.510116492949111	832.0	2.2366646229307174	3648.0	0.0	1808.349609375	59256.0	-0.4260869565217391	705.0	1.2343434343434343	-146.0	-570.0	-0.3812375249500998	1.6946700044458938	211.0	-81.0	1.6478158419074496	-2.5568706544170827	-155.0	
9.445812782706499	1872.0	-0.6142735126706407	2100.0	2.365423826435298	1287.0	-15552.0	9.53525444512569	-0.4316370324954016	704.0	2.275904353157572	3712.0	0.0	1827.880859375	59896.0	-0.4217391304347826	707.0	1.2303030303030302	-148.0	-569.0	-0.38323353293413176	2.259587870944391	210.0	-63.0	1.3380241259138759	-2.5473107076067825	-192.0	
9.432892971674605	1870.0	-0.6632651496761168	2104.0	2.388901097497093	1288.0	-15424.0	9.45677498467198	-0.5493562231759657	896.0	2.3151440833844266	3776.0	0.0	1847.412109375	60536.0	-0.4326086956521739	702.0	1.2262626262626262	-150.0	-549.0	-0.42315369261477054	1.5939349340898545	181.0	-96.0	1.8614636084557767	-2.0995895394549673	-148.0	
9.507252794407963	1872.0	-0.5667436190808502	2096.0	2.36651352548821	1282.0	-15616.0	9.574494175352545	-0.4316370324954016	704.0	2.275904353157572	3712.0	0.0	1866.943359375	61176.0	-0.4260869565217391	705.0	1.208080808080808	-159.0	-560.0	-0.4011976047904192	1.8921856756404327	170.0	-131.0	2.3587509728191387	-1.935271666642336	-167.0	
9.423011532729078	1878.0	-0.5270187415842473	2093.0	2.2937792050198813	1289.0	-15680.0	9.613733905579398	-0.27467811158798283	448.0	2.275904353157572	3712.0	0.0	1886.474609375	61816.0	-0.4152173913043478	710.0	1.2141414141414142	-156.0	-572.0	-0.37724550898203596	2.5473658696229227	217.0	-148.0	2.596616150929634	-2.656652365920564	-210.0	
9.349255066853873	1876.0	-0.5625890404782914	2096.0	2.316782322914358	1295.0	-15424.0	9.45677498467198	-0.3531575720416922	576.0	2.1974248927038627	3584.0	0.0	1906.005859375	62456.0	-0.4108695652173913	712.0	1.2161616161616162	-155.0	-550.0	-0.4211576846307386	1.012938881338739	184.0	-111.0	2.1286135850061774	-2.1394069553533117	-110.0	
9.48104684067017	1866.0	-0.6773940094307824	2105.0	2.437434118673839	1284.0	-15488.0	9.496014714898834	-0.4316370324954016	704.0	2.3151440833844266	3776.0	0.0	1925.537109375	63096.0	-0.42391304347826086	706.0	1.2323232323232323	-147.0	-561.0	-0.3992015968063873	-0.7934610636897944	125.0	-76.0	1.6937078538740828	-1.2240045528612011	8.0	
9.531041003154016	1876.0	-0.6759945328540546	2105.0	2.3174661273536015	1280.0	-15616.0	9.574494175352545	-0.47087676272225626	768.0	2.393623543838136	3904.0	0.0	1945.068359375	63736.0	-0.4173913043478261	709.0	1.208080808080808	-159.0	-551.0	-0.4191616766467066	0.8305754189991027	92.0	-135.0	2.4451565901909893	-0.7383437770036794	-97.0	
9.531157356966531	1874.0	-0.6399006638320568	2102.0	2.3419246151241153	1280.0	-15552.0	9.53525444512569	-0.4316370324954016	704.0	2.2366646229307174	3648.0	0.0	1964.599609375	64376.0	-0.4173913043478261	709.0	1.206060606060606	-160.0	-555.0	-0.4111776447105789	0.5844904773957498	68.0	-107.0	2.027893236722783	-0.37086391618080167	-81.0	
9.604437613693884	1879.0	-0.6889467843216209	2106.0	2.281925992631071	1274.0	-15680.0	9.613733905579398	-0.47087676272225626	768.0	2.1974248927038627	3584.0	0.0	1984.130859375	65016.0	-0.4173913043478261	709.0	1.204040404040404	-161.0	-564.0	-0.3932135728542915	-1.3561309103530805	150.0	-30.0	1.0584236282633397	-1.5986059912766974	44.0	
9.482647950194748	1881.0	-0.6981979771207547	2107.0	2.2565191985259196	1284.0	-15680.0	9.613733905579398	-0.510116492949111	832.0	2.118945432250153	3456.0	0.0	2003.662109375	120.0	-0.4152173913043478	710.0	1.2222222222222223	-152.0	-572.0	-0.37724550898203596	-1.7410017973597696	187.0	46.0	-0.031710137155143814	-2.1574949249921818	68.0	
9.54409443823489	1884.0	-0.6865235175535944	2106.0	2.22110582968874	1279.0	-15616.0	9.574494175352545	-0.5493562231759657	896.0	2.118945432250153	3456.0	0.0	2023.193359375	760.0	-0.4173913043478261	709.0	1.2141414141414142	-156.0	-548.0	-0.42514970059880247	-1.7116251915128018	200.0	42.0	0.034124011317559266	-2.355507322229359	66.0	
9.433390768618038	1877.0	-0.6981668437012758	2107.0	2.304219709128685	1288.0	-15488.0	9.496014714898834	-0.5493562231759657	896.0	2.0797057020232983	3392.0	0.0	2042.724609375	1400.0	-0.41956521739130437	708.0	1.2	-163.0	-563.0	-0.3952095808383234	-0.7881807662049197	182.0	38.0	0.01887172396642907	-2.0909775079273043	6.0	
9.48433519061803	1880.0	-0.5155827170164549	2092.0	2.2704104163022802	1284.0	-15552.0	9.53525444512569	-0.47087676272225626	768.0	2.1974248927038627	3584.0	0.0	2062.255859375	2040.0	-0.40652173913043477	714.0	1.206060606060606	-160.0	-558.0	-0.4051896207584831	-0.0944456081464927	214.0	-17.0	0.814643143720854	-2.584606874717015	-39.0	
9.508845268814309	1883.0	-0.5397403414073155	2094.0	2.234269362527081	1282.0	-15424.0	9.45677498467198	-0.3531575720416922	576.0	2.1974248927038627	3584.0	0.0	2081.787109375	2680.0	-0.4108695652173913	712.0	1.2101010101010101	-158.0	-562.0	-0.39720558882235535	-1.045330906955789	216.0	-19.0	0.9120264980522557	-2.6055162726794916	23.0	
9.55628374469832	1883.0	-0.6748179245669552	2105.0	2.233392971454325	1278.0	-15872.0	9.731453096259962	-0.47087676272225626	768.0	2.1974248927038627	3584.0	0.0	2101.318359375	3320.0	-0.42391304347826086	706.0	1.2262626262626262	-150.0	-562.0	-0.39720558882235535	-2.2223073771949378	159.0	10.0	0.5244846456015981	-1.7268263558858457	100.0	
9.433642905259092	1882.0	-0.7335454077251704	2110.0	2.2436274809994354	1288.0	-15616.0	9.574494175352545	-0.47087676272225626	768.0	2.118945432250153	3456.0	0.0	2120.849609375	3960.0	-0.4152173913043478	710.0	1.204040404040404	-161.0	-572.0	-0.37724550898203596	-2.2000576297647005	88.0	33.0	0.13491456062374726	-0.6472009446149005	99.0	
9.701363820000076	1878.0	-0.7399159515158669	2110.0	2.2944337557932752	1266.0	-15616.0	9.574494175352545	-0.5885959534028203	960.0	2.158185162477008	3520.0	0.0	2140.380859375	4600.0	-0.41304347826086957	711.0	1.206060606060606	-160.0	-554.0	-0.4131736526946108	-3.7003651129782393	55.0	47.0	0.009364863354270059	-0.1302967290983545	197.0	
9.716815571056665	1879.0	-0.42297733002437937	2084.0	2.285709466747672	1265.0	-16128.0	9.888412017167381	-0.19619865113427343	320.0	2.158185162477008	3520.0	0.0	2159.912109375	5240.0	-0.4152173913043478	710.0	1.2202020202020203	-153.0	-575.0	-0.37125748502994016	-1.0693105899710866	204.0	-52.0	1.4011477274501396	-2.4227669701459167	25.0	
9.47313068414367	1890.0	-0.5373326413490285	2094.0	2.1495989442833676	1285.0	-15680.0	9.613733905579398	-0.3531575720416922	576.0	2.001226241569589	3264.0	0.0	2179.443359375	5880.0	-0.4108695652173913	712.0	1.2202020202020203	-153.0	-571.0	-0.3792415169660679	1.819354301160364	298.0	-179.0	3.1613309388264565	-3.881311413734038	-163.0	
9.449601088377348	1894.0	-0.49931572562234877	2091.0	2.101551046398634	1287.0	-15552.0	9.53525444512569	-0.3139178418148375	512.0	1.9619865113427344	3200.0	0.0	2198.974609375	6520.0	-0.4173913043478261	709.0	1.2121212121212122	-157.0	-552.0	-0.4171656686626747	1.2662524536039965	318.0	-192.0	3.406896676522245	-4.179962904764177	-127.0	
9.608460785769322	1898.0	-0.5137530705702098	2092.0	2.0548024988387374	1274.0	-15872.0	9.731453096259962	-0.27467811158798283	448.0	1.9227467811158798	3136.0	0.0	2218.505859375	7160.0	-0.4173913043478261	709.0	1.2181818181818183	-154.0	-568.0	-0.38522954091816375	-0.2674243151911202	185.0	-165.0	3.0279304309024675	-2.141812448863298	-26.0	
9.595549609855661	1900.0	-0.6105519529391928	2100.0	2.0296090127137423	1275.0	-15808.0	9.692213366033108	-0.510116492949111	832.0	2.001226241569589	3264.0	0.0	2238.037109375	7800.0	-0.4173913043478261	709.0	1.1898989898989898	-168.0	-554.0	-0.4131736526946108	-0.5127316370855515	68.0	-154.0	2.8089075720526004	-0.3598916950359886	-9.0	
9.57079171257744	1894.0	-0.574919387206191	2097.0	2.1020069160247963	1277.0	-15680.0	9.613733905579398	-0.4316370324954016	704.0	1.9619865113427344	3200.0	0.0	2257.568359375	8440.0	-0.41304347826086957	711.0	1.202020202020202	-162.0	-559.0	-0.40319361277445115	-0.757782533671466	2.0	-92.0	1.8562757908164191	0.6463610952986918	7.0	
9.717449150828637	1893.0	-0.529351457095431	2093.0	2.1159773624795	1265.0	-15936.0	9.770692826486817	-0.3531575720416922	576.0	2.040465971796444	3328.0	0.0	2277.099609375	9080.0	-0.4217391304347826	707.0	1.2242424242424241	-151.0	-565.0	-0.39121756487025955	-1.6425045371472713	-5.0	-15.0	0.7591710985195583	0.7616721936604461	64.0	
9.692814083701606	1888.0	-0.49348045636306126	2090.0	2.176330685670975	1267.0	-15936.0	9.770692826486817	-0.3139178418148375	512.0	2.118945432250153	3456.0	0.0	2296.630859375	9720.0	-0.4108695652173913	712.0	1.1898989898989898	-168.0	-566.0	-0.3892215568862276	-0.8310640546205753	15.0	-25.0	0.8647871787971877	0.4493752793294758	11.0	
9.680251969225491	1884.0	-0.4819977316660504	2089.0	2.2245126628575216	1268.0	-15936.0	9.770692826486817	-0.3139178418148375	512.0	2.2366646229307174	3648.0	0.0	2316.162109375	10360.0	-0.4152173913043478	710.0	1.202020202020202	-162.0	-557.0	-0.407185628742515	-0.4122588259766926	31.0	-72.0	1.550019851349675	0.20184121943847416	-16.0	
9.643436230753265	1884.0	-0.5056395692838269	2091.0	2.2239080870966217	1271.0	-15936.0	9.770692826486817	-0.3139178418148375	512.0	2.158185162477008	3520.0	0.0	2335.693359375	11000.0	-0.40652173913043477	714.0	1.206060606060606	-160.0	-573.0	-0.375249500998004	-0.17777746844944553	52.0	-122.0	2.296100801671315	-0.11989522911778693	-31.0	
9.777294529344198	1881.0	-0.4968730298382984	2090.0	2.261478913790239	1260.0	-16064.0	9.849172286940528	-0.3139178418148375	512.0	2.118945432250153	3456.0	0.0	2355.224609375	11640.0	-0.40652173913043477	714.0	1.2141414141414142	-156.0	-573.0	-0.375249500998004	-0.05930354343521205	45.0	-87.0	1.7588588301728367	-0.01461609004093305	-39.0	
9.7396470439479	1887.0	-0.6775574598830468	2105.0	2.1870064380093224	1263.0	-16064.0	9.849172286940528	-0.47087676272225626	768.0	2.158185162477008	3520.0	0.0	2374.755859375	12280.0	-0.4173913043478261	709.0	1.204040404040404	-161.0	-551.0	-0.4191616766467066	1.210756287600282	67.0	-89.0	1.713831703847269	-0.36191744880756177	-122.0	
9.642835032674666	1885.0	-0.5785426123259261	2097.0	2.21112485191433	1271.0	-15936.0	9.770692826486817	-0.3531575720416922	576.0	2.0797057020232983	3392.0	0.0	2394.287109375	12920.0	-0.4108695652173913	712.0	1.2	-163.0	-540.0	-0.44111776447105794	2.126095542867854	45.0	-35.0	0.8271448588635946	-0.03647008090396372	-182.0	
9.556770747743963	1885.0	-0.6499605618877307	2103.0	2.209550029569405	1278.0	-15744.0	9.652973635806253	-0.510116492949111	832.0	2.118945432250153	3456.0	0.0	2413.818359375	13560.0	-0.40217391304347827	716.0	1.204040404040404	-161.0	-575.0	-0.37125748502994016	0.4173786901728039	40.0	12.0	0.23838205055419404	0.056662714999412646	-71.0	
9.691728041356924	1888.0	-0.6031926734252618	2099.0	2.1752227030769062	1267.0	-16000.0	9.809932556713672	-0.4316370324954016	704.0	2.118945432250153	3456.0	0.0	2433.349609375	14200.0	-0.40869565217391307	713.0	1.197979797979798	-164.0	-557.0	-0.407185628742515	-0.6123631913833465	23.0	43.0	-0.16505773600459578	0.3255152668948221	-4.0	
9.678558252463537	1882.0	-0.6287575577477201	2101.0	2.247124512971254	1268.0	-15936.0	9.770692826486817	-0.510116492949111	832.0	2.158185162477008	3520.0	0.0	2452.880859375	14840.0	-0.40652173913043477	714.0	1.2121212121212122	-157.0	-572.0	-0.37724550898203596	0.7016768597337586	62.0	38.0	-0.15782616908027175	-0.2807810271524707	-90.0	
9.52068119628108	1886.0	-0.6124127328049167	2100.0	2.19751641957452	1281.0	-15616.0	9.574494175352545	-0.3531575720416922	576.0	2.118945432250153	3456.0	0.0	2472.412109375	15480.0	-0.4	717.0	1.204040404040404	-161.0	-569.0	-0.38323353293413176	1.2355965951509331	93.0	27.0	-0.011210125846568206	-0.7576031142404828	-125.0	
9.5583481106934	1889.0	-0.5392946048280589	2094.0	2.1624796916851587	1278.0	-15744.0	9.652973635806253	-0.3531575720416922	576.0	2.0797057020232983	3392.0	0.0	2491.943359375	16120.0	-0.40652173913043477	714.0	1.197979797979798	-164.0	-555.0	-0.4111776447105789	0.8730958664511166	66.0	16.0	0.16251161058701633	-0.343331719120785	-101.0	
9.509095246675804	1887.0	-0.5631670940903335	2096.0	2.1858448236945285	1282.0	-15552.0	9.53525444512569	-0.3531575720416922	576.0	2.0797057020232983	3392.0	0.0	2511.474609375	16760.0	-0.4	717.0	1.2141414141414142	-156.0	-576.0	-0.3692614770459082	0.17296509818496222	22.0	23.0	0.07952512498495723	0.33287110947442416	-55.0	
9.61796509914305	1883.0	-0.6029075382966758	2099.0	2.234728888861475	1273.0	-15808.0	9.692213366033108	-0.39239730226854685	640.0	2.1974248927038627	3584.0	0.0	2531.005859375	17400.0	-0.3978260869565217	718.0	1.2101010101010101	-158.0	-575.0	-0.37125748502994016	-1.591584284129359	10.0	40.0	-0.05983518195224377	0.5330261090009895	60.0	
9.581632046157345	1883.0	-0.5777883905534742	2097.0	2.23461674980905	1276.0	-15680.0	9.613733905579398	-0.47087676272225626	768.0	2.158185162477008	3520.0	0.0	2550.537109375	18040.0	-0.40652173913043477	714.0	1.208080808080808	-159.0	-562.0	-0.39720558882235535	-0.18074027505830345	46.0	6.0	0.3736163431371032	-0.02861084819998731	-32.0	
9.496296107015546	1885.0	-0.599968484755565	2099.0	2.2094452039334422	1283.0	-15616.0	9.574494175352545	-0.4316370324954016	704.0	2.118945432250153	3456.0	0.0	2570.068359375	18680.0	-0.4	717.0	1.206060606060606	-160.0	-575.0	-0.37125748502994016	1.1878428970935488	45.0	-17.0	0.6225821755432194	-0.027087554446220657	-121.0	
9.411570001070574	1890.0	-0.5970527812790635	2099.0	2.148386136053336	1290.0	-15360.0	9.417535254445125	-0.4316370324954016	704.0	2.040465971796444	3328.0	0.0	2589.599609375	19320.0	-0.39565217391304347	719.0	1.1919191919191918	-167.0	-573.0	-0.375249500998004	0.4802794922392558	54.0	-12.0	0.6023413549515512	-0.15689404967524428	-75.0	
9.44778885902332	1893.0	-0.6702176093851397	2105.0	2.1118720980385497	1287.0	-15424.0	9.45677498467198	-0.47087676272225626	768.0	2.001226241569589	3264.0	0.0	2609.130859375	19960.0	-0.391304347826087	721.0	1.204040404040404	-161.0	-566.0	-0.3892215568862276	-0.8527409173609528	41.0	-8.0	0.6272408152200737	0.054154785599465044	12.0	
9.45973250518437	1890.0	-0.6589888863972361	2104.0	2.1482484000432924	1286.0	-15552.0	9.53525444512569	-0.510116492949111	832.0	2.0797057020232983	3392.0	0.0	2628.662109375	20600.0	-0.3978260869565217	718.0	1.2121212121212122	-157.0	-573.0	-0.375249500998004	-0.904657863059342	1.0	-32.0	0.9663397238352478	0.6630389740678558	16.0	
9.532633477560363	1887.0	-0.64899125518052	2103.0	2.1852219643924724	1280.0	-15744.0	9.652973635806253	-0.4316370324954016	704.0	2.040465971796444	3328.0	0.0	2648.193359375	21240.0	-0.3978260869565217	718.0	1.197979797979798	-164.0	-563.0	-0.3952095808383234	-0.5950963821239869	33.0	-82.0	1.7138871127768087	0.17325134404937675	-4.0	
9.53225851076812	1881.0	-0.6138511261559931	2100.0	2.2578587726413013	1280.0	-15552.0	9.53525444512569	-0.39239730226854685	640.0	2.1974248927038627	3584.0	0.0	2667.724609375	21880.0	-0.3978260869565217	718.0	1.2101010101010101	-158.0	-562.0	-0.39720558882235535	-0.238758195438832	31.0	-104.0	2.01770432740427	0.20010621313309557	-27.0	
9.618335748376175	1887.0	-0.614144044639449	2100.0	2.1864274592060413	1273.0	-15744.0	9.652973635806253	-0.3139178418148375	512.0	2.0797057020232983	3392.0	0.0	2687.255859375	22520.0	-0.4	717.0	1.1898989898989898	-168.0	-545.0	-0.43113772455089827	0.08105364138543855	103.0	-159.0	2.8638354110770483	-0.8981489394556795	-48.0	
9.606504138468523	1886.0	-0.5653752759236014	2096.0	2.1988450235652075	1274.0	-15744.0	9.652973635806253	-0.3139178418148375	512.0	2.118945432250153	3456.0	0.0	2706.787109375	23160.0	-0.39565217391304347	719.0	1.208080808080808	-159.0	-573.0	-0.375249500998004	1.3006348081449883	108.0	-217.0	3.6515596043569447	-0.9863903784997009	-127.0	
9.64319704678956	1885.0	-0.5419718733051926	2094.0	2.2114941794456864	1271.0	-15808.0	9.692213366033108	-0.4316370324954016	704.0	2.158185162477008	3520.0	0.0	2726.318359375	23800.0	-0.40217391304347827	716.0	1.206060606060606	-160.0	-558.0	-0.4051896207584831	0.5480503712988334	102.0	-204.0	3.5053867423217318	-0.8876097812795284	-78.0	
9.703792358889608	1885.0	-0.5797737040971137	2097.0	2.2117221142587673	1266.0	-15936.0	9.770692826486817	-0.39239730226854685	640.0	2.118945432250153	3456.0	0.0	2745.849609375	24440.0	-0.3978260869565217	718.0	1.202020202020202	-162.0	-574.0	-0.3732534930139721	-0.19029269197077342	84.0	-172.0	3.0660647292430614	-0.6064620920916991	-30.0	
9.69159873486706	1884.0	-0.5675756744019995	2096.0	2.2237703510865776	1267.0	-16000.0	9.809932556713672	-0.39239730226854685	640.0	2.158185162477008	3520.0	0.0	2765.380859375	25080.0	-0.3934782608695652	720.0	1.1898989898989898	-168.0	-570.0	-0.3812375249500998	0.6522604985752174	63.0	-145.0	2.5898497605824202	-0.2954959890161704	-85.0	
9.679523623436587	1882.0	-0.531235587025764	2093.0	2.248109386388204	1268.0	-16000.0	9.809932556713672	-0.4316370324954016	704.0	2.0797057020232983	3392.0	0.0	2784.912109375	25720.0	-0.4	717.0	1.2	-163.0	-554.0	-0.4131736526946108	1.2005048699699354	65.0	-121.0	2.1930885924163483	-0.3313966836806879	-121.0	
9.60577579267962	1884.0	-0.614613131283315	2100.0	2.22244174709589	1274.0	-15808.0	9.692213366033108	-0.39239730226854685	640.0	2.118945432250153	3456.0	0.0	2804.443359375	26360.0	-0.39565217391304347	719.0	1.1939393939393939	-166.0	-573.0	-0.375249500998004	0.8725377060755958	91.0	-107.0	2.021837545043928	-0.7235542743991591	-100.0	
9.740610256141393	1886.0	-0.5680836778202141	2096.0	2.2001590007229703	1263.0	-16064.0	9.849172286940528	-0.4316370324954016	704.0	2.118945432250153	3456.0	0.0	2823.974609375	27000.0	-0.4	717.0	1.187878787878788	-169.0	-549.0	-0.42315369261477054	0.7242534151066707	89.0	-139.0	2.510701521597372	-0.6916531805388995	-90.0	
9.6193075956879	1890.0	-0.5524775079401232	2095.0	2.1509092647328987	1273.0	-15936.0	9.770692826486817	-0.3531575720416922	576.0	2.040465971796444	3328.0	0.0	2843.505859375	27640.0	-0.3934782608695652	720.0	1.2101010101010101	-158.0	-559.0	-0.40319361277445115	1.530734649226543	105.0	-112.0	2.0595066668074113	-0.9430640004846609	-143.0	
9.680260604343724	1888.0	-0.5298049770295573	2093.0	2.1758419056707314	1268.0	-15936.0	9.770692826486817	-0.3531575720416922	576.0	2.040465971796444	3328.0	0.0	2863.037109375	28280.0	-0.3891304347826087	722.0	1.1919191919191918	-167.0	-564.0	-0.3932135728542915	0.35225607796228264	109.0	-30.0	0.9145769280971228	-0.992115716673159	-67.0	
9.642953545266739	1884.0	-0.554400554644805	2095.0	2.2234156503881466	1271.0	-15744.0	9.652973635806253	-0.39239730226854685	640.0	2.158185162477008	3520.0	0.0	2882.568359375	28920.0	-0.3891304347826087	722.0	1.2	-163.0	-571.0	-0.3792415169660679	-0.20631706445107428	109.0	13.0	0.30877595763967713	-0.9865299852490255	-31.0	
9.533848826394909	1891.0	-0.5748960371415818	2097.0	2.13778229897687	1280.0	-15744.0	9.652973635806253	-0.4316370324954016	704.0	1.9619865113427344	3200.0	0.0	2902.099609375	29560.0	-0.3934782608695652	720.0	1.206060606060606	-160.0	-557.0	-0.407185628742515	0.9084556848179579	177.0	-21.0	0.78230172301961	-2.0318982450611074	-104.0	
9.668801802448758	1892.0	-0.5042245259973597	2091.0	2.1277903510777665	1269.0	-15808.0	9.692213366033108	-0.3531575720416922	576.0	2.0797057020232983	3392.0	0.0	2921.630859375	30200.0	-0.391304347826087	721.0	1.202020202020202	-162.0	-572.0	-0.37724550898203596	1.3331318013138869	162.0	-77.0	1.5831989999213747	-1.8080081240967891	-131.0	
9.656606019646652	1890.0	-0.4800746849613687	2089.0	2.152006277202274	1270.0	-15872.0	9.731453096259962	-0.3531575720416922	576.0	2.0797057020232983	3392.0	0.0	2941.162109375	30840.0	-0.3847826086956522	724.0	1.1818181818181819	-172.0	-570.0	-0.3812375249500998	1.676971483487633	158.0	-116.0	2.141541944142948	-1.7506100190173859	-153.0	
9.742187619090831	1890.0	-0.4574177207605423	2087.0	2.1530886628387242	1263.0	-16000.0	9.809932556713672	-0.27467811158798283	448.0	2.001226241569589	3264.0	0.0	2960.693359375	31480.0	-0.3869565217391304	723.0	1.1919191919191918	-167.0	-556.0	-0.40918163672654695	1.0606535650121842	160.0	-99.0	1.930781837588721	-1.774865090783202	-113.0	
9.7546247446362	1892.0	-0.45718706911604423	2087.0	2.129118955068454	1262.0	-16064.0	9.849172286940528	-0.3139178418148375	512.0	2.040465971796444	3328.0	0.0	2980.224609375	32120.0	-0.3847826086956522	724.0	1.202020202020202	-162.0	-567.0	-0.3872255489021957	0.25169310877233386	185.0	-47.0	1.222684415915751	-2.1470036231029326	-61.0	
9.680995426471302	1893.0	-0.5164225556924739	2092.0	2.115742114249956	1268.0	-16000.0	9.809932556713672	-0.3139178418148375	512.0	2.001226241569589	3264.0	0.0	2999.755859375	32760.0	-0.3847826086956522	724.0	1.1939393939393939	-166.0	-555.0	-0.4111776447105789	0.523108109002484	145.0	23.0	0.12998406877046076	-1.5413527540938272	-79.0	
9.546279475601601	1890.0	-0.5388099514744535	2094.0	2.1503156590966928	1279.0	-15744.0	9.652973635806253	-0.3531575720416922	576.0	2.040465971796444	3328.0	0.0	3019.287109375	33400.0	-0.3869565217391304	723.0	1.2121212121212122	-157.0	-562.0	-0.39720558882235535	1.231026987622059	112.0	39.0	-0.17924319077885303	-1.0465308021956123	-125.0	
9.412054845336657	1891.0	-0.5602436072589622	2096.0	2.1367108834651134	1290.0	-15488.0	9.496014714898834	-0.4316370324954016	704.0	2.001226241569589	3264.0	0.0	3038.818359375	34040.0	-0.3847826086956522	724.0	1.187878787878788	-169.0	-546.0	-0.42914171656686634	1.416174259724368	126.0	18.0	0.13123024805963054	-1.2613100315706278	-137.0	
9.521653043592803	1889.0	-0.5507461961055908	2095.0	2.161998225101377	1281.0	-15680.0	9.613733905579398	-0.47087676272225626	768.0	2.040465971796444	3328.0	0.0	3058.349609375	34680.0	-0.3847826086956522	724.0	1.1898989898989898	-168.0	-559.0	-0.40319361277445115	0.6035264404854305	142.0	1.0	0.45239694030098404	-1.496529560982801	-84.0	
9.485197160455913	1888.0	-0.5258654833617571	2093.0	2.1739306661685314	1284.0	-15616.0	9.574494175352545	-0.47087676272225626	768.0	2.1974248927038627	3584.0	0.0	3077.880859375	35320.0	-0.391304347826087	721.0	1.204040404040404	-161.0	-558.0	-0.4051896207584831	0.6617469724021584	185.0	-20.0	0.789347065807715	-2.1511041617392306	-88.0	
9.436547653296476	1886.0	-0.48878674092280905	2090.0	2.1979113440634954	1288.0	-15488.0	9.496014714898834	-0.4316370324954016	704.0	2.118945432250153	3456.0	0.0	3097.412109375	35960.0	-0.3826086956521739	725.0	1.204040404040404	-161.0	-572.0	-0.37724550898203596	1.2232143296244746	221.0	-15.0	0.6972075596888228	-2.7042473524217203	-125.0	
9.521894386336067	1889.0	-0.5263657034251018	2093.0	2.1622444434556147	1281.0	-15616.0	9.574494175352545	-0.39239730226854685	640.0	2.0797057020232983	3392.0	0.0	3116.943359375	36600.0	-0.3760869565217391	728.0	1.1919191919191918	-167.0	-571.0	-0.3792415169660679	-0.44064695413927274	227.0	29.0	0.15699233023530676	-2.778863492435794	-17.0	
9.558341634354727	1886.0	-0.5034391708054287	2091.0	2.1989827595752516	1278.0	-15680.0	9.613733905579398	-0.3139178418148375	512.0	2.118945432250153	3456.0	0.0	3136.474609375	37240.0	-0.3826086956521739	725.0	1.204040404040404	-161.0	-561.0	-0.3992015968063873	-0.9643398195702644	230.0	41.0	0.015356403748826797	-2.8192539402073398	17.0	
9.47299921887425	1885.0	-0.4897638309848894	2090.0	2.2103142815897363	1285.0	-15616.0	9.574494175352545	-0.3531575720416922	576.0	2.118945432250153	3456.0	0.0	3156.005859375	37880.0	-0.3826086956521739	725.0	1.1898989898989898	-168.0	-562.0	-0.39720558882235535	-0.160737142990863	214.0	16.0	0.3245044108578663	-2.5839439593685705	-35.0	
9.423744196077097	1882.0	-0.5016845089062871	2091.0	2.245847102895804	1289.0	-15552.0	9.53525444512569	-0.3139178418148375	512.0	2.118945432250153	3456.0	0.0	3175.537109375	38520.0	-0.3782608695652174	727.0	1.183838383838384	-171.0	-568.0	-0.38522954091816375	-0.6955019744621841	235.0	-18.0	0.8842448359637916	-2.897987946034846	0.0	
9.375592485861091	1887.0	-0.49950746049249817	2091.0	2.18514639242236	1293.0	-15360.0	9.417535254445125	-0.3139178418148375	512.0	2.158185162477008	3520.0	0.0	3195.068359375	39160.0	-0.3847826086956522	724.0	1.2101010101010101	-158.0	-564.0	-0.3932135728542915	-0.24051518851276427	242.0	-93.0	1.9812740919042369	-3.0090016922213363	-29.0	
9.48628752035971	1890.0	-0.44005688898130996	2086.0	2.1507032701692053	1284.0	-15552.0	9.53525444512569	-0.3531575720416922	576.0	2.040465971796444	3328.0	0.0	3214.599609375	39800.0	-0.3782608695652174	727.0	1.206060606060606	-160.0	-574.0	-0.3732534930139721	-0.3688654858064519	228.0	-144.0	2.7463078534841405	-2.7947904325944073	-20.0	
9.510422631763747	1887.0	-0.42907438434764383	2085.0	2.187199024642835	1282.0	-15552.0	9.53525444512569	-0.3139178418148375	512.0	2.118945432250153	3456.0	0.0	3234.130859375	40440.0	-0.3804347826086957	726.0	1.183838383838384	-171.0	-560.0	-0.4011976047904192	-0.2815355833484899	254.0	-138.0	2.6660921602786076	-3.1911009939764012	-26.0	
9.510426949322865	1889.0	-0.4529780070293973	2087.0	2.16286364604944	1282.0	-15808.0	9.692213366033108	-0.3139178418148375	512.0	2.001226241569589	3264.0	0.0	3253.662109375	41080.0	-0.3869565217391304	723.0	1.197979797979798	-164.0	-558.0	-0.4051896207584831	-1.1441284541320147	260.0	-119.0	2.4449212429848166	-3.273729818120277	30.0	
9.535305517972716	1895.0	-0.4764203264221546	2089.0	2.090588851915505	1280.0	-15488.0	9.496014714898834	-0.3531575720416922	576.0	2.001226241569589	3264.0	0.0	3273.193359375	41720.0	-0.3869565217391304	723.0	1.2	-163.0	-576.0	-0.3692614770459082	-1.0956060267413843	251.0	-127.0	2.5560088268523335	-3.1373329131166168	27.0	
9.450316481488903	1890.0	-0.37836700221737485	2081.0	2.1509604586481363	1287.0	-15552.0	9.53525444512569	-0.23543838136112813	384.0	2.040465971796444	3328.0	0.0	3292.724609375	42360.0	-0.3826086956521739	725.0	1.183838383838384	-171.0	-573.0	-0.375249500998004	0.10977005703714754	239.0	-176.0	3.1994469548513815	-2.9668771682509796	-51.0	
9.450695765840262	1898.0	-0.43741075392365514	2086.0	2.053988271805913	1287.0	-15616.0	9.574494175352545	-0.27467811158798283	448.0	1.9227467811158798	3136.0	0.0	3312.255859375	43000.0	-0.3826086956521739	725.0	1.1898989898989898	-168.0	-558.0	-0.4051896207584831	-0.8282544966026454	259.0	-179.0	3.321878275409317	-3.261679432220286	10.0	
9.584317039247049	1897.0	-0.4769283298403691	2089.0	2.066977501551898	1276.0	-15616.0	9.574494175352545	-0.23543838136112813	384.0	2.040465971796444	3328.0	0.0	3331.787109375	43640.0	-0.3782608695652174	727.0	1.1898989898989898	-168.0	-572.0	-0.37724550898203596	-2.7919075085387397	203.0	-121.0	2.5549148665841264	-2.3903318754849554	138.0	
9.730618939722026	1899.0	-0.5037865727729727	2091.0	2.0440755525851526	1264.0	-16064.0	9.849172286940528	-0.3531575720416922	576.0	1.9619865113427344	3200.0	0.0	3351.318359375	44280.0	-0.3934782608695652	720.0	1.185858585858586	-170.0	-549.0	-0.42315369261477054	-1.5131863417829956	218.0	-174.0	3.269644047313772	-2.63125596928179	55.0	
9.695505553129983	1905.0	-0.4284758296725864	2085.0	1.9721883695237301	1267.0	-15808.0	9.692213366033108	-0.3139178418148375	512.0	1.883507050889025	3072.0	0.0	3370.849609375	44920.0	-0.3869565217391304	723.0	1.202020202020202	-162.0	-556.0	-0.40918163672654695	-0.7505913841338041	241.0	-168.0	3.1406048112098954	-2.9886918047898408	5.0	
9.682827084841353	1903.0	-0.45308697399757347	2087.0	1.9959118589397624	1268.0	-16000.0	9.809932556713672	-0.27467811158798283	448.0	1.9619865113427344	3200.0	0.0	3390.380859375	45560.0	-0.3934782608695652	720.0	1.197979797979798	-164.0	-547.0	-0.4271457085828344	-2.8595707814144795	197.0	-73.0	1.8363338603521644	-2.2984004899044868	142.0	
9.633220841827098	1905.0	-0.5613374476440884	2096.0	1.9702369062309861	1272.0	-15936.0	9.770692826486817	-0.39239730226854685	640.0	1.9619865113427344	3200.0	0.0	3409.912109375	46200.0	-0.3804347826086957	726.0	1.1797979797979798	-173.0	-555.0	-0.4111776447105789	-4.416848531131443	158.0	20.0	0.5266913074153082	-1.6896718188711952	243.0	
9.778300917128854	1900.0	-0.6264354745930001	2101.0	2.031277690569936	1260.0	-16128.0	9.888412017167381	-0.47087676272225626	768.0	1.9619865113427344	3200.0	0.0	3429.443359375	46840.0	-0.391304347826087	721.0	1.1757575757575758	-175.0	-549.0	-0.42315369261477054	-4.220360867154358	84.0	9.0	0.6329142958250442	-0.5661614103398632	231.0	
9.753773568696106	1889.0	-0.5066633594751255	2091.0	2.164760258718715	1262.0	-16000.0	9.809932556713672	-0.3531575720416922	576.0	2.118945432250153	3456.0	0.0	3448.974609375	47480.0	-0.3826086956521739	725.0	1.1919191919191918	-167.0	-569.0	-0.38323353293413176	-1.9232645491956626	159.0	-41.0	1.2682889559272712	-1.7298167841658383	81.0	
9.657437766570721	1884.0	-0.3230320925343968	2076.0	2.2258741772222903	1270.0	-15936.0	9.770692826486817	-0.19619865113427343	320.0	2.118945432250153	3456.0	0.0	3468.505859375	48120.0	-0.3804347826086957	726.0	1.185858585858586	-170.0	-567.0	-0.3872255489021957	-0.7423462853444905	290.0	-66.0	1.6406054559568723	-3.7340214040667075	3.0	
9.706335092812097	1889.0	-0.37158577631548595	2080.0	2.165636649791471	1266.0	-16000.0	9.809932556713672	-0.19619865113427343	320.0	2.0797057020232983	3392.0	0.0	3488.037109375	48760.0	-0.3869565217391304	723.0	1.1919191919191918	-167.0	-552.0	-0.4171656686626747	-1.9440017719654168	334.0	-73.0	1.8559562648990724	-4.3912063701130455	81.0	
9.80276997851353	1884.0	-0.42350868350720305	2084.0	2.2263227334319904	1258.0	-16000.0	9.809932556713672	-0.11771919068056406	192.0	2.118945432250153	3456.0	0.0	3507.568359375	49400.0	-0.3869565217391304	723.0	1.1939393939393939	-166.0	-563.0	-0.3952095808383234	-2.2068501091790753	228.0	-58.0	1.5848762609320448	-2.7764105863606807	99.0	
9.680848849744972	1881.0	-0.38519106594219776	2081.0	2.2616312766332074	1268.0	-15936.0	9.770692826486817	-0.23543838136112813	384.0	2.158185162477008	3520.0	0.0	3527.099609375	50040.0	-0.3891304347826087	722.0	1.185858585858586	-170.0	-556.0	-0.40918163672654695	-0.27624613791337604	151.0	-73.0	1.6285496742899628	-1.6246139644763795	-26.0	
9.630387113231508	1878.0	-0.5190142072660406	2092.0	2.295933006168088	1272.0	-15808.0	9.692213366033108	-0.3531575720416922	576.0	2.2366646229307174	3648.0	0.0	3546.630859375	50680.0	-0.3978260869565217	718.0	1.1797979797979798	-173.0	-558.0	-0.4051896207584831	-0.5762072434634044	84.0	-53.0	1.308816435999962	-0.6026029465767727	-6.0	
9.69038770359163	1882.0	-0.6655745151226912	2104.0	2.246874637908785	1267.0	-16000.0	9.809932556713672	-0.510116492949111	832.0	2.1974248927038627	3584.0	0.0	3566.162109375	51320.0	-0.391304347826087	721.0	1.202020202020202	-162.0	-569.0	-0.38323353293413176	-1.3283902964802434	104.0	-68.0	1.598223233092051	-0.899263625552308	43.0	
9.726722915356893	1883.0	-0.7026454742067694	2107.0	2.2348190876645124	1264.0	-16000.0	9.809932556713672	-0.5493562231759657	896.0	2.158185162477008	3520.0	0.0	3585.693359375	51960.0	-0.3869565217391304	723.0	1.185858585858586	-170.0	-547.0	-0.4271457085828344	0.3829005261125829	178.0	-97.0	1.9589190119420865	-2.041851818949339	-69.0	
9.654670960141436	1888.0	-0.6512150037235274	2103.0	2.174371908961769	1270.0	-15936.0	9.770692826486817	-0.4316370324954016	704.0	2.118945432250153	3456.0	0.0	3605.224609375	52600.0	-0.3978260869565217	718.0	1.195959595959596	-165.0	-555.0	-0.4111776447105789	1.9580109453113894	266.0	-152.0	2.72741515458578	-3.396005964966422	-172.0	
9.729162248144217	1895.0	-0.6022622834923999	2099.0	2.0912689996465175	1264.0	-16000.0	9.809932556713672	-0.47087676272225626	768.0	2.001226241569589	3264.0	0.0	3624.755859375	53240.0	-0.3847826086956522	724.0	1.195959595959596	-165.0	-570.0	-0.3812375249500998	1.5483231078695001	345.0	-156.0	2.8639602795661405	-4.593429999139532	-146.0	
9.75379515649169	1899.0	-0.6261814728838928	2101.0	2.0430833657517398	1262.0	-16000.0	9.809932556713672	-0.47087676272225626	768.0	2.001226241569589	3264.0	0.0	3644.287109375	53880.0	-0.3804347826086957	726.0	1.1898989898989898	-168.0	-568.0	-0.38522954091816375	1.0059270713782453	330.0	-104.0	2.112975373518212	-4.359869156645342	-111.0	
9.730386232096995	1903.0	-0.5759743108169686	2097.0	1.995158577044125	1264.0	-16064.0	9.849172286940528	-0.4316370324954016	704.0	1.9227467811158798	3136.0	0.0	3663.818359375	54520.0	-0.3869565217391304	723.0	1.2	-163.0	-563.0	-0.3952095808383234	0.32092570144384686	295.0	-2.0	0.6101233108914013	-3.820699751311017	-67.0	
9.741116688203059	1897.0	-0.6507926172088799	2103.0	2.0668068551677723	1263.0	-16128.0	9.888412017167381	-0.510116492949111	832.0	1.9227467811158798	3136.0	0.0	3683.349609375	55160.0	-0.391304347826087	721.0	1.1818181818181819	-172.0	-556.0	-0.40918163672654695	-0.6078900373101102	242.0	107.0	-0.9916573682446548	-3.005327943733363	-7.0	
9.619314072026574	1893.0	-0.5883329419627533	2098.0	2.114406196842806	1273.0	-15744.0	9.652973635806253	-0.4316370324954016	704.0	2.040465971796444	3328.0	0.0	3702.880859375	55800.0	-0.3869565217391304	723.0	1.1696969696969697	-178.0	-556.0	-0.40918163672654695	0.4216394093800159	243.0	93.0	-0.8528092002415131	-3.0308323636755494	-74.0	
9.511541055801803	1902.0	-0.49863933739859406	2091.0	2.005791667786441	1282.0	-15680.0	9.613733905579398	-0.3531575720416922	576.0	1.9619865113427344	3200.0	0.0	3722.412109375	56440.0	-0.39565217391304347	719.0	1.2	-163.0	-559.0	-0.40319361277445115	1.6317846020733666	325.0	23.0	0.16232588827478053	-4.290082104575867	-153.0	
9.718306803107406	1899.0	-0.5157306007589797	2092.0	2.0438329909391464	1265.0	-16000.0	9.809932556713672	-0.3139178418148375	512.0	1.9619865113427344	3200.0	0.0	3741.943359375	57080.0	-0.3869565217391304	723.0	1.208080808080808	-159.0	-570.0	-0.3812375249500998	0.5151220305228146	310.0	18.0	0.3058826467101575	-4.050778596731083	-80.0	
9.620156612848437	1892.0	-0.4910494062401651	2090.0	2.1274356503793355	1273.0	-15808.0	9.692213366033108	-0.27467811158798283	448.0	2.001226241569589	3264.0	0.0	3761.474609375	57720.0	-0.3847826086956522	724.0	1.185858585858586	-170.0	-550.0	-0.4211576846307386	0.8282898643264062	230.0	53.0	-0.28932066722789274	-2.837180237046306	-100.0	
9.559212239310844	1898.0	-0.5615291825142379	2096.0	2.0538322522547126	1278.0	-15744.0	9.652973635806253	-0.4316370324954016	704.0	2.040465971796444	3328.0	0.0	3781.005859375	58360.0	-0.3978260869565217	718.0	1.204040404040404	-161.0	-559.0	-0.40319361277445115	1.995311675943659	246.0	28.0	0.014001048690877368	-3.092196462767041	-176.0	
9.498127765385595	1895.0	-0.5366329030606646	2094.0	2.089614948623249	1283.0	-15552.0	9.53525444512569	-0.39239730226854685	640.0	2.001226241569589	3264.0	0.0	3800.537109375	59000.0	-0.3869565217391304	723.0	1.197979797979798	-164.0	-572.0	-0.37724550898203596	1.188153994054493	172.0	62.0	-0.4845849154927626	-1.958649600777047	-123.0	
9.44924339182157	1896.0	-0.5597900873248358	2096.0	2.0768463402738826	1287.0	-15424.0	9.45677498467198	-0.4316370324954016	704.0	2.040465971796444	3328.0	0.0	3820.068359375	59640.0	-0.3782608695652174	727.0	1.185858585858586	-170.0	-562.0	-0.39720558882235535	0.9504865099811076	179.0	106.0	-1.1234548683857164	-2.0627368042633094	-108.0	
9.350976847750085	1891.0	-0.5712027618280191	2097.0	2.1359905119435574	1295.0	-15296.0	9.37829552421827	-0.4316370324954016	704.0	2.001226241569589	3264.0	0.0	3839.599609375	60280.0	-0.3869565217391304	723.0	1.197979797979798	-164.0	-571.0	-0.3792415169660679	0.5599455558243125	198.0	135.0	-1.5194968913108386	-2.347804778752159	-83.0	
9.511041100078812	1894.0	-0.45178583203255834	2087.0	2.1026407454515463	1282.0	-15616.0	9.574494175352545	-0.23543838136112813	384.0	2.001226241569589	3264.0	0.0	3859.130859375	60920.0	-0.3826086956521739	725.0	1.1919191919191918	-167.0	-565.0	-0.39121756487025955	-0.1454266243300594	231.0	102.0	-0.955574318256562	-2.8426521976350267	-37.0	
9.37802534230974	1896.0	-0.3632688357554985	2080.0	2.0780993722944574	1293.0	-15488.0	9.496014714898834	-0.19619865113427343	320.0	1.9619865113427344	3200.0	0.0	3878.662109375	61560.0	-0.3804347826086957	726.0	1.183838383838384	-171.0	-572.0	-0.37724550898203596	1.2835929808698872	203.0	9.0	0.3222345452649142	-2.4310868803790417	-129.0	
9.475184256240961	1891.0	-0.3420502649057486	2078.0	2.1395241109976886	1285.0	-15616.0	9.574494175352545	-0.15695892090741875	256.0	1.9619865113427344	3200.0	0.0	3898.193359375	62200.0	-0.391304347826087	721.0	1.204040404040404	-161.0	-562.0	-0.39720558882235535	0.8552570303820075	154.0	-53.0	1.2517720738711198	-1.681556372585189	-100.0	
9.60978169451859	1895.0	-0.3438049268048901	2078.0	2.0926597676771364	1274.0	-15744.0	9.652973635806253	-0.23543838136112813	384.0	2.0797057020232983	3392.0	0.0	3917.724609375	62840.0	-0.3847826086956522	724.0	1.195959595959596	-165.0	-575.0	-0.37125748502994016	-0.873241028833237	138.0	-68.0	1.5872292547102071	-1.420925384388474	13.0	
9.634774458201397	1898.0	-0.31920156583477277	2076.0	2.0570111506104127	1272.0	-15808.0	9.692213366033108	-0.23543838136112813	384.0	1.883507050889025	3072.0	0.0	3937.255859375	63480.0	-0.3826086956521739	725.0	1.1898989898989898	-168.0	-552.0	-0.4171656686626747	-0.5588825773273234	56.0	-39.0	1.0806813662308081	-0.17692067993014884	-7.0	
9.547481871758798	1888.0	-0.3930038653902551	2082.0	2.175882129461275	1279.0	-15680.0	9.613733905579398	-0.19619865113427343	320.0	2.0797057020232983	3392.0	0.0	3956.787109375	64120.0	-0.3934782608695652	720.0	1.197979797979798	-164.0	-562.0	-0.39720558882235535	0.016377926624041663	-20.0	-17.0	0.6645724112521556	0.9732202511520106	-44.0	
9.522986905019422	1892.0	-0.4525089203855315	2087.0	2.1268493581595913	1281.0	-15680.0	9.613733905579398	-0.27467811158798283	448.0	2.040465971796444	3328.0	0.0	3976.318359375	64760.0	-0.39565217391304347	719.0	1.195959595959596	-165.0	-563.0	-0.3952095808383234	-1.6045907919865294	-69.0	-1.0	0.5077018881658775	1.7346770866270897	62.0	
9.51031275428991	1892.0	-0.501023687392272	2091.0	2.1262374689822288	1282.0	-15616.0	9.574494175352545	-0.3139178418148375	512.0	1.9619865113427344	3200.0	0.0	3995.849609375	65400.0	-0.3891304347826087	722.0	1.1818181818181819	-172.0	-563.0	-0.3952095808383234	-1.3397183551804868	-82.0	-16.0	0.7062455775389177	1.9297469934377365	45.0	
9.437161804052423	1891.0	-0.4875945659259701	2090.0	2.1376884434656014	1288.0	-15424.0	9.45677498467198	-0.3139178418148375	512.0	2.040465971796444	3328.0	0.0	4015.380859375	504.0	-0.3891304347826087	722.0	1.187878787878788	-169.0	-571.0	-0.3792415169660679	-0.4159401511757954	-53.0	-68.0	1.4392033949940706	1.4794445726144196	-15.0	
9.39997325756751	1886.0	-0.4880480858600965	2090.0	2.1975529866568326	1291.0	-15552.0	9.53525444512569	-0.3531575720416922	576.0	2.118945432250153	3456.0	0.0	4034.912109375	1144.0	-0.3847826086956522	724.0	1.1818181818181819	-172.0	-552.0	-0.4171656686626747	-1.3521083205539077	-18.0	-98.0	1.9754285876919646	0.9564868626732197	46.0	
9.509332271859952	1885.0	-0.514882978728091	2092.0	2.210426420642161	1282.0	-15552.0	9.53525444512569	-0.15695892090741875	256.0	2.118945432250153	3456.0	0.0	4054.443359375	1784.0	-0.3847826086956522	724.0	1.187878787878788	-169.0	-562.0	-0.39720558882235535	-1.9155868438885288	-32.0	-111.0	2.2010321313755314	1.1750494045605584	83.0	
9.607219531580077	1882.0	-0.4444265525186274	2086.0	2.2482544358147103	1274.0	-15808.0	9.692213366033108	-0.27467811158798283	448.0	2.158185162477008	3520.0	0.0	4073.974609375	2424.0	-0.3891304347826087	722.0	1.1676767676767676	-179.0	-564.0	-0.3932135728542915	-1.4841802767466319	-26.0	-130.0	2.4595139956309167	1.0794805860374284	55.0	
9.692186980268309	1877.0	-0.42296176331463986	2084.0	2.309559722049054	1267.0	-16000.0	9.809932556713672	-0.3139178418148375	512.0	2.2366646229307174	3648.0	0.0	4093.505859375	3064.0	-0.3869565217391304	723.0	1.197979797979798	-164.0	-569.0	-0.38323353293413176	-0.30031167833079647	-7.0	-168.0	2.958390818971177	0.7786685160228517	-22.0	
9.692314127978616	1880.0	-0.44662695099702554	2086.0	2.2731797633360804	1267.0	-15936.0	9.770692826486817	-0.3139178418148375	512.0	2.2366646229307174	3648.0	0.0	4113.037109375	3704.0	-0.3934782608695652	720.0	1.1797979797979798	-173.0	-552.0	-0.4171656686626747	0.12443085276892604	57.0	-199.0	3.43253171621527	-0.1989629397063965	-50.0	
9.85118461926838	1889.0	-0.5208233526492703	2092.0	2.1655927692926964	1254.0	-16192.0	9.927651747394236	-0.3531575720416922	576.0	2.118945432250153	3456.0	0.0	4132.568359375	4344.0	-0.39565217391304347	719.0	1.195959595959596	-165.0	-558.0	-0.4051896207584831	0.49542745412843336	73.0	-234.0	3.9411818242492385	-0.4460189133245543	-74.0	
9.900321129473461	1893.0	-0.5330447324089936	2093.0	2.117769149512813	1250.0	-16384.0	10.0453709380748	-0.3139178418148375	512.0	1.9619865113427344	3200.0	0.0	4152.099609375	4984.0	-0.3826086956521739	725.0	1.195959595959596	-165.0	-570.0	-0.3812375249500998	1.314458078882301	104.0	-203.0	3.4382689921638194	-0.9256921093059334	-128.0	
9.888735179868187	1894.0	-0.4837990936944103	2089.0	2.1060975536328215	1251.0	-16320.0	10.006131207847945	-0.3139178418148375	512.0	2.001226241569589	3264.0	0.0	4171.630859375	5624.0	-0.3869565217391304	723.0	1.1818181818181819	-172.0	-557.0	-0.407185628742515	1.5768032600214692	158.0	-164.0	2.8681538324062377	-1.7496083367827242	-146.0	
9.841559634523023	1904.0	-0.4438591312630489	2086.0	1.9855432700928402	1255.0	-16192.0	9.927651747394236	-0.27467811158798283	448.0	1.9619865113427344	3200.0	0.0	4191.162109375	6264.0	-0.3869565217391304	723.0	1.1737373737373737	-176.0	-563.0	-0.3952095808383234	1.4407187949339604	182.0	-98.0	1.9027208242562903	-2.1132665035386933	-138.0	
9.781330654096985	1906.0	-0.3933901841321477	2082.0	1.96134928421772	1260.0	-16128.0	9.888412017167381	-0.15695892090741875	256.0	1.8050275904353157	2944.0	0.0	4210.693359375	6904.0	-0.3826086956521739	725.0	1.187878787878788	-169.0	-571.0	-0.3792415169660679	1.5706817270863276	187.0	-49.0	1.1620845456153717	-2.1906117602366426	-147.0	
9.646970241003501	1900.0	-0.3433514068707637	2078.0	2.032795224485905	1271.0	-15872.0	9.731453096259962	-0.19619865113427343	320.0	1.883507050889025	3072.0	0.0	4230.224609375	7544.0	-0.3847826086956522	724.0	1.187878787878788	-169.0	-551.0	-0.4191616766467066	1.5733244926453236	135.0	-16.0	0.6355130044557166	-1.399763663177404	-147.0	
9.67232933636032	1905.0	-0.3060809295616663	2075.0	1.9731805563571425	1269.0	-15936.0	9.770692826486817	-0.03923973022685469	64.0	1.883507050889025	3072.0	0.0	4249.755859375	8184.0	-0.3869565217391304	723.0	1.1919191919191918	-167.0	-564.0	-0.3932135728542915	0.5498353111849246	108.0	-17.0	0.7053144997201782	-0.9788823835301003	-80.0	
9.598572870485118	1903.0	-0.3416512284557103	2078.0	1.996183674251619	1275.0	-15808.0	9.692213366033108	-0.19619865113427343	320.0	1.8442673206621703	3008.0	0.0	4269.287109375	8824.0	-0.3804347826086957	726.0	1.1898989898989898	-168.0	-562.0	-0.39720558882235535	0.65799910381198	84.0	1.0	0.4133204718307946	-0.6149450100495267	-87.0	
9.562121304907343	1904.0	-0.34067413839363	2078.0	1.9837807367253777	1278.0	-15680.0	9.613733905579398	-0.23543838136112813	384.0	1.9619865113427344	3200.0	0.0	4288.818359375	9464.0	-0.3826086956521739	725.0	1.183838383838384	-171.0	-544.0	-0.4331337325349302	1.1080159601446409	46.0	3.0	0.3288964204113561	-0.04149841055201676	-116.0	
9.439965309734198	1904.0	-0.3625924475317438	2080.0	1.982339993682265	1288.0	-15488.0	9.496014714898834	-0.19619865113427343	320.0	1.9227467811158798	3136.0	0.0	4308.349609375	10104.0	-0.3826086956521739	725.0	1.2	-163.0	-559.0	-0.40319361277445115	2.0977166914427947	19.0	-25.0	0.6633774989472228	0.3592509699677014	-180.0	
9.39107014227238	1900.0	-0.3259905750915314	2077.0	2.030409831816386	1292.0	-15488.0	9.496014714898834	-0.23543838136112813	384.0	1.9619865113427344	3200.0	0.0	4327.880859375	10744.0	-0.391304347826087	721.0	1.1696969696969697	-178.0	-552.0	-0.4171656686626747	1.1650509792048822	-8.0	-18.0	0.6069176507687919	0.7792240149227802	-119.0	
9.463005743675321	1897.0	-0.41351491459677137	2084.0	2.0663985227486164	1286.0	-15552.0	9.53525444512569	-0.3139178418148375	512.0	1.9619865113427344	3200.0	0.0	4347.412109375	11384.0	-0.3826086956521739	725.0	1.1757575757575758	-175.0	-549.0	-0.42315369261477054	-0.7488430775742262	-25.0	-23.0	0.8047449905380536	1.0569180885704192	6.0	
9.438258640294894	1896.0	-0.4376414055681532	2086.0	2.077957979576183	1288.0	-15488.0	9.496014714898834	-0.27467811158798283	448.0	2.001226241569589	3264.0	0.0	4366.943359375	12024.0	-0.3804347826086957	726.0	1.197979797979798	-164.0	-570.0	-0.3812375249500998	-0.7715527948033288	-57.0	-45.0	1.116692988707605	1.5438372009518357	8.0	
9.425093168960624	1892.0	-0.4871099125723648	2090.0	2.125524410877135	1289.0	-15488.0	9.496014714898834	-0.3531575720416922	576.0	2.040465971796444	3328.0	0.0	4386.474609375	12664.0	-0.3869565217391304	723.0	1.1919191919191918	-167.0	-547.0	-0.4271457085828344	-0.4597862227338239	-74.0	-62.0	1.3395243936865142	1.7992746683109886	-12.0	
9.425336670483443	1893.0	-0.4746812312327525	2089.0	2.1136029399346747	1289.0	-15424.0	9.45677498467198	-0.27467811158798283	448.0	2.040465971796444	3328.0	0.0	4406.005859375	13304.0	-0.3782608695652174	727.0	1.187878787878788	-169.0	-557.0	-0.407185628742515	-0.6792010148645896	-11.0	-92.0	1.8428977718603121	0.8432939112893303	2.0	
9.44996310249224	1894.0	-0.4627449866016152	2088.0	2.1019203739299903	1287.0	-15488.0	9.496014714898834	-0.23543838136112813	384.0	2.001226241569589	3264.0	0.0	4425.537109375	13944.0	-0.3847826086956522	724.0	1.1717171717171717	-177.0	-561.0	-0.3992015968063873	-1.080526066428939	23.0	-108.0	2.131394466065594	0.330196895645278	28.0	
9.559447105715432	1895.0	-0.5012932558111186	2091.0	2.0905815384990425	1278.0	-15744.0	9.652973635806253	-0.3139178418148375	512.0	2.001226241569589	3264.0	0.0	4445.068359375	14584.0	-0.3760869565217391	728.0	1.1777777777777778	-174.0	-567.0	-0.3872255489021957	-1.8418129768621458	28.0	-150.0	2.8171070175480915	0.2617641373731842	78.0	
9.523239041660476	1897.0	-0.487887484409426	2090.0	2.0662571300303414	1281.0	-15552.0	9.53525444512569	-0.3531575720416922	576.0	2.001226241569589	3264.0	0.0	4464.599609375	15224.0	-0.3804347826086957	726.0	1.1797979797979798	-173.0	-556.0	-0.40918163672654695	-1.2305012785989855	10.0	-118.0	2.28384903306674	0.5294152789456856	38.0	
9.535187005380644	1896.0	-0.5005623841032758	2091.0	2.078298053441689	1280.0	-15616.0	9.574494175352545	-0.3139178418148375	512.0	2.001226241569589	3264.0	0.0	4484.130859375	15864.0	-0.3891304347826087	722.0	1.1939393939393939	-166.0	-558.0	-0.4051896207584831	-2.0468227231900635	6.0	-91.0	1.9334339443348332	0.5984149952927371	91.0	
9.608223760585174	1900.0	-0.5620371859324523	2096.0	2.030220901891105	1274.0	-15936.0	9.770692826486817	-0.47087676272225626	768.0	1.9619865113427344	3200.0	0.0	4503.662109375	16504.0	-0.3804347826086957	726.0	1.1777777777777778	-174.0	-555.0	-0.4111776447105789	-3.307522142713392	-12.0	-53.0	1.440512911162666	0.8847862480431037	173.0	
9.534704319894118	1896.0	-0.5493233694642539	2095.0	2.077805616733214	1280.0	-15616.0	9.574494175352545	-0.3531575720416922	576.0	1.9227467811158798	3136.0	0.0	4523.193359375	17144.0	-0.3782608695652174	727.0	1.1818181818181819	-172.0	-549.0	-0.42315369261477054	-2.7113036809737388	-6.0	-46.0	1.297718770102773	0.787569310573996	134.0	
9.547029409186088	1902.0	-0.6090902095235072	2100.0	2.005042042599035	1279.0	-15680.0	9.613733905579398	-0.4316370324954016	704.0	1.883507050889025	3072.0	0.0	4542.724609375	17784.0	-0.3847826086956522	724.0	1.1696969696969697	-178.0	-561.0	-0.3992015968063873	-2.7442884305232025	16.0	-52.0	1.4033535615784223	0.4532983976132169	136.0	
9.535199958057992	1902.0	-0.5722732521485361	2097.0	2.005291917661504	1280.0	-15616.0	9.574494175352545	-0.510116492949111	832.0	1.9227467811158798	3136.0	0.0	4562.255859375	18424.0	-0.3782608695652174	727.0	1.185858585858586	-170.0	-572.0	-0.37724550898203596	-2.5445375441862503	34.0	-72.0	1.7002515451940945	0.1775366301947142	123.0	
9.510942016502764	1904.0	-0.58349419178157	2098.0	1.9808407433074524	1282.0	-15616.0	9.574494175352545	-0.39239730226854685	640.0	1.883507050889025	3072.0	0.0	4581.787109375	19064.0	-0.39565217391304347	719.0	1.187878787878788	-169.0	-552.0	-0.4171656686626747	-1.9965144980332317	56.0	-66.0	1.5855381491113396	-0.16254436072308978	87.0	
9.547033726745205	1904.0	-0.6329938322052606	2102.0	1.9807066640056397	1279.0	-15616.0	9.574494175352545	-0.4316370324954016	704.0	1.883507050889025	3072.0	0.0	4601.318359375	19704.0	-0.3891304347826087	722.0	1.1939393939393939	-166.0	-569.0	-0.38323353293413176	-2.7162337383264483	74.0	-91.0	2.021393772281101	-0.4291114268752907	134.0	
9.632251153294932	1903.0	-0.6349557956842911	2102.0	1.993587411407431	1272.0	-15872.0	9.731453096259962	-0.39239730226854685	640.0	1.883507050889025	3072.0	0.0	4620.849609375	20344.0	-0.3847826086956522	724.0	1.1797979797979798	-173.0	-560.0	-0.4011976047904192	-3.4870680145395325	51.0	-42.0	1.3264187588100986	-0.07159319818160088	184.0	
9.681495382194292	1901.0	-0.5632760610585097	2096.0	2.0188930365848514	1268.0	-15872.0	9.731453096259962	-0.39239730226854685	640.0	1.9619865113427344	3200.0	0.0	4640.380859375	20984.0	-0.391304347826087	721.0	1.1656565656565656	-180.0	-549.0	-0.42315369261477054	-3.0853700411071534	74.0	-84.0	1.9421381327177567	-0.42542006384748365	158.0	
9.713611413511577	1904.0	-1.050909264732899	2136.0	1.9781932865480272	1265.0	-15872.0	9.731453096259962	-0.03923973022685469	64.0	1.9227467811158798	3136.0	0.0	4659.912109375	21624.0	-0.3869565217391304	723.0	1.1818181818181819	-172.0	-559.0	-0.40319361277445115	-1.6601633146287642	129.0	-130.0	2.566058993014281	-1.2761740322529522	65.0	
9.596023660223954	1896.0	-0.5139837222147079	2092.0	2.0787722066090075	1275.0	-15744.0	9.652973635806253	-0.3531575720416922	576.0	2.001226241569589	3264.0	0.0	4679.443359375	22264.0	-0.39565217391304347	719.0	1.1737373737373737	-176.0	-549.0	-0.42315369261477054	-0.8008336662051068	31.0	-140.0	2.596554915102136	0.2057269678407583	10.0	
9.791699096088154	1900.0	-0.5047792295447925	2091.0	2.0326282348100113	1259.0	-16128.0	9.888412017167381	-0.3531575720416922	576.0	1.883507050889025	3072.0	0.0	4698.974609375	22904.0	-0.391304347826087	721.0	1.1777777777777778	-174.0	-549.0	-0.42315369261477054	-1.077590917614499	146.0	-145.0	2.760741715727171	-1.5405548893029426	27.0	
9.804134062853963	1901.0	-0.49259676655941775	2090.0	2.020826216336439	1258.0	-16256.0	9.966891477621092	-0.3139178418148375	512.0	1.9227467811158798	3136.0	0.0	4718.505859375	23544.0	-0.39565217391304347	719.0	1.1919191919191918	-167.0	-567.0	-0.3872255489021957	-1.138887846410665	97.0	-200.0	3.559785802186752	-0.7946947717260074	32.0	
9.682333605457037	1898.0	-0.4420889026541679	2086.0	2.0562578687147752	1268.0	-15936.0	9.770692826486817	-0.23543838136112813	384.0	1.8442673206621703	3008.0	0.0	4738.037109375	24184.0	-0.3934782608695652	720.0	1.1777777777777778	-174.0	-568.0	-0.38522954091816375	0.06326011507481659	64.0	-207.0	3.560987784676868	-0.3048151106564516	-46.0	
9.791339240752817	1901.0	-0.5533017799064028	2095.0	2.0200912179819577	1259.0	-16128.0	9.888412017167381	-0.3531575720416922	576.0	1.9227467811158798	3136.0	0.0	4757.568359375	24824.0	-0.3978260869565217	718.0	1.1898989898989898	-168.0	-551.0	-0.4191616766467066	-0.7210341294760537	23.0	-153.0	2.78103649591934	0.32660197627574916	5.0	
9.754885516395484	1901.0	-0.5403728785034457	2094.0	2.0198559697524137	1262.0	-16128.0	9.888412017167381	-0.39239730226854685	640.0	1.9227467811158798	3136.0	0.0	4777.099609375	25464.0	-0.3934782608695652	720.0	1.1898989898989898	-168.0	-564.0	-0.3932135728542915	-1.5012953605923796	-21.0	-123.0	2.3587995043247565	1.0036061094994602	56.0	
9.583717999948009	1899.0	-0.5617831842233452	2096.0	2.042026577072909	1276.0	-15808.0	9.692213366033108	-0.47087676272225626	768.0	1.9227467811158798	3136.0	0.0	4796.630859375	26104.0	-0.3891304347826087	722.0	1.1757575757575758	-175.0	-566.0	-0.3892215568862276	-0.21516517193851128	-3.0	-126.0	2.32521292478103	0.7169805490577883	-28.0	
9.595183278181652	1898.0	-0.6232190692781729	2101.0	2.053575063775781	1275.0	-15808.0	9.692213366033108	-0.510116492949111	832.0	1.9227467811158798	3136.0	0.0	4816.162109375	26744.0	-0.3978260869565217	718.0	1.1555555555555554	-185.0	-550.0	-0.4211576846307386	-1.4640133436656102	7.0	-92.0	1.9084712802870685	0.5773777760222075	53.0	
9.607624721286136	1902.0	-0.6468920403154284	2103.0	2.005269977412116	1274.0	-15872.0	9.731453096259962	-0.510116492949111	832.0	1.9227467811158798	3136.0	0.0	4835.693359375	27384.0	-0.3891304347826087	722.0	1.1898989898989898	-168.0	-556.0	-0.40918163672654695	-1.0094270085913568	12.0	-60.0	1.4001137765209277	0.4967862852950391	23.0	
9.559108838175677	1906.0	-0.6693339195814961	2105.0	1.9563676287040137	1278.0	-15680.0	9.613733905579398	-0.510116492949111	832.0	1.8050275904353157	2944.0	0.0	4855.224609375	28024.0	-0.3847826086956522	724.0	1.1696969696969697	-178.0	-567.0	-0.3872255489021957	-1.2545857152224302	-5.0	-45.0	1.1819470609573675	0.7577930054411978	39.0	
9.546788066442826	1902.0	-0.6334707022039963	2102.0	2.0047958242447974	1279.0	-15680.0	9.613733905579398	-0.510116492949111	832.0	2.001226241569589	3264.0	0.0	4874.755859375	28664.0	-0.3847826086956522	724.0	1.1757575757575758	-175.0	-543.0	-0.43512974051896214	-2.031251736116339	13.0	3.0	0.5273134064437439	0.49179540709500374	89.0	
9.50923534706346	1896.0	-0.6585431498179795	2104.0	2.0764587292013696	1282.0	-15616.0	9.574494175352545	-0.510116492949111	832.0	1.8442673206621703	3008.0	0.0	4894.287109375	29304.0	-0.3891304347826087	722.0	1.183838383838384	-171.0	-567.0	-0.3872255489021957	-2.8351148811086615	39.0	20.0	0.3442072081113652	0.10439677618751246	141.0	
9.606521408704987	1894.0	-0.6609897666506152	2104.0	2.101503509191627	1274.0	-15808.0	9.692213366033108	-0.510116492949111	832.0	2.001226241569589	3264.0	0.0	4913.818359375	29944.0	-0.3934782608695652	720.0	1.1676767676767676	-179.0	-551.0	-0.4191616766467066	-3.4637110405952503	57.0	1.0	0.6837656423682299	-0.16308152077275476	182.0	
9.643828467781974	1898.0	-0.6363941890353675	2102.0	2.0539297644742125	1271.0	-15744.0	9.652973635806253	-0.47087676272225626	768.0	1.9619865113427344	3200.0	0.0	4933.349609375	30584.0	-0.40217391304347827	716.0	1.187878787878788	-169.0	-551.0	-0.4191616766467066	-2.8630140623619633	59.0	-18.0	0.9280314339356086	-0.19950674150565795	143.0	
9.632238200617582	1897.0	-0.5632449276390308	2096.0	2.0665935471876162	1272.0	-15744.0	9.652973635806253	-0.4316370324954016	704.0	1.9619865113427344	3200.0	0.0	4952.880859375	31224.0	-0.3978260869565217	718.0	1.1656565656565656	-180.0	-559.0	-0.40319361277445115	-2.0078968856549197	95.0	-28.0	1.0403414566024685	-0.7555864303829947	87.0	
9.644793838755023	1898.0	-0.5388722183134114	2094.0	2.0549146378911627	1271.0	-15744.0	9.652973635806253	-0.4316370324954016	704.0	1.9227467811158798	3136.0	0.0	4972.412109375	31864.0	-0.4043478260869565	715.0	1.1656565656565656	-180.0	-543.0	-0.43512974051896214	-2.2955193733899986	166.0	-20.0	0.9836138681136324	-1.8325581142508909	105.0	
9.706735964959037	1907.0	-0.5501476414305334	2095.0	1.9469875699822725	1266.0	-15936.0	9.770692826486817	-0.3531575720416922	576.0	1.883507050889025	3072.0	0.0	4991.943359375	32504.0	-0.40217391304347827	716.0	1.1757575757575758	-175.0	-561.0	-0.3992015968063873	-2.7179041549878105	92.0	5.0	0.5931802438028475	-0.7028589812638102	133.0	
9.779770561384012	1910.0	-0.5996706319188332	2099.0	1.911078107728386	1260.0	-15872.0	9.731453096259962	-0.4316370324954016	704.0	1.765787860208461	2880.0	0.0	5011.474609375	33144.0	-0.3891304347826087	722.0	1.1797979797979798	-173.0	-565.0	-0.39121756487025955	-2.3697229574197025	49.0	-25.0	0.9925622490783947	-0.05234839780222884	111.0	
9.731608057270215	1910.0	-0.5377345268006606	2094.0	1.91121584373843	1264.0	-16064.0	9.849172286940528	-0.3531575720416922	576.0	1.765787860208461	2880.0	0.0	5031.005859375	33784.0	-0.4043478260869565	715.0	1.1717171717171717	-177.0	-543.0	-0.43512974051896214	-0.42910667451670653	66.0	-96.0	1.9323053272284816	-0.3303096937111067	-15.0	
9.696494670678174	1916.0	-0.46242378370027426	2088.0	1.8393286606770074	1267.0	-16064.0	9.849172286940528	-0.39239730226854685	640.0	1.7265481299816063	2816.0	0.0	5050.537109375	34424.0	-0.3978260869565217	718.0	1.1898989898989898	-168.0	-551.0	-0.4191616766467066	-0.3103615998796174	90.0	-93.0	1.8936639192456362	-0.6965161558643217	-23.0	
9.721136214143879	1924.0	-0.5341502184552741	2094.0	1.7424722695954398	1265.0	-15872.0	9.731453096259962	-0.3531575720416922	576.0	1.6873083997547516	2752.0	0.0	5070.068359375	35064.0	-0.41304347826086957	711.0	1.1797979797979798	-173.0	-544.0	-0.4331337325349302	-1.7332978823614937	103.0	-26.0	0.9961112786290853	-0.8800054242182103	69.0	
9.68479884359906	1922.0	-0.48512744803031904	2090.0	1.7666955091364098	1268.0	-16000.0	9.809932556713672	-0.23543838136112813	384.0	1.6088289393010422	2624.0	0.0	5089.599609375	35704.0	-0.3978260869565217	718.0	1.1797979797979798	-173.0	-557.0	-0.407185628742515	-1.0078290980470161	23.0	21.0	0.19230177355796618	0.3294699259614588	22.0	
9.51400197638471	1924.0	-0.5177742600929918	2093.0	1.740564686801471	1282.0	-15616.0	9.574494175352545	-0.3531575720416922	576.0	1.5695892090741874	2560.0	0.0	5109.130859375	36344.0	-0.4043478260869565	715.0	1.1919191919191918	-167.0	-551.0	-0.4191616766467066	-0.44439257045930686	-12.0	82.0	-0.7827489130632197	0.8561549523205627	-15.0	
9.501185566487983	1914.0	-0.45896116003120957	2088.0	1.8615065814139646	1283.0	-15552.0	9.53525444512569	-0.3531575720416922	576.0	1.7265481299816063	2816.0	0.0	5128.662109375	36984.0	-0.4043478260869565	715.0	1.1717171717171717	-177.0	-557.0	-0.407185628742515	-1.5422744136999824	-104.0	129.0	-1.4669535946846373	2.2663733144792055	57.0	
9.51021367071386	1902.0	-0.6327320471412836	2102.0	2.0044374668381346	1282.0	-15616.0	9.574494175352545	-0.4316370324954016	704.0	1.883507050889025	3072.0	0.0	5148.193359375	37624.0	-0.40217391304347827	716.0	1.1676767676767676	-179.0	-553.0	-0.41516966067864275	-1.8404310828523485	-131.0	98.0	-0.9978601298330364	2.6800012690034287	77.0	
9.582759105313633	1902.0	-0.6951605889679313	2107.0	2.004538635765866	1276.0	-15744.0	9.652973635806253	-0.5493562231759657	896.0	1.883507050889025	3072.0	0.0	5167.724609375	38264.0	-0.40652173913043477	714.0	1.1797979797979798	-173.0	-557.0	-0.407185628742515	-1.9716718094251549	-118.0	40.0	-0.11125181262511646	2.4835950450904494	86.0	
9.594088600718736	1894.0	-0.6851240409768666	2106.0	2.101137838368502	1275.0	-15680.0	9.613733905579398	-0.510116492949111	832.0	2.001226241569589	3264.0	0.0	5187.255859375	38904.0	-0.3934782608695652	720.0	1.187878787878788	-169.0	-556.0	-0.40918163672654695	-2.3779285803891916	-143.0	12.0	0.32160463810622153	2.867885749682219	113.0	
9.642251104832534	1894.0	-0.7470601460950391	2111.0	2.101000102358459	1271.0	-15872.0	9.731453096259962	-0.5885959534028203	960.0	2.001226241569589	3264.0	0.0	5206.787109375	39544.0	-0.3978260869565217	718.0	1.1757575757575758	-175.0	-552.0	-0.4171656686626747	-1.5314971582592805	-130.0	-20.0	0.750361876313158	2.661702804282213	58.0	
9.605316853768233	1895.0	-0.7948440413939368	2115.0	2.0881047281237426	1274.0	-15808.0	9.692213366033108	-0.627835683629675	1024.0	2.040465971796444	3328.0	0.0	5226.318359375	40184.0	-0.40869565217391307	713.0	1.185858585858586	-170.0	-553.0	-0.41516966067864275	-0.6569982392398175	-94.0	-57.0	1.2661205309144736	2.105429297981752	1.0	
9.62908779227782	1891.0	-0.8084804644401276	2116.0	2.1363988443627138	1272.0	-15808.0	9.692213366033108	-0.5885959534028203	960.0	2.0797057020232983	3392.0	0.0	5245.849609375	40824.0	-0.4	717.0	1.1616161616161615	-182.0	-536.0	-0.44910179640718567	-1.0026963003708254	-91.0	-107.0	2.0416313984325227	2.0632589021672065	24.0	
9.65360218803322	1896.0	-0.8565417115127417	2120.0	2.07592241199412	1270.0	-16000.0	9.809932556713672	-0.7847946045370937	1280.0	2.040465971796444	3328.0	0.0	5265.380859375	41464.0	-0.39565217391304347	719.0	1.1757575757575758	-175.0	-564.0	-0.3932135728542915	-0.8577724893842733	-29.0	-111.0	2.1292333473590697	1.1188438845896602	14.0	
9.544376797789758	1903.0	-0.8892274403497631	2123.0	1.9901659514057246	1279.0	-15680.0	9.613733905579398	-0.7847946045370937	1280.0	1.9227467811158798	3136.0	0.0	5284.912109375	42104.0	-0.40652173913043477	714.0	1.185858585858586	-170.0	-552.0	-0.4171656686626747	-1.5371890492651414	-15.0	-94.0	1.930165286474797	0.9127102935344765	58.0	
9.874886697115734	1909.0	-0.8334934942167467	2118.0	1.9217392332338088	1252.0	-16256.0	9.966891477621092	-0.627835683629675	1024.0	1.6873083997547516	2752.0	0.0	5304.443359375	42744.0	-0.40652173913043477	714.0	1.1797979797979798	-173.0	-564.0	-0.3932135728542915	-3.1140993902389416	35.0	-59.0	1.5455988659727358	0.16802312317995596	160.0	
9.6067757041256	1900.0	-0.7083201420153864	2108.0	2.0287435917656795	1274.0	-15872.0	9.731453096259962	-0.510116492949111	832.0	1.883507050889025	3072.0	0.0	5323.974609375	43384.0	-0.40217391304347827	716.0	1.1777777777777778	-174.0	-564.0	-0.3932135728542915	-0.7964520746853749	26.0	-62.0	1.4237928388834828	0.28172877930198686	9.0	
9.655543723877111	1901.0	-0.7212568267732132	2109.0	2.017053712344532	1270.0	-15936.0	9.770692826486817	-0.510116492949111	832.0	1.8442673206621703	3008.0	0.0	5343.505859375	44024.0	-0.40869565217391307	713.0	1.1818181818181819	-172.0	-543.0	-0.43512974051896214	-1.3119096646568777	90.0	-62.0	1.4986040483622296	-0.6865006752165491	42.0	
9.692240949757265	1902.0	-0.721757046836558	2109.0	2.005367489631616	1267.0	-16000.0	9.809932556713672	-0.5885959534028203	960.0	1.9227467811158798	3136.0	0.0	5363.037109375	44664.0	-0.4	717.0	1.1777777777777778	-174.0	-558.0	-0.4051896207584831	-1.7720153281350173	91.0	-63.0	1.5462282713074453	-0.6971087440570529	72.0	
9.643238063601167	1904.0	-0.7690562887818504	2113.0	1.9803080828084336	1271.0	-15808.0	9.692213366033108	-0.5493562231759657	896.0	1.8442673206621703	3008.0	0.0	5382.568359375	45304.0	-0.4	717.0	1.1757575757575758	-175.0	-565.0	-0.39121756487025955	0.07658010095035714	70.0	-97.0	1.9145354914801456	-0.3962030633669181	-48.0	
9.704675916523074	1903.0	-0.7095745838511831	2108.0	1.9935654711580437	1266.0	-15872.0	9.731453096259962	-0.5885959534028203	960.0	1.883507050889025	3072.0	0.0	5402.099609375	45944.0	-0.40652173913043477	714.0	1.1333333333333333	-196.0	-527.0	-0.4670658682634731	-0.044147677837750844	37.0	-78.0	1.6180045280420288	0.10690535510537372	-40.0	
9.81378711173358	1899.0	-0.7249345353770364	2109.0	2.0426957546792273	1257.0	-16128.0	9.888412017167381	-0.510116492949111	832.0	1.9619865113427344	3200.0	0.0	5421.630859375	46584.0	-0.4	717.0	1.1898989898989898	-168.0	-563.0	-0.3952095808383234	-1.0313956542816316	40.0	-43.0	1.1638044510751493	0.07115045844395701	24.0	
9.825625197979907	1903.0	-0.8095587381155145	2116.0	1.9937751224299687	1256.0	-16064.0	9.849172286940528	-0.6670754138565297	1088.0	1.883507050889025	3072.0	0.0	5441.162109375	47224.0	-0.40652173913043477	714.0	1.1676767676767676	-179.0	-549.0	-0.42315369261477054	-1.5060335413320671	79.0	16.0	0.33600776261587423	-0.5172590562216604	54.0	
9.82463392165216	1891.0	-0.7636589727469498	2112.0	2.138802520573389	1256.0	-16128.0	9.888412017167381	-0.5885959534028203	960.0	2.040465971796444	3328.0	0.0	5460.693359375	47864.0	-0.40869565217391307	713.0	1.187878787878788	-169.0	-552.0	-0.4171656686626747	-1.3136103341137848	62.0	79.0	-0.6322548340616461	-0.26062815521399524	41.0	
9.764286428634048	1894.0	-0.7373320832971698	2110.0	2.1023177362244527	1261.0	-16000.0	9.809932556713672	-0.627835683629675	1024.0	2.001226241569589	3264.0	0.0	5480.224609375	48504.0	-0.40869565217391307	713.0	1.187878787878788	-169.0	-565.0	-0.39121756487025955	0.9613011177587708	86.0	22.0	0.07858480298747611	-0.6483962811395649	-107.0	
9.753068969482342	1898.0	-0.6873711395844831	2106.0	2.054512399985725	1262.0	-16128.0	9.888412017167381	-0.47087676272225626	768.0	1.9619865113427344	3200.0	0.0	5499.755859375	49144.0	-0.40217391304347827	716.0	1.1777777777777778	-174.0	-560.0	-0.4011976047904192	2.145952912247628	152.0	-67.0	1.3706179629290127	-1.664045080453275	-184.0	
9.790393298795793	1910.0	-0.7583900526962494	2112.0	1.9095971408947299	1259.0	-16064.0	9.849172286940528	-0.6670754138565297	1088.0	1.8442673206621703	3008.0	0.0	5519.287109375	49784.0	-0.4043478260869565	715.0	1.1797979797979798	-173.0	-546.0	-0.42914171656686634	2.0140551807038563	174.0	-27.0	0.7934819255376728	-1.997326863594111	-176.0	
9.741618802705606	1906.0	-0.7095979339157924	2108.0	1.95779008820597	1263.0	-16064.0	9.849172286940528	-0.5885959534028203	960.0	1.9227467811158798	3136.0	0.0	5538.818359375	50424.0	-0.40869565217391307	713.0	1.1676767676767676	-179.0	-554.0	-0.4131736526946108	1.2889518222717675	156.0	19.0	0.14334337652854784	-1.716311571454657	-129.0	
9.59580606405583	1907.0	-0.6698341396448408	2105.0	1.9446814059910975	1275.0	-15744.0	9.652973635806253	-0.5885959534028203	960.0	1.883507050889025	3072.0	0.0	5558.349609375	51064.0	-0.3934782608695652	720.0	1.1676767676767676	-179.0	-551.0	-0.4191616766467066	1.7589025434923842	168.0	44.0	-0.2568774071434186	-1.9035205843702852	-160.0	
9.5961745545094	1910.0	-0.6691188346467376	2105.0	1.908547665632361	1275.0	-15808.0	9.692213366033108	-0.5885959534028203	960.0	1.8442673206621703	3008.0	0.0	5577.880859375	51704.0	-0.4043478260869565	715.0	1.1616161616161615	-182.0	-526.0	-0.46906187624750506	1.9968314289328397	175.0	87.0	-0.9138563636064096	-2.012363751551686	-176.0	
9.523017127933237	1906.0	-0.6198342791578055	2101.0	1.956501708005826	1281.0	-15680.0	9.613733905579398	-0.39239730226854685	640.0	1.8442673206621703	3008.0	0.0	5597.412109375	52344.0	-0.40652173913043477	714.0	1.187878787878788	-169.0	-568.0	-0.38522954091816375	1.9071437769729664	159.0	87.0	-0.917347943334185	-1.7681208674275246	-170.0	
9.449984690287824	1904.0	-0.5822631000103824	2098.0	1.9802434809630147	1287.0	-15552.0	9.53525444512569	-0.47087676272225626	768.0	1.883507050889025	3072.0	0.0	5616.943359375	52984.0	-0.3978260869565217	718.0	1.1676767676767676	-179.0	-551.0	-0.4191616766467066	1.695335041912424	113.0	10.0	0.22383194235720102	-1.066383008213801	-155.0	
9.510575684828753	1902.0	-0.5961613081205501	2099.0	2.004806794369491	1282.0	-15616.0	9.574494175352545	-0.3531575720416922	576.0	1.9619865113427344	3200.0	0.0	5636.474609375	53624.0	-0.40652173913043477	714.0	1.1535353535353536	-186.0	-542.0	-0.43712574850299407	0.9125965082976616	125.0	2.0	0.4055509545099329	-1.2410651285810756	-104.0	
9.58336246217179	1902.0	-0.6342093572667088	2102.0	2.0051541816514598	1276.0	-15744.0	9.652973635806253	-0.47087676272225626	768.0	1.9227467811158798	3136.0	0.0	5656.005859375	54264.0	-0.3978260869565217	718.0	1.185858585858586	-170.0	-564.0	-0.3932135728542915	1.4747023606467635	109.0	-49.0	1.1213122380366756	-1.0033401795000039	-140.0	
9.534962932873848	1904.0	-0.6205573675107786	2101.0	1.980710320713871	1280.0	-15744.0	9.652973635806253	-0.47087676272225626	768.0	1.8442673206621703	3008.0	0.0	5675.537109375	54904.0	-0.3934782608695652	720.0	1.183838383838384	-171.0	-562.0	-0.39720558882235535	1.911943525045176	113.0	-105.0	1.932893922965644	-1.0685490930451287	-168.0	
9.607144194579169	1903.0	-0.707604837017283	2108.0	1.9926098514069437	1274.0	-15808.0	9.692213366033108	-0.47087676272225626	768.0	1.883507050889025	3072.0	0.0	5695.068359375	55544.0	-0.40869565217391307	713.0	1.1797979797979798	-173.0	-548.0	-0.42514970059880247	1.7004940492797562	106.0	-120.0	2.1682398075677267	-0.9599707199604783	-154.0	
9.594579921323495	1898.0	-0.6841703009793955	2106.0	2.052959517890187	1275.0	-15744.0	9.652973635806253	-0.510116492949111	832.0	2.001226241569589	3264.0	0.0	5714.599609375	56184.0	-0.4	717.0	1.185858585858586	-170.0	-560.0	-0.4011976047904192	2.220724662483201	137.0	-142.0	2.480726154936891	-1.436655915826353	-188.0	
9.644194799455983	1900.0	-0.6237270726963874	2101.0	2.0299637134121737	1271.0	-15808.0	9.692213366033108	-0.510116492949111	832.0	1.9227467811158798	3136.0	0.0	5734.130859375	56824.0	-0.4	717.0	1.1595959595959595	-183.0	-550.0	-0.4211576846307386	2.1109041157676915	197.0	-184.0	3.1545567235502645	-2.3481052388763084	-181.0	
9.608471579667112	1903.0	-0.5735121272745934	2097.0	1.99396405235525	1274.0	-15680.0	9.613733905579398	-0.39239730226854685	640.0	1.9227467811158798	3136.0	0.0	5753.662109375	57464.0	-0.40217391304347827	716.0	1.1898989898989898	-168.0	-552.0	-0.4171656686626747	2.4889748985870823	207.0	-158.0	2.7445215498048743	-2.503977201457354	-206.0	
9.609327073166321	1908.0	-0.5479394595972655	2095.0	1.9339873701115937	1274.0	-15808.0	9.692213366033108	-0.47087676272225626	768.0	1.765787860208461	2880.0	0.0	5773.193359375	58104.0	-0.4043478260869565	715.0	1.183838383838384	-171.0	-538.0	-0.4451097804391218	1.6718937438257155	162.0	-86.0	1.694553702455685	-1.8113957435219075	-153.0	
9.681129050520283	1899.0	-0.5759431773974897	2097.0	2.04285908764689	1268.0	-15808.0	9.692213366033108	-0.47087676272225626	768.0	2.001226241569589	3264.0	0.0	5792.724609375	58744.0	-0.40652173913043477	714.0	1.1696969696969697	-178.0	-552.0	-0.4171656686626747	1.0243232636560076	131.0	-33.0	0.9261625936354683	-1.3334371489863701	-111.0	
9.619930381562082	1899.0	-0.5990925783067911	2099.0	2.042015606948215	1273.0	-15936.0	9.770692826486817	-0.4316370324954016	704.0	1.883507050889025	3072.0	0.0	5812.255859375	59384.0	-0.3978260869565217	718.0	1.1818181818181819	-172.0	-550.0	-0.4211576846307386	1.083353662772783	113.0	0.0	0.4163508838265794	-1.0602631944224046	-115.0	
9.584090807960694	1904.0	-0.5849715019069952	2098.0	1.9815574581207773	1276.0	-15744.0	9.652973635806253	-0.47087676272225626	768.0	1.9227467811158798	3136.0	0.0	5831.787109375	60024.0	-0.3891304347826087	722.0	1.1818181818181819	-172.0	-565.0	-0.39121756487025955	0.39022449477545224	121.0	12.0	0.2895495490937737	-1.1750049065447128	-70.0	
9.583487451102538	1904.0	-0.6459227336082177	2103.0	1.9809419122351837	1276.0	-15808.0	9.692213366033108	-0.4316370324954016	704.0	1.8442673206621703	3008.0	0.0	5851.318359375	60664.0	-0.3869565217391304	723.0	1.1757575757575758	-175.0	-551.0	-0.4191616766467066	0.22989987825972488	143.0	37.0	-0.06072042088162912	-1.5080024208358294	-60.0	
9.535217228294458	1910.0	-0.66788774287555	2105.0	1.9079504032879235	1280.0	-15616.0	9.574494175352545	-0.5493562231759657	896.0	1.8050275904353157	2944.0	0.0	5870.849609375	61304.0	-0.3934782608695652	720.0	1.1818181818181819	-172.0	-545.0	-0.43113772455089827	0.015422972115913015	128.0	50.0	-0.24982085222482808	-1.2777207696451134	-46.0	
9.522889980222931	1903.0	-0.5961690914754199	2099.0	1.9928816667187998	1281.0	-15680.0	9.613733905579398	-0.4316370324954016	704.0	1.883507050889025	3072.0	0.0	5890.380859375	61944.0	-0.3891304347826087	722.0	1.1696969696969697	-178.0	-561.0	-0.3992015968063873	-0.816085652609603	124.0	76.0	-0.5841864094712521	-1.2085691814967177	8.0	
9.620178200644018	1902.0	-0.6105675196489323	2100.0	2.0057587574123596	1273.0	-15808.0	9.692213366033108	-0.5493562231759657	896.0	1.9227467811158798	3136.0	0.0	5909.912109375	62584.0	-0.391304347826087	721.0	1.1656565656565656	-180.0	-560.0	-0.4011976047904192	-0.8446790623835492	158.0	29.0	0.14313577865732136	-1.725393513558674	10.0	
9.59663996975946	1902.0	-0.5247433585587458	2093.0	2.006381616714416	1275.0	-15808.0	9.692213366033108	-0.4316370324954016	704.0	1.9619865113427344	3200.0	0.0	5929.443359375	63224.0	-0.3934782608695652	720.0	1.185858585858586	-170.0	-555.0	-0.4111776447105789	0.4306043997888113	175.0	-3.0	0.5444783749533488	-1.9967014812602457	-73.0	
9.59712913158466	1905.0	-0.5118378072203978	2092.0	1.9703709855327989	1275.0	-15808.0	9.692213366033108	-0.39239730226854685	640.0	1.883507050889025	3072.0	0.0	5948.974609375	63864.0	-0.39565217391304347	719.0	1.183838383838384	-171.0	-563.0	-0.3952095808383234	-0.043635888962148525	177.0	-13.0	0.7286272665696979	-2.0223773293233065	-42.0	
9.657720126125591	1903.0	-0.5257360153305655	2093.0	1.994934298939275	1270.0	-15744.0	9.652973635806253	-0.39239730226854685	640.0	1.9227467811158798	3136.0	0.0	5968.505859375	64504.0	-0.4	717.0	1.1737373737373737	-176.0	-545.0	-0.43113772455089827	-1.00640375010465	143.0	-3.0	0.6250264615775688	-1.4956393845521856	21.0	
9.706860953889786	1909.0	-0.5618610177720424	2096.0	1.9227753005659962	1266.0	-15936.0	9.770692826486817	-0.3531575720416922	576.0	1.8050275904353157	2944.0	0.0	5988.037109375	65144.0	-0.3978260869565217	718.0	1.187878787878788	-169.0	-555.0	-0.4111776447105789	-0.6807551925410014	137.0	-21.0	0.8685761993233373	-1.407641117276111	0.0	
9.658338594440654	1910.0	-0.5484474630154801	2095.0	1.9103760197479862	1270.0	-15808.0	9.692213366033108	-0.4316370324954016	704.0	1.765787860208461	2880.0	0.0	6007.568359375	248.0	-0.3934782608695652	720.0	1.185858585858586	-170.0	-568.0	-0.38522954091816375	0.39710773257646353	119.0	-32.0	0.9475239106223418	-1.1446554879721527	-70.0	
9.585676806028365	1912.0	-0.5221127902108303	2093.0	1.885816363049741	1276.0	-15744.0	9.652973635806253	-0.3531575720416922	576.0	1.765787860208461	2880.0	0.0	6027.099609375	888.0	-0.3978260869565217	718.0	1.1676767676767676	-179.0	-553.0	-0.41516966067864275	0.7495744545705109	123.0	-34.0	0.9554106943438535	-1.2090166570932337	-93.0	
9.561162410272967	1907.0	-0.4740515431382162	2089.0	1.9462927954183349	1278.0	-15744.0	9.652973635806253	-0.39239730226854685	640.0	1.8442673206621703	3008.0	0.0	6046.630859375	1528.0	-0.4	717.0	1.1797979797979798	-173.0	-567.0	-0.3872255489021957	0.05926419640266993	124.0	-34.0	1.0040646533313466	-1.2173226799868404	-48.0	
9.560681883566	1908.0	-0.534764339840071	2094.0	1.9336326694131625	1278.0	-15808.0	9.692213366033108	-0.39239730226854685	640.0	1.8050275904353157	2944.0	0.0	6066.162109375	2168.0	-0.40217391304347827	716.0	1.1636363636363636	-181.0	-543.0	-0.43512974051896214	-0.8803875876228597	111.0	6.0	0.46185552232733773	-1.010207530967878	13.0	
9.646272118128412	1912.0	-0.5599146210027515	2096.0	1.8860442978628225	1271.0	-15872.0	9.731453096259962	-0.39239730226854685	640.0	1.8050275904353157	2944.0	0.0	6085.693359375	2808.0	-0.3891304347826087	722.0	1.1656565656565656	-180.0	-560.0	-0.4011976047904192	-1.7168670749192843	38.0	30.0	0.11584375830031375	0.10842342360090387	68.0	
9.608478056005787	1906.0	-0.6093675612972236	2100.0	1.9574609844651574	1274.0	-15744.0	9.652973635806253	-0.4316370324954016	704.0	1.8050275904353157	2944.0	0.0	6105.224609375	3448.0	-0.4043478260869565	715.0	1.185858585858586	-170.0	-557.0	-0.407185628742515	-1.3708771020510973	-29.0	38.0	-0.06893763007008383	1.1239749307163285	46.0	
9.595426779704473	1899.0	-0.6107903879385606	2100.0	2.0416535928333213	1275.0	-15744.0	9.652973635806253	-0.47087676272225626	768.0	1.9227467811158798	3136.0	0.0	6124.755859375	4088.0	-0.39565217391304347	719.0	1.1797979797979798	-173.0	-565.0	-0.39121756487025955	-0.6229729353546661	6.0	28.0	0.050226053074503174	0.5841764974143832	-3.0	
9.595668122447735	1899.0	-0.5864098952580716	2098.0	2.041899811187559	1275.0	-16000.0	9.809932556713672	-0.39239730226854685	640.0	1.883507050889025	3072.0	0.0	6144.287109375	4728.0	-0.3869565217391304	723.0	1.1737373737373737	-176.0	-551.0	-0.4191616766467066	-0.13195061236193947	67.0	-33.0	0.9677038941895874	-0.34849037980793957	-35.0	
9.632248994515374	1902.0	-0.6230039843434143	2101.0	2.0057551007041288	1272.0	-15808.0	9.692213366033108	-0.47087676272225626	768.0	1.9619865113427344	3200.0	0.0	6163.818359375	5368.0	-0.4	717.0	1.185858585858586	-170.0	-550.0	-0.4211576846307386	-0.2914713994776037	103.0	-27.0	0.9107526591684925	-0.8944236890470492	-25.0	
9.657608089872191	1907.0	-0.5857335070343168	2098.0	1.9461404325753662	1270.0	-15872.0	9.731453096259962	-0.4316370324954016	704.0	1.883507050889025	3072.0	0.0	6183.349609375	6008.0	-0.3934782608695652	720.0	1.187878787878788	-169.0	-560.0	-0.4011976047904192	-0.08620012299533396	77.0	-41.0	1.090543340304793	-0.5010391394544574	-38.0	
9.645535137221275	1906.0	-0.5613452309989582	2096.0	1.958311778580295	1271.0	-15936.0	9.770692826486817	-0.39239730226854685	640.0	1.8442673206621703	3008.0	0.0	6202.880859375	6648.0	-0.3978260869565217	718.0	1.1797979797979798	-173.0	-547.0	-0.4271457085828344	-0.2706061947715335	61.0	-23.0	0.8237790951299672	-0.25584907113213257	-26.0	
9.596290908321915	1908.0	-0.6330249656247395	2102.0	1.9330061534028746	1275.0	-15872.0	9.731453096259962	-0.3531575720416922	576.0	1.883507050889025	3072.0	0.0	6222.412109375	7288.0	-0.4043478260869565	715.0	1.1797979797979798	-173.0	-565.0	-0.39121756487025955	-1.1399196928712012	34.0	73.0	-0.5714229007356937	0.16349045168156373	30.0	
9.631878345282248	1898.0	-0.6117674780006409	2100.0	2.0540565303595626	1272.0	-15808.0	9.692213366033108	-0.3531575720416922	576.0	1.9619865113427344	3200.0	0.0	6241.943359375	7928.0	-0.3934782608695652	720.0	1.1676767676767676	-179.0	-542.0	-0.43712574850299407	-2.820618873057856	1.0	165.0	-1.853832628249665	0.682198584167841	139.0	
9.509965851631923	1899.0	-0.6212571057991425	2101.0	2.04069431637399	1282.0	-15744.0	9.652973635806253	-0.510116492949111	832.0	1.9619865113427344	3200.0	0.0	6261.474609375	8568.0	-0.40217391304347827	716.0	1.1595959595959595	-183.0	-541.0	-0.439121756487026	-1.621180220522446	3.0	142.0	-1.5912692422212102	0.6397859466919166	61.0	
9.522883503884255	1900.0	-0.5603136574527897	2096.0	2.0293847346088922	1281.0	-15616.0	9.574494175352545	-0.510116492949111	832.0	2.040465971796444	3328.0	0.0	6281.005859375	9208.0	-0.40652173913043477	714.0	1.1595959595959595	-183.0	-558.0	-0.4051896207584831	-1.1391863211793356	30.0	72.0	-0.5589148997333673	0.22431961986578577	30.0	
9.583478815984304	1900.0	-0.5981154882447108	2099.0	2.0296126694219736	1276.0	-15744.0	9.652973635806253	-0.47087676272225626	768.0	2.001226241569589	3264.0	0.0	6300.537109375	9848.0	-0.3978260869565217	718.0	1.1898989898989898	-168.0	-559.0	-0.40319361277445115	-1.9248074554389731	71.0	55.0	-0.22442013929128787	-0.39139831327830993	81.0	
9.607732439980417	1896.0	-0.5629909259299235	2096.0	2.07839922236942	1274.0	-15872.0	9.731453096259962	-0.4316370324954016	704.0	1.9227467811158798	3136.0	0.0	6320.068359375	10488.0	-0.4	717.0	1.1696969696969697	-178.0	-548.0	-0.42514970059880247	-2.2876391102599074	36.0	54.0	-0.2054673280330241	0.14454939490488045	105.0	
9.607978100282796	1898.0	-0.5625140559311879	2096.0	2.0543100621302623	1274.0	-15808.0	9.692213366033108	-0.39239730226854685	640.0	1.9619865113427344	3200.0	0.0	6339.599609375	11128.0	-0.40652173913043477	714.0	1.1616161616161615	-182.0	-550.0	-0.4211576846307386	-1.9486451612964444	57.0	23.0	0.2484819747102624	-0.1782321795657428	83.0	
9.621020741465879	1901.0	-0.513283983926344	2092.0	2.018788210948889	1273.0	-15872.0	9.731453096259962	-0.3139178418148375	512.0	2.001226241569589	3264.0	0.0	6359.130859375	11768.0	-0.3934782608695652	720.0	1.1737373737373737	-176.0	-567.0	-0.3872255489021957	-0.9775390619205666	78.0	-30.0	0.9882713542436155	-0.5073348755404902	20.0	
9.633703527313624	1905.0	-0.5125764622831104	2092.0	1.9707293429394612	1272.0	-15872.0	9.731453096259962	-0.27467811158798283	448.0	1.883507050889025	3072.0	0.0	6378.662109375	12408.0	-0.40652173913043477	714.0	1.1676767676767676	-179.0	-544.0	-0.4331337325349302	-0.6567479805185671	94.0	-37.0	1.0806256615191003	-0.7538887939590729	-1.0	
9.779878280078295	1904.0	-0.5157695175333283	2092.0	1.98420735268569	1260.0	-15936.0	9.770692826486817	-0.39239730226854685	640.0	1.883507050889025	3072.0	0.0	6398.193359375	13048.0	-0.4043478260869565	715.0	1.1777777777777778	-174.0	-569.0	-0.38323353293413176	-1.761278202532928	64.0	-6.0	0.6744823982090535	-0.2865697274803742	71.0	
9.74305822404695	1902.0	-0.5155077324693513	2092.0	2.007938155518185	1263.0	-16064.0	9.849172286940528	-0.3139178418148375	512.0	1.9619865113427344	3200.0	0.0	6417.724609375	13688.0	-0.4	717.0	1.183838383838384	-171.0	-564.0	-0.3932135728542915	0.44830436885034824	4.0	-57.0	1.2488112412545158	0.6038819753229034	-72.0	
