Device	Device	Device	Device	Device	Device	Device	Device	Device	Device	Device	Device	Device	Device	Device	Device	Device	Device	Device	Device	Device	Device	Device	Device	Device	Device	Device	
Low Noise Accelerometer X	Low Noise Accelerometer X	Low Noise Accelerometer Z	Low Noise Accelerometer Z	Low Noise Accelerometer Y	Low Noise Accelerometer Y	Wide Range Accelerometer X	Wide Range Accelerometer X	Wide Range Accelerometer Z	Wide Range Accelerometer Z	Wide Range Accelerometer Y	Wide Range Accelerometer Y	Event_Marker	Timestamp	Timestamp	Magnetometer Z	Magnetometer Z	Magnetometer X	Magnetometer X	Magnetometer Y	Magnetometer Y	Gyroscope Y	Gyroscope Y	Gyroscope Z	Gyroscope Z	Gyroscope X	Gyroscope X	
CAL	UNCAL	UNCAL	CAL	UNCAL	CAL	CAL	UNCAL	CAL	UNCAL	UNCAL	CAL	CAL	CAL	UNCAL	CAL	UNCAL	UNCAL	CAL	CAL	UNCAL	UNCAL	CAL	CAL	UNCAL	CAL	UNCAL	
m/(s^2)	no units	no units	m/(s^2)	no units	m/(s^2)	m/(s^2)	no units	m/(s^2)	no units	no units	m/(s^2)	no units	ms	no units	local_flux	no units	no units	local_flux	local_flux	no units	no units	deg/s	deg/s	no units	deg/s	no units	
9.75433181146717	1924.0	2122.0	-0.8762157710448328	1262.0	1.739383570042777	9.849172286940528	-16064.0	-0.8632740649908032	1408.0	2624.0	1.6088289393010422	0.0	227.203369140625	7445.0	-0.5152173913043478	664.0	-161.0	1.204040404040404	-0.44710578842315374	-537.0	127.0	1.068464099526906	2.2100122537216387	-119.0	-1.2730420554439383	-113.0	
9.693378802811342	1926.0	2124.0	-0.8988883019553987	1267.0	1.7144509291049446	9.770692826486817	-15936.0	-0.7063151440833844	1152.0	2624.0	1.6088289393010422	0.0	246.734619140625	8085.0	-0.5130434782608696	665.0	-168.0	1.1898989898989898	-0.44910179640718567	-536.0	129.0	0.8839786796668332	2.2090766652337965	-118.0	-1.301615452195908	-101.0	
9.704960434857501	1923.0	2126.0	-0.9242303179882286	1266.0	1.7504579035783308	9.692213366033108	-15808.0	-0.6670754138565297	1088.0	2752.0	1.6873083997547516	0.0	266.265869140625	8725.0	-0.5086956521739131	667.0	-168.0	1.1898989898989898	-0.4610778443113773	-530.0	108.0	0.32727081189083235	1.4704301762773437	-67.0	-0.9766567385371594	-65.0	
9.717397560402867	1925.0	2126.0	-0.9239996663437305	1265.0	1.7264881958080607	9.849172286940528	-16064.0	-0.7847946045370937	1280.0	2560.0	1.5695892090741874	0.0	285.797119140625	9365.0	-0.5130434782608696	665.0	-160.0	1.206060606060606	-0.43512974051896214	-543.0	82.0	0.7770350284448171	1.5432491262958974	-75.0	-0.5857171183452847	-94.0	
9.631100567847133	1929.0	2138.0	-1.067605353949531	1272.0	1.675996397922108	9.770692826486817	-15936.0	-0.7847946045370937	1280.0	2560.0	1.5695892090741874	0.0	305.328369140625	10005.0	-0.5173913043478261	663.0	-163.0	1.2	-0.45508982035928147	-533.0	77.0	0.13936049214017365	0.6250692090475838	-11.0	-0.5032947456058124	-53.0	
9.765562223296223	1926.0	2132.0	-0.9978875828027799	1261.0	1.7141827705013195	9.849172286940528	-16064.0	-0.8632740649908032	1408.0	2560.0	1.5695892090741874	0.0	324.859619140625	10645.0	-0.5152173913043478	664.0	-177.0	1.1717171717171717	-0.48103792415169666	-520.0	64.0	-0.5186827309015806	0.6179827608797637	-8.0	-0.29899568219668765	-10.0	
9.655597693366065	1926.0	2134.0	-1.0200521102951312	1270.0	1.7128614799270945	9.731453096259962	-15872.0	-0.8632740649908032	1408.0	2560.0	1.5695892090741874	0.0	344.390869140625	11285.0	-0.5086956521739131	667.0	-166.0	1.1939393939393939	-0.43113772455089827	-545.0	135.0	0.46786305960012975	0.5925130902106546	-8.0	-1.3887090488469518	-75.0	
9.595250200347957	1929.0	2132.0	-0.9937252208453513	1275.0	1.6763766955781583	9.692213366033108	-15808.0	-0.8632740649908032	1408.0	2624.0	1.6088289393010422	0.0	363.922119140625	11925.0	-0.5065217391304347	668.0	-172.0	1.1818181818181819	-0.42914171656686634	-546.0	176.0	0.23197652602167396	0.6488662624753087	-9.0	-2.00992432799786	-60.0	
9.571349955348504	1929.0	2128.0	-0.9444717987758983	1277.0	1.676630227348858	9.692213366033108	-15808.0	-0.7847946045370937	1280.0	2432.0	1.491109748620478	0.0	383.453369140625	12565.0	-0.5108695652173914	666.0	-168.0	1.1898989898989898	-0.46906187624750506	-526.0	195.0	0.8954362434807086	1.2889110701670436	-54.0	-2.305532309202868	-103.0	
9.657666376920263	1934.0	2125.0	-0.9084324132379884	1270.0	1.6176128215645331	9.613733905579398	-15680.0	-0.745554874310239	1216.0	2432.0	1.491109748620478	0.0	402.984619140625	13205.0	-0.5108695652173914	666.0	-174.0	1.1777777777777778	-0.44710578842315374	-537.0	190.0	0.8278698955788716	2.130152072781007	-110.0	-2.228811018347424	-98.0	
9.694844129507384	1934.0	2120.0	-0.8482198365994784	1267.0	1.6185867248567896	9.809932556713672	-16000.0	-0.745554874310239	1216.0	2496.0	1.5303494788473329	0.0	422.515869140625	13845.0	-0.5	671.0	-172.0	1.1818181818181819	-0.4730538922155689	-524.0	219.0	1.1356219640580112	2.651112745550597	-145.0	-2.672953177815485	-118.0	
9.755805773281443	1936.0	2122.0	-0.8733545510524194	1262.0	1.594848608607832	9.849172286940528	-16064.0	-0.7063151440833844	1152.0	2368.0	1.4518700183936235	0.0	442.047119140625	14485.0	-0.5021739130434782	670.0	-169.0	1.187878787878788	-0.47504990019960086	-523.0	196.0	0.28945101034102055	2.096313698567	-105.0	-2.3146815823467564	-63.0	
9.743864285899948	1940.0	2124.0	-0.8965350853811997	1263.0	1.546304617306392	9.888412017167381	-16128.0	-0.7063151440833844	1152.0	2496.0	1.5303494788473329	0.0	461.578369140625	15125.0	-0.5	671.0	-162.0	1.202020202020202	-0.42914171656686634	-546.0	170.0	0.7562000765342923	2.3328680442800445	-124.0	-1.9239118106512745	-93.0	
9.682411321521133	1934.0	2122.0	-0.8723541109257299	1268.0	1.6182210540336643	9.770692826486817	-15936.0	-0.627835683629675	1024.0	2368.0	1.4518700183936235	0.0	481.109619140625	15765.0	-0.5	671.0	-174.0	1.1777777777777778	-0.4650698602794412	-528.0	154.0	0.9210991478501654	1.696964574939114	-83.0	-1.6822147937598706	-104.0	
9.743008792400738	1935.0	2126.0	-0.9221077530585278	1263.0	1.6062812995500482	9.731453096259962	-15872.0	-0.745554874310239	1216.0	2432.0	1.491109748620478	0.0	500.640869140625	16405.0	-0.5	671.0	-163.0	1.2	-0.45708582834331346	-532.0	160.0	0.815111984395974	1.9328790278514831	-98.0	-1.7724096749770397	-97.0	
9.658399040268282	1938.0	2123.0	-0.8830981805600283	1270.0	1.5696807194404556	9.731453096259962	-15872.0	-0.745554874310239	1216.0	2304.0	1.4126302881667687	0.0	520.172119140625	17045.0	-0.5021739130434782	670.0	-164.0	1.197979797979798	-0.42914171656686634	-546.0	197.0	2.055904810463919	2.2588344503118507	-124.0	-2.347555245823271	-178.0	
9.634382441456317	1940.0	2122.0	-0.8699386275125731	1272.0	1.5454757634406417	9.731453096259962	-15872.0	-0.745554874310239	1216.0	2240.0	1.3733905579399142	0.0	539.703369140625	17685.0	-0.5	671.0	-179.0	1.1676767676767676	-0.4770459081836328	-522.0	200.0	1.947509011385229	2.208233877992258	-120.0	-2.3920986642583393	-171.0	
9.756288458767967	1936.0	2118.0	-0.8245935656914414	1262.0	1.595341045316307	9.809932556713672	-16000.0	-0.7063151440833844	1152.0	2368.0	1.4518700183936235	0.0	559.234619140625	18325.0	-0.5	671.0	-169.0	1.187878787878788	-0.471057884231537	-525.0	171.0	1.79777078172537	2.1410430582327495	-116.0	-1.9495366431784706	-161.0	
9.634253134966453	1936.0	2119.0	-0.8343216284893107	1272.0	1.5940234114503131	9.770692826486817	-15936.0	-0.745554874310239	1216.0	2304.0	1.4126302881667687	0.0	578.765869140625	18965.0	-0.5065217391304347	668.0	-166.0	1.1939393939393939	-0.43712574850299407	-542.0	205.0	2.426121068326095	2.5677694013755046	-146.0	-2.4729304122041738	-202.0	
9.658883884534367	1939.0	2120.0	-0.8462890065399269	1270.0	1.5580054668522332	9.770692826486817	-15936.0	-0.745554874310239	1216.0	2368.0	1.4518700183936235	0.0	598.297119140625	19605.0	-0.4956521739130435	673.0	-176.0	1.1737373737373737	-0.44311377245508987	-539.0	243.0	2.249173842829176	2.333337731526257	-128.0	-3.049107708010041	-191.0	
9.682656981823513	1936.0	2122.0	-0.8718772409269944	1268.0	1.5941318937945068	9.770692826486817	-15936.0	-0.6670754138565297	1088.0	2496.0	1.5303494788473329	0.0	617.828369140625	20245.0	-0.49782608695652175	672.0	-170.0	1.185858585858586	-0.46906187624750506	-526.0	184.0	1.9030832882445277	2.1266295492780385	-115.0	-2.1483083994223695	-168.0	
9.560979354577777	1934.0	2118.0	-0.8211309420223767	1278.0	1.6175189660532645	9.692213366033108	-15808.0	-0.627835683629675	1024.0	2304.0	1.4126302881667687	0.0	637.359619140625	20885.0	-0.49130434782608695	675.0	-173.0	1.1797979797979798	-0.4331337325349302	-544.0	173.0	2.3044983691026855	2.1969465706780666	-122.0	-1.9850221700028141	-194.0	
9.731894734384202	1931.0	2113.0	-0.7643420722785828	1264.0	1.6559405868620194	9.652973635806253	-15744.0	-0.7063151440833844	1152.0	2432.0	1.491109748620478	0.0	656.890869140625	21525.0	-0.4934782608695652	674.0	-172.0	1.1818181818181819	-0.42914171656686634	-546.0	132.0	0.8650580976819923	1.897376054086331	-97.0	-1.347053622801915	-100.0	
9.596719844603113	1939.0	2130.0	-0.9669603781711844	1275.0	1.5561771127366082	9.770692826486817	-15936.0	-0.5885959534028203	960.0	2496.0	1.5303494788473329	0.0	676.422119140625	22165.0	-0.49782608695652175	672.0	-164.0	1.197979797979798	-0.4510978043912176	-535.0	176.0	2.2400162467145304	1.9333945539870498	-104.0	-2.030004725204788	-190.0	
9.562067555702017	1935.0	2110.0	-0.7233705363010529	1278.0	1.6064592593506357	9.613733905579398	-15680.0	-0.6670754138565297	1088.0	2432.0	1.491109748620478	0.0	695.953369140625	22805.0	-0.5021739130434782	670.0	-181.0	1.1636363636363636	-0.5229540918163673	-499.0	164.0	2.6217460593590047	1.554698192591961	-81.0	-1.8513125176278107	-215.0	
9.525743137834546	1939.0	2112.0	-0.7460586339213582	1281.0	1.5576763631114205	9.613733905579398	-15680.0	-0.627835683629675	1024.0	2368.0	1.4518700183936235	0.0	715.484619140625	23445.0	-0.48043478260869565	680.0	-170.0	1.185858585858586	-0.4451097804391218	-538.0	125.0	1.9423648571195173	2.088002015962666	-115.0	-1.2513628120692941	-170.0	
9.4645466276559	1940.0	2115.0	-0.7811598461715363	1286.0	1.544665193116048	9.45677498467198	-15424.0	-0.5885959534028203	960.0	2368.0	1.4518700183936235	0.0	735.015869140625	24085.0	-0.4891304347826087	676.0	-167.0	1.1919191919191918	-0.4770459081836328	-522.0	89.0	1.3013662602153124	1.900819325149025	-101.0	-0.6974243089899859	-128.0	
9.561102184728966	1935.0	2118.0	-0.8208925070230089	1278.0	1.6054743859336857	9.574494175352545	-15616.0	-0.627835683629675	1024.0	2304.0	1.4126302881667687	0.0	754.547119140625	24725.0	-0.4934782608695652	674.0	-175.0	1.1757575757575758	-0.4850299401197605	-518.0	14.0	-0.36361790733096816	1.5512847418368645	-73.0	0.45990994333186486	-19.0	
9.536232251197347	1933.0	2120.0	-0.8452574329937584	1280.0	1.6290784228808306	9.652973635806253	-15744.0	-0.745554874310239	1216.0	2432.0	1.491109748620478	0.0	774.078369140625	25365.0	-0.47391304347826085	683.0	-175.0	1.1757575757575758	-0.44111776447105794	-540.0	-35.0	0.31775893253961757	1.4140810128578092	-69.0	1.1983433232221326	-63.0	
9.536589947753123	1931.0	2115.0	-0.7847830712912716	1280.0	1.6537831290055818	9.613733905579398	-15680.0	-0.627835683629675	1024.0	2432.0	1.491109748620478	0.0	793.609619140625	26005.0	-0.4934782608695652	674.0	-171.0	1.183838383838384	-0.48103792415169666	-520.0	13.0	0.1718244336510779	1.3634845524042434	-63.0	0.4697646453973296	-54.0	
9.548428033999453	1935.0	2122.0	-0.8694072740297494	1279.0	1.604862496756323	9.574494175352545	-15616.0	-0.8240343347639485	1344.0	2368.0	1.4518700183936235	0.0	813.140869140625	26645.0	-0.48695652173913045	677.0	-168.0	1.1898989898989898	-0.42914171656686634	-546.0	66.0	-0.4386942452092359	0.9734523822686219	-32.0	-0.3302138180041814	-15.0	
9.57268597555468	1933.0	2121.0	-0.8581863343967155	1277.0	1.6293136711103744	9.692213366033108	-15808.0	-0.6670754138565297	1088.0	2496.0	1.5303494788473329	0.0	832.672119140625	27285.0	-0.5	671.0	-178.0	1.1696969696969697	-0.471057884231537	-525.0	54.0	-1.5866182688297223	1.1060175290769745	-36.0	-0.1362250720645545	60.0	
9.633763973141253	1933.0	2120.0	-0.8472271798276585	1272.0	1.6300340426319306	9.731453096259962	-15872.0	-0.627835683629675	1024.0	2496.0	1.5303494788473329	0.0	852.203369140625	27925.0	-0.48695652173913045	677.0	-163.0	1.2	-0.45508982035928147	-533.0	31.0	-2.0551139896179746	1.484452525761597	-60.0	0.218269771074887	91.0	
9.646321770058252	1935.0	2119.0	-0.834806281842916	1271.0	1.6061874440387793	9.731453096259962	-15872.0	-0.627835683629675	1024.0	2432.0	1.491109748620478	0.0	871.734619140625	28565.0	-0.49130434782608695	675.0	-168.0	1.1898989898989898	-0.4271457085828344	-547.0	46.0	-2.1305417581571207	1.843655359943989	-83.0	-0.00911283336899914	96.0	
9.73129569508516	1933.0	2120.0	-0.8491969266615587	1264.0	1.6309896623830307	9.731453096259962	-15872.0	-0.627835683629675	1024.0	2496.0	1.5303494788473329	0.0	891.265869140625	29205.0	-0.4826086956521739	679.0	-172.0	1.1818181818181819	-0.4770459081836328	-522.0	99.0	-2.289546584505497	2.0968604943392037	-97.0	-0.8136064352956295	106.0	
9.67059266429083	1939.0	2124.0	-0.8952962102551425	1269.0	1.5576324826126455	9.849172286940528	-16064.0	-0.745554874310239	1216.0	2368.0	1.4518700183936235	0.0	910.797119140625	29845.0	-0.49130434782608695	675.0	-169.0	1.187878787878788	-0.45309381237524954	-534.0	121.0	-1.7701002291165053	2.1940310884073884	-105.0	-1.1534016593057932	72.0	
9.68265914060307	1937.0	2123.0	-0.8838290522678711	1268.0	1.5819642044978093	9.809932556713672	-16000.0	-0.7063151440833844	1152.0	2432.0	1.491109748620478	0.0	930.328369140625	30485.0	-0.48043478260869565	680.0	-171.0	1.183838383838384	-0.43113772455089827	-545.0	72.0	-1.6053871254009513	2.5725472754047534	-133.0	-0.40980164205397535	62.0	
9.731547831726212	1938.0	2123.0	-0.8845754906854534	1264.0	1.5703974342537805	9.770692826486817	-15936.0	-0.7063151440833844	1152.0	2368.0	1.4518700183936235	0.0	949.859619140625	31125.0	-0.48695652173913045	677.0	-184.0	1.1575757575757575	-0.4830339321357286	-519.0	122.0	-1.6205283954713552	3.3536445461585203	-183.0	-1.17010650311753	63.0	
9.78104419726663	1941.0	2120.0	-0.8482743200835665	1260.0	1.5351108313019506	9.770692826486817	-15936.0	-0.7063151440833844	1152.0	2368.0	1.4518700183936235	0.0	969.390869140625	31765.0	-0.4891304347826087	676.0	-174.0	1.1777777777777778	-0.4590818363273454	-531.0	149.0	-1.3430087101032648	3.890485166502743	-219.0	-1.5835280878039104	45.0	
9.756906927083032	1943.0	2120.0	-0.8473050133763559	1262.0	1.5107827661250182	9.888412017167381	-16128.0	-0.7847946045370937	1280.0	2240.0	1.3733905579399142	0.0	988.922119140625	32405.0	-0.48043478260869565	680.0	-169.0	1.187878787878788	-0.44111776447105794	-540.0	171.0	-1.2898139699844366	3.405414219320568	-186.0	-1.9186607956613724	41.0	
9.756428559155621	1945.0	2126.0	-0.9199696214190873	1262.0	1.485954950823148	9.849172286940528	-16064.0	-0.7063151440833844	1152.0	2304.0	1.4126302881667687	0.0	1008.453369140625	33045.0	-0.48695652173913045	677.0	-182.0	1.1616161616161615	-0.4510978043912176	-535.0	107.0	-0.9317709956639314	2.9367614658917303	-159.0	-0.9488571949863265	18.0	
9.7577645793618	1949.0	2119.0	-0.8336841570399047	1262.0	1.4386383945846644	9.888412017167381	-16128.0	-0.6670754138565297	1088.0	2112.0	1.2949110974862048	0.0	1027.984619140625	33685.0	-0.4847826086956522	678.0	-172.0	1.1818181818181819	-0.44710578842315374	-537.0	129.0	-2.2629497453167984	2.1432453123982644	-99.0	-1.2701461679460717	104.0	
9.8916142428345	1942.0	2114.0	-0.7771103722308693	1251.0	1.524879978465072	10.006131207847945	-16320.0	-0.5885959534028203	960.0	2368.0	1.4518700183936235	0.0	1047.515869140625	34325.0	-0.5021739130434782	670.0	-175.0	1.1757575757575758	-0.4850299401197605	-518.0	164.0	-1.6723103884792943	1.8835495288577584	-83.0	-1.8083719531494278	65.0	
9.75702975723422	1944.0	2120.0	-0.8470665783769881	1262.0	1.4987381860054394	9.849172286940528	-16064.0	-0.7063151440833844	1152.0	2304.0	1.4126302881667687	0.0	1067.047119140625	34965.0	-0.4891304347826087	676.0	-178.0	1.1696969696969697	-0.4590818363273454	-531.0	173.0	0.7039090184391601	1.7536249508035884	-85.0	-1.9690162764961787	-90.0	
9.709472768758138	1945.0	2111.0	-0.7361310528984697	1266.0	1.4873237786043794	9.809932556713672	-16000.0	-0.510116492949111	832.0	2176.0	1.3341508277130594	0.0	1086.578369140625	35605.0	-0.4891304347826087	676.0	-172.0	1.1818181818181819	-0.45708582834331346	-532.0	113.0	0.6048541880743075	1.67903975461192	-82.0	-1.05547819967542	-83.0	
9.73337085497803	1944.0	2114.0	-0.7734326636270461	1264.0	1.4992379361303767	9.809932556713672	-16000.0	-0.5885959534028203	960.0	2240.0	1.3733905579399142	0.0	1106.109619140625	36245.0	-0.4847826086956522	678.0	-174.0	1.1777777777777778	-0.43113772455089827	-545.0	79.0	-0.0992821934065369	1.3475431461615766	-58.0	-0.5313265697009156	-37.0	
9.684238662332067	1942.0	2115.0	-0.7851149065490761	1268.0	1.5227261773168654	9.770692826486817	-15936.0	-0.510116492949111	832.0	2176.0	1.3341508277130594	0.0	1125.640869140625	36885.0	-0.4847826086956522	678.0	-177.0	1.1717171717171717	-0.43512974051896214	-543.0	46.0	-0.33911052059701613	1.4191216708472871	-63.0	-0.027027145744600183	-21.0	
9.744952487024188	1941.0	2116.0	-0.798774679659876	1263.0	1.5352449106037633	9.731453096259962	-15872.0	-0.5885959534028203	960.0	2432.0	1.491109748620478	0.0	1145.172119140625	37525.0	-0.48695652173913045	677.0	-177.0	1.1717171717171717	-0.471057884231537	-525.0	37.0	0.017799489036567105	1.67366302022008	-82.0	0.10628588343663053	-44.0	
9.695828929496459	1943.0	2121.0	-0.8582641679454128	1267.0	1.510062394603462	9.731453096259962	-15872.0	-0.6670754138565297	1088.0	2240.0	1.3733905579399142	0.0	1164.703369140625	38165.0	-0.4782608695652174	681.0	-172.0	1.1818181818181819	-0.4510978043912176	-535.0	41.0	0.8335217104593621	1.9641497998919955	-105.0	0.0372921593212619	-97.0	
9.707537709252922	1943.0	2125.0	-0.9072713716606283	1266.0	1.5096894103638743	9.849172286940528	-16064.0	-0.8240343347639485	1344.0	2240.0	1.3733905579399142	0.0	1184.234619140625	38805.0	-0.48043478260869565	680.0	-179.0	1.1676767676767676	-0.45708582834331346	-532.0	23.0	0.40266739468028345	1.5783890887286138	-78.0	0.31536496103418576	-69.0	
9.79250947550027	1940.0	2125.0	-0.9097102051383943	1259.0	1.5466593180048231	9.888412017167381	-16128.0	-0.7063151440833844	1152.0	2240.0	1.3733905579399142	0.0	1203.765869140625	39445.0	-0.4782608695652174	681.0	-174.0	1.1777777777777778	-0.45309381237524954	-534.0	6.0	-0.6114378893652167	1.2038460024793345	-49.0	0.5840611469544886	-3.0	
9.865419082994496	1941.0	2128.0	-0.9475198192851852	1253.0	1.534962125167213	10.006131207847945	-16320.0	-0.7847946045370937	1280.0	2368.0	1.4518700183936235	0.0	1223.297119140625	40085.0	-0.4847826086956522	678.0	-172.0	1.1818181818181819	-0.43113772455089827	-545.0	44.0	-0.14677840441397325	0.6698859418647537	-14.0	0.0014677840441397322	-34.0	
9.694736410813102	1940.0	2127.0	-0.9321209509849832	1267.0	1.5454574798994856	9.770692826486817	-15936.0	-0.7063151440833844	1152.0	2304.0	1.4126302881667687	0.0	1242.828369140625	40725.0	-0.4826086956521739	679.0	-180.0	1.1656565656565656	-0.46307385229540926	-529.0	97.0	0.8212140208195446	0.05004936889919393	25.0	-0.8142957903983096	-98.0	
9.646093379992339	1941.0	2127.0	-0.9308976425686654	1271.0	1.5329350899043566	9.731453096259962	-15872.0	-0.745554874310239	1216.0	2304.0	1.4126302881667687	0.0	1262.359619140625	41365.0	-0.4956521739130435	673.0	-171.0	1.183838383838384	-0.4650698602794412	-528.0	96.0	0.4326920614092984	-0.4482554989292721	60.0	-0.7952014453289219	-73.0	
9.62243663651571	1942.0	2122.0	-0.8692155391596	1273.0	1.5212671507325968	9.692213366033108	-15808.0	-0.7063151440833844	1152.0	2304.0	1.4126302881667687	0.0	1281.890869140625	42005.0	-0.47608695652173916	682.0	-174.0	1.1777777777777778	-0.42914171656686634	-546.0	105.0	0.3420536268329818	-0.16660671124539095	42.0	-0.9311771902607253	-67.0	
9.597805886947794	1939.0	2121.0	-0.8572481611089839	1275.0	1.557285095330677	9.613733905579398	-15680.0	-0.6670754138565297	1088.0	2304.0	1.4126302881667687	0.0	1301.422119140625	42645.0	-0.4826086956521739	679.0	-179.0	1.1676767676767676	-0.439121756487026	-541.0	106.0	0.06659101764123013	-0.07186362988600394	37.0	-0.9436316896440929	-49.0	
9.610240853713604	1940.0	2120.0	-0.8450656981236091	1274.0	1.5454830768571044	9.692213366033108	-15808.0	-0.627835683629675	1024.0	2368.0	1.4518700183936235	0.0	1320.953369140625	43285.0	-0.4717391304347826	684.0	-173.0	1.1797979797979798	-0.439121756487026	-541.0	125.0	0.11447401695092528	0.401130264915162	6.0	-1.2330839036676082	-52.0	
9.5858643995663	1943.0	2123.0	-0.8804286954377643	1276.0	1.5087411040292367	9.613733905579398	-15680.0	-0.745554874310239	1216.0	2240.0	1.3733905579399142	0.0	1340.484619140625	43925.0	-0.4826086956521739	679.0	-179.0	1.1676767676767676	-0.4590818363273454	-531.0	104.0	0.07227580910567523	0.46625411352258156	1.0	-0.9132702866081671	-49.0	
9.707776893216627	1942.0	2122.0	-0.8709390676392627	1266.0	1.5221033180148094	9.731453096259962	-15872.0	-0.7847946045370937	1280.0	2432.0	1.491109748620478	0.0	1360.015869140625	44565.0	-0.48043478260869565	680.0	-178.0	1.1696969696969697	-0.45309381237524954	-534.0	105.0	-0.848988072712221	0.4410274222273629	7.0	-0.9192667732652733	11.0	
9.719724856936793	1941.0	2123.0	-0.8836139673331125	1265.0	1.5341442414261568	9.849172286940528	-16064.0	-0.745554874310239	1216.0	2176.0	1.3341508277130594	0.0	1379.547119140625	45205.0	-0.4782608695652174	681.0	-172.0	1.1818181818181819	-0.45309381237524954	-534.0	114.0	-0.48131459899812534	0.5108676561167201	1.0	-1.059825637279981	-13.0	
9.659625183000621	1947.0	2122.0	-0.8687620192254737	1270.0	1.4614026075413655	9.731453096259962	-15872.0	-0.627835683629675	1024.0	2368.0	1.4518700183936235	0.0	1399.078369140625	45845.0	-0.47608695652173916	682.0	-171.0	1.183838383838384	-0.42914171656686634	-546.0	175.0	-0.0251608100363978	1.0109822422528356	-32.0	-1.9921438291619937	-43.0	
9.659623024221062	1946.0	2121.0	-0.8568102078845969	1270.0	1.473570296838063	9.770692826486817	-15936.0	-0.627835683629675	1024.0	2240.0	1.3733905579399142	0.0	1418.609619140625	46485.0	-0.47608695652173916	682.0	-180.0	1.1656565656565656	-0.4590818363273454	-531.0	161.0	-0.04250007169953583	0.59887434339903	-5.0	-1.7790426798913699	-42.0	
9.562328327461302	1944.0	2117.0	-0.8065563456884544	1278.0	1.4971962740345957	9.613733905579398	-15680.0	-0.627835683629675	1024.0	2240.0	1.3733905579399142	0.0	1438.140869140625	47125.0	-0.4826086956521739	679.0	-170.0	1.185858585858586	-0.45508982035928147	-533.0	155.0	-0.18010701356463452	0.5598240851943946	-2.0	-1.6864118576210076	-33.0	
9.610490831575099	1944.0	2122.0	-0.868492450806627	1274.0	1.4970585380245518	9.692213366033108	-15808.0	-0.7063151440833844	1152.0	2240.0	1.3733905579399142	0.0	1457.672119140625	47765.0	-0.47391304347826085	683.0	-173.0	1.1797979797979798	-0.41516966067864275	-553.0	104.0	-1.9711386581296826	0.24865567048714	25.0	-0.8928361419358135	84.0	
9.610361525085235	1940.0	2119.0	-0.8328754517833645	1274.0	1.5456061860342232	9.692213366033108	-15808.0	-0.6670754138565297	1088.0	2304.0	1.4126302881667687	0.0	1477.203369140625	48405.0	-0.47608695652173916	682.0	-176.0	1.1737373737373737	-0.4451097804391218	-538.0	61.0	-1.442059551076956	0.32060460255191314	16.0	-0.24413453756907838	50.0	
9.536486546617958	1939.0	2124.0	-0.8925878083585298	1280.0	1.556318505454883	9.53525444512569	-15552.0	-0.8240343347639485	1344.0	2368.0	1.4518700183936235	0.0	1496.734619140625	49045.0	-0.4826086956521739	679.0	-177.0	1.1717171717171717	-0.43512974051896214	-543.0	69.0	-0.7446731918276901	1.116513641995308	-40.0	-0.3727814049638524	5.0	
9.573300126310627	1938.0	2121.0	-0.8569941593998767	1277.0	1.5690907705124806	9.652973635806253	-15744.0	-0.745554874310239	1216.0	2432.0	1.491109748620478	0.0	1516.265869140625	49685.0	-0.4652173913043478	687.0	-174.0	1.1777777777777778	-0.4211576846307386	-550.0	83.0	-1.6980582172967245	1.1464088387897347	-37.0	-0.5761753113631545	67.0	
9.657787048291894	1934.0	2124.0	-0.8962421668977438	1270.0	1.617735930741652	9.731453096259962	-15872.0	-0.7063151440833844	1152.0	2432.0	1.491109748620478	0.0	1535.797119140625	50325.0	-0.4673913043478261	686.0	-182.0	1.1616161616161615	-0.4510978043912176	-535.0	133.0	-1.991961738301559	1.6770428947422715	-69.0	-1.3336925499173646	86.0	
9.647054433406272	1939.0	2117.0	-0.8094720491649559	1271.0	1.5582553419147018	9.731453096259962	-15872.0	-0.7063151440833844	1152.0	2432.0	1.491109748620478	0.0	1555.328369140625	50965.0	-0.4826086956521739	679.0	-171.0	1.183838383838384	-0.44710578842315374	-537.0	176.0	-0.5487684934448529	2.382366535620284	-121.0	-2.0021168778031946	-8.0	
9.744329701150008	1932.0	2112.0	-0.752159609293208	1263.0	1.644138568388447	9.770692826486817	-15936.0	-0.510116492949111	832.0	2432.0	1.491109748620478	0.0	1574.859619140625	51605.0	-0.48043478260869565	680.0	-182.0	1.1616161616161615	-0.4271457085828344	-547.0	179.0	-0.31091206040817576	3.192224529084892	-176.0	-2.0501228185594162	-23.0	
9.683870171878498	1939.0	2115.0	-0.7858302115471794	1268.0	1.5588599176756017	9.770692826486817	-15936.0	-0.627835683629675	1024.0	2368.0	1.4518700183936235	0.0	1594.390869140625	52245.0	-0.4673913043478261	686.0	-179.0	1.1676767676767676	-0.45309381237524954	-534.0	191.0	0.9016556343439025	3.3849952652245507	-194.0	-2.2447580012103594	-102.0	
9.781046356046188	1942.0	2121.0	-0.8602261314244433	1260.0	1.522943142005253	9.927651747394236	-16192.0	-0.7063151440833844	1152.0	2368.0	1.4518700183936235	0.0	1613.922119140625	52885.0	-0.48043478260869565	680.0	-172.0	1.1818181818181819	-0.45708582834331346	-532.0	179.0	0.7195123067172529	3.4053645643473547	-195.0	-2.0604270622306706	-90.0	
9.889804172260032	1942.0	2129.0	-0.9599640673345369	1251.0	1.5230333408082906	9.966891477621092	-16256.0	-0.745554874310239	1216.0	2304.0	1.4126302881667687	0.0	1633.453369140625	53525.0	-0.46956521739130436	685.0	-174.0	1.1777777777777778	-0.4271457085828344	-547.0	108.0	-1.1770090503788782	2.9844234070151536	-161.0	-0.9616139399144623	34.0	
9.889799854700914	1940.0	2127.0	-0.9360604446527834	1251.0	1.5473687194016856	10.0453709380748	-16384.0	-0.7063151440833844	1152.0	2304.0	1.4126302881667687	0.0	1652.984619140625	54165.0	-0.47391304347826085	683.0	-178.0	1.1696969696969697	-0.4510978043912176	-535.0	99.0	-0.7032455792239851	2.646124109289152	-141.0	-0.8294694453484446	3.0	
9.780936478572347	1947.0	2127.0	-0.9321754344690714	1260.0	1.4619815863446466	9.927651747394236	-16192.0	-0.7847946045370937	1280.0	2176.0	1.3341508277130594	0.0	1672.515869140625	54805.0	-0.4717391304347826	684.0	-174.0	1.1777777777777778	-0.43113772455089827	-545.0	158.0	0.6796179808883545	2.1659802366794794	-113.0	-1.740636483991393	-88.0	
9.756674219458	1947.0	2126.0	-0.9194927514203518	1262.0	1.4618657905839905	9.849172286940528	-16064.0	-0.745554874310239	1216.0	2176.0	1.3341508277130594	0.0	1692.047119140625	55445.0	-0.47391304347826085	683.0	-185.0	1.1555555555555554	-0.471057884231537	-525.0	207.0	0.6195672744010875	1.5103144793687593	-67.0	-2.485283125215494	-85.0	
9.696201737509142	1948.0	2123.0	-0.881452485629063	1267.0	1.4495932756513306	9.770692826486817	-15936.0	-0.745554874310239	1216.0	2048.0	1.25567136725935	0.0	1711.578369140625	56085.0	-0.4673913043478261	686.0	-182.0	1.1616161616161615	-0.45309381237524954	-534.0	230.0	0.4294714351018895	1.267672477754979	-49.0	-2.833192052754061	-73.0	
9.720821693179266	1946.0	2119.0	-0.8336608069752955	1265.0	1.474413777536738	9.770692826486817	-15936.0	-0.5885959534028203	960.0	2240.0	1.3733905579399142	0.0	1731.109619140625	56725.0	-0.47391304347826085	683.0	-172.0	1.1818181818181819	-0.44910179640718567	-536.0	184.0	-0.03686722809910918	1.5120249178092589	-65.0	-2.128908894258933	-42.0	
9.636095587234294	1951.0	2119.0	-0.8307451034987939	1272.0	1.4133547096566317	9.692213366033108	-15808.0	-0.745554874310239	1216.0	2240.0	1.3733905579399142	0.0	1750.640869140625	57365.0	-0.47608695652173916	682.0	-176.0	1.1737373737373737	-0.42514970059880247	-548.0	196.0	0.9385480103927221	2.5458891710515577	-138.0	-2.321172552347273	-105.0	
9.63669894409245	1951.0	2114.0	-0.7697938717975714	1272.0	1.4139702555422253	9.731453096259962	-15872.0	-0.627835683629675	1024.0	2048.0	1.25567136725935	0.0	1770.172119140625	58005.0	-0.4826086956521739	679.0	-183.0	1.1595959595959595	-0.4670658682634731	-527.0	212.0	1.789335543444052	3.4559284389354277	-202.0	-2.5730264352823493	-160.0	
9.599400520133699	1951.0	2120.0	-0.8421966947763259	1275.0	1.4128732430728506	9.692213366033108	-15808.0	-0.7063151440833844	1152.0	2048.0	1.25567136725935	0.0	1789.703369140625	58645.0	-0.4717391304347826	684.0	-192.0	1.1414141414141414	-0.46906187624750506	-526.0	214.0	1.439588811610011	3.81132262396787	-224.0	-2.5999472189145796	-137.0	
9.721435843935213	1951.0	2119.0	-0.8324686319784566	1265.0	1.4141908769388443	9.809932556713672	-16000.0	-0.745554874310239	1216.0	2048.0	1.25567136725935	0.0	1809.234619140625	59285.0	-0.46304347826086956	688.0	-175.0	1.1757575757575758	-0.4211576846307386	-550.0	185.0	0.878448466191691	4.042630458931417	-238.0	-2.153271176677126	-100.0	
9.757889568292546	1951.0	2120.0	-0.8453975333814135	1262.0	1.414426125168388	9.849172286940528	-16064.0	-0.7063151440833844	1152.0	1984.0	1.2164316370324952	0.0	1828.765869140625	59925.0	-0.47391304347826085	683.0	-180.0	1.1656565656565656	-0.43113772455089827	-545.0	85.0	-0.5133211119980491	4.543428735864187	-269.0	-0.6184409333667116	-8.0	
9.793614946860975	1949.0	2125.0	-0.9075642901440842	1259.0	1.4382580969286143	9.966891477621092	-16256.0	-0.7847946045370937	1280.0	2048.0	1.25567136725935	0.0	1848.297119140625	60565.0	-0.4652173913043478	687.0	-180.0	1.1656565656565656	-0.43712574850299407	-542.0	152.0	1.384889246677662	3.5375310225384395	-208.0	-1.6564344437975753	-133.0	
9.720588985554237	1950.0	2125.0	-0.9058485450192914	1265.0	1.4254968019957104	9.770692826486817	-15936.0	-0.745554874310239	1216.0	2112.0	1.2949110974862048	0.0	1867.828369140625	61205.0	-0.4652173913043478	687.0	-180.0	1.1656565656565656	-0.44910179640718567	-536.0	163.0	1.0328376461598776	2.2643780030566463	-121.0	-1.8202143080205342	-111.0	
9.842984164691087	1949.0	2120.0	-0.8475979318598117	1255.0	1.4393514526897582	9.809932556713672	-16000.0	-0.5885959534028203	960.0	2112.0	1.2949110974862048	0.0	1887.359619140625	61845.0	-0.46304347826086956	688.0	-181.0	1.1636363636363636	-0.4610778443113773	-530.0	155.0	0.8171896938993543	2.0646251279081245	-107.0	-1.6963848246956477	-97.0	
9.672917802045198	1954.0	2120.0	-0.8429586999036476	1269.0	1.3774562175274392	9.770692826486817	-15936.0	-0.7847946045370937	1280.0	1920.0	1.1771919068056407	0.0	1906.890869140625	62485.0	-0.48043478260869565	680.0	-188.0	1.1494949494949496	-0.4510978043912176	-535.0	144.0	1.2295973927139683	1.699394454402731	-85.0	-1.533208521455657	-124.0	
9.685234256218934	1956.0	2121.0	-0.8549182945993942	1268.0	1.3533634005800503	9.809932556713672	-16000.0	-0.745554874310239	1216.0	1984.0	1.2164316370324952	0.0	1926.422119140625	63125.0	-0.4565217391304348	691.0	-175.0	1.1757575757575758	-0.44111776447105794	-540.0	103.0	-0.35656448798540785	0.5404705444254874	-2.0	-0.8937727581619711	-21.0	
9.648295687595516	1955.0	2123.0	-0.8787985672165384	1271.0	1.364803404938729	9.770692826486817	-15936.0	-0.745554874310239	1216.0	2048.0	1.25567136725935	0.0	1945.953369140625	63765.0	-0.4652173913043478	687.0	-182.0	1.1616161616161615	-0.4610778443113773	-530.0	41.0	-1.2586932294695765	-0.06414508376721104	40.0	0.058214308720551285	38.0	
9.611354960192541	1953.0	2124.0	-0.8907270284928059	1274.0	1.3884110985941054	9.652973635806253	-15744.0	-0.7847946045370937	1280.0	2112.0	1.2949110974862048	0.0	1965.484619140625	64405.0	-0.4717391304347826	684.0	-173.0	1.1797979797979798	-0.45708582834331346	-532.0	10.0	-1.0683290931232134	0.08365630173123971	28.0	0.527793557090928	26.0	
9.64792503836239	1951.0	2122.0	-0.867562060873765	1271.0	1.4131048345941628	9.731453096259962	-15872.0	-0.7063151440833844	1152.0	2176.0	1.3341508277130594	0.0	1985.015869140625	65045.0	-0.4652173913043478	687.0	-176.0	1.1737373737373737	-0.4331337325349302	-544.0	48.0	-0.3741210317858417	1.017977531264652	-36.0	-0.05709529158328227	-19.0	
9.648532712779662	1953.0	2119.0	-0.830514451854296	1271.0	1.3893850018863616	9.692213366033108	-15808.0	-0.6670754138565297	1088.0	2048.0	1.25567136725935	0.0	2004.547119140625	149.0	-0.4608695652173913	689.0	-181.0	1.1636363636363636	-0.44910179640718567	-536.0	92.0	0.29833188046871073	1.4027404706076374	-63.0	-0.7330213416183754	-63.0	
9.68485928942669	1950.0	2118.0	-0.8197781655748673	1268.0	1.4260002088288792	9.731453096259962	-15872.0	-0.6670754138565297	1088.0	2112.0	1.2949110974862048	0.0	2024.078369140625	789.0	-0.4652173913043478	687.0	-175.0	1.1757575757575758	-0.439121756487026	-541.0	65.0	-0.7024230361184216	0.6763569623862451	-11.0	-0.3123674046198044	2.0	
9.733989323293095	1951.0	2116.0	-0.7961441113119606	1264.0	1.414679656939088	9.927651747394236	-16192.0	-0.6670754138565297	1088.0	2048.0	1.25567136725935	0.0	2043.609619140625	1429.0	-0.45869565217391306	690.0	-178.0	1.1696969696969697	-0.43113772455089827	-545.0	37.0	-1.1026425232157038	0.1324553794752369	26.0	0.11749030355915324	28.0	
9.684982119577878	1951.0	2118.0	-0.8195397305754994	1268.0	1.4139556287093005	9.770692826486817	-15936.0	-0.7063151440833844	1152.0	2112.0	1.2949110974862048	0.0	2063.140869140625	2069.0	-0.45869565217391306	690.0	-183.0	1.1595959595959595	-0.471057884231537	-525.0	15.0	-0.3160481821783221	0.18426441290579165	18.0	0.4442251206050532	-23.0	
9.660599189091903	1951.0	2118.0	-0.8190472938670245	1270.0	1.4137167237715256	9.770692826486817	-15936.0	-0.745554874310239	1216.0	2112.0	1.2949110974862048	0.0	2082.672119140625	2709.0	-0.4652173913043478	687.0	-175.0	1.1757575757575758	-0.45508982035928147	-533.0	18.0	-0.20298491764270554	0.7929129584243103	-23.0	0.39746711153384157	-30.0	
9.721071671040763	1950.0	2121.0	-0.8570875596583134	1265.0	1.4259892387041855	9.731453096259962	-15872.0	-0.627835683629675	1024.0	2112.0	1.2949110974862048	0.0	2102.203369140625	3349.0	-0.4608695652173913	689.0	-186.0	1.1535353535353536	-0.44710578842315374	-537.0	32.0	-0.8774578863852381	1.0882534472849652	-39.0	0.19128408456727447	14.0	
9.806657588044057	1952.0	2121.0	-0.8583342181392404	1258.0	1.4027362457472405	9.927651747394236	-16192.0	-0.6670754138565297	1088.0	2112.0	1.2949110974862048	0.0	2121.734619140625	3989.0	-0.46304347826086956	688.0	-186.0	1.1535353535353536	-0.45708582834331346	-532.0	48.0	-0.9246046614273771	1.2212087331170882	-47.0	-0.05159045528686692	17.0	
9.758010239664177	1951.0	2119.0	-0.8332072870411691	1262.0	1.4145492343455068	9.849172286940528	-16064.0	-0.7063151440833844	1152.0	2176.0	1.3341508277130594	0.0	2141.265869140625	4629.0	-0.46956521739130436	685.0	-177.0	1.1717171717171717	-0.45708582834331346	-532.0	87.0	-0.12992485072257762	1.4744828252478717	-66.0	-0.6526931469300367	-35.0	
9.709972724481128	1953.0	2115.0	-0.7829845582645054	1266.0	1.3904747009392742	9.770692826486817	-15936.0	-0.7063151440833844	1152.0	1984.0	1.2164316370324952	0.0	2160.797119140625	5269.0	-0.46956521739130436	685.0	-185.0	1.1555555555555554	-0.44311377245508987	-539.0	137.0	0.7898907975557669	2.130537079492062	-112.0	-1.4223475771770788	-95.0	
9.685960443228277	1957.0	2116.0	-0.7937286278988038	1268.0	1.3419343663460654	9.692213366033108	-15808.0	-0.627835683629675	1024.0	2048.0	1.25567136725935	0.0	2180.328369140625	5909.0	-0.45869565217391306	690.0	-184.0	1.1575757575757575	-0.42914171656686634	-546.0	118.0	0.5755480399355374	1.8940163400911987	-96.0	-1.131230765570458	-81.0	
9.747279783558113	1957.0	2113.0	-0.7583889806492579	1263.0	1.3429009562218592	9.888412017167381	-16128.0	-0.627835683629675	1024.0	1856.0	1.137952176578786	0.0	2199.859619140625	6549.0	-0.4652173913043478	687.0	-176.0	1.1737373737373737	-0.4510978043912176	-535.0	63.0	0.09159007507286968	1.7742997084150054	-88.0	-0.28988928478114695	-49.0	
9.710584716457516	1957.0	2114.0	-0.7698405719267898	1266.0	1.342419489638078	9.809932556713672	-16000.0	-0.6670754138565297	1088.0	1920.0	1.1771919068056407	0.0	2219.390869140625	7189.0	-0.4543478260869565	692.0	-179.0	1.1676767676767676	-0.44710578842315374	-537.0	50.0	0.44563811738861986	1.6817792044301771	-84.0	-0.09571113402559724	-72.0	
9.722530521398127	1955.0	2114.0	-0.770563660279763	1265.0	1.3666281023461229	9.770692826486817	-15936.0	-0.7063151440833844	1152.0	1984.0	1.2164316370324952	0.0	2238.922119140625	7829.0	-0.45869565217391306	690.0	-185.0	1.1555555555555554	-0.4590818363273454	-531.0	61.0	0.6330207334206245	2.170182013251631	-117.0	-0.26488534041405415	-84.0	
9.61316718954657	1954.0	2110.0	-0.719825144730015	1274.0	1.3780900469541892	9.652973635806253	-15744.0	-0.5885959534028203	960.0	2048.0	1.25567136725935	0.0	2258.453369140625	8469.0	-0.46304347826086956	688.0	-177.0	1.1717171717171717	-0.45708582834331346	-532.0	94.0	2.074077554017119	2.5097506091130173	-145.0	-0.7811970493044299	-178.0	
9.588060230830804	1954.0	2116.0	-0.7924741860630071	1276.0	1.3771124869537017	9.692213366033108	-15808.0	-0.627835683629675	1024.0	1984.0	1.2164316370324952	0.0	2277.984619140625	9109.0	-0.45217391304347826	693.0	-179.0	1.1676767676767676	-0.4331337325349302	-544.0	81.0	1.5901341846815082	3.0302769460597836	-178.0	-0.5786389844323665	-146.0	
9.648530554000104	1952.0	2118.0	-0.8185626405134191	1271.0	1.4015526911830594	9.692213366033108	-15808.0	-0.6670754138565297	1088.0	2112.0	1.2949110974862048	0.0	2297.515869140625	9749.0	-0.4543478260869565	692.0	-183.0	1.1595959595959595	-0.47504990019960086	-523.0	27.0	0.43629634450791455	3.467537446160524	-204.0	0.25419216963476876	-70.0	
9.709121548541036	1950.0	2119.0	-0.8324608486235868	1266.0	1.4261160045895356	9.809932556713672	-16000.0	-0.7063151440833844	1152.0	2048.0	1.25567136725935	0.0	2317.047119140625	10389.0	-0.4565217391304348	691.0	-185.0	1.1555555555555554	-0.4331337325349302	-544.0	56.0	0.18457643582127267	3.2928046848826824	-190.0	-0.1843552700616348	-54.0	
9.672185138697179	1950.0	2122.0	-0.8682929325816078	1269.0	1.4253883196515167	9.809932556713672	-16000.0	-0.627835683629675	1024.0	2048.0	1.25567136725935	0.0	2336.578369140625	11029.0	-0.46304347826086956	688.0	-184.0	1.1575757575757575	-0.44910179640718567	-536.0	67.0	0.19546230547400123	3.0138814723495853	-171.0	-0.35176450898629896	-55.0	
9.73289680460974	1948.0	2122.0	-0.8700008943515309	1264.0	1.4500747422351117	9.809932556713672	-16000.0	-0.7063151440833844	1152.0	2176.0	1.3341508277130594	0.0	2356.109619140625	11669.0	-0.4543478260869565	692.0	-185.0	1.1555555555555554	-0.44111776447105794	-540.0	77.0	-0.22743571310268862	2.314766140974466	-122.0	-0.49962678355338386	-28.0	
9.696565910403596	1949.0	2121.0	-0.8568335579492061	1267.0	1.4377949138859893	9.770692826486817	-15936.0	-0.7063151440833844	1152.0	2240.0	1.3733905579399142	0.0	2375.640869140625	12309.0	-0.4673913043478261	686.0	-178.0	1.1696969696969697	-0.45508982035928147	-533.0	56.0	0.10959616503679762	1.9337054706498213	-99.0	-0.18360546735379005	-50.0	
9.842497161645445	1947.0	2122.0	-0.8724552945390364	1255.0	1.4631943945746781	9.927651747394236	-16192.0	-0.7063151440833844	1152.0	2240.0	1.3733905579399142	0.0	2395.172119140625	12949.0	-0.45	694.0	-181.0	1.1636363636363636	-0.45309381237524954	-534.0	56.0	-0.7973832857162075	1.7869361879484673	-85.0	-0.17453567284626	9.0	
9.782634512893416	1951.0	2117.0	-0.8093192310691552	1260.0	1.4150343576375193	9.849172286940528	-16064.0	-0.627835683629675	1024.0	2112.0	1.2949110974862048	0.0	2414.703369140625	13589.0	-0.46304347826086956	688.0	-186.0	1.1535353535353536	-0.4790419161676647	-521.0	95.0	0.2700665442401919	1.6913904042805692	-82.0	-0.7783660646819457	-61.0	
9.830794858227657	1950.0	2121.0	-0.859303524846451	1256.0	1.4270643109241732	9.927651747394236	-16192.0	-0.745554874310239	1216.0	2048.0	1.25567136725935	0.0	2434.234619140625	14229.0	-0.4608695652173913	689.0	-179.0	1.1676767676767676	-0.4590818363273454	-531.0	120.0	0.19952849935382155	1.156786338999286	-45.0	-1.1578888211152112	-57.0	
9.83151241011877	1947.0	2112.0	-0.7503066127823538	1256.0	1.464306033876978	9.927651747394236	-16192.0	-0.5885959534028203	960.0	2112.0	1.2949110974862048	0.0	2453.765869140625	14869.0	-0.4543478260869565	692.0	-183.0	1.1595959595959595	-0.45309381237524954	-534.0	110.0	-0.44616211065147315	0.8957926803030218	-25.0	-0.9993406602623068	-15.0	
9.68437876271972	1951.0	2123.0	-0.8804909622767221	1268.0	1.4133400828237066	9.770692826486817	-15936.0	-0.6670754138565297	1088.0	2112.0	1.2949110974862048	0.0	2473.297119140625	15509.0	-0.4565217391304348	691.0	-186.0	1.1535353535353536	-0.4650698602794412	-528.0	137.0	0.4057739155679852	0.5530737134289367	-5.0	-1.418506408357201	-71.0	
9.68377108830245	1949.0	2126.0	-0.9175385712961912	1268.0	1.4370599155315078	9.770692826486817	-15936.0	-0.745554874310239	1216.0	2048.0	1.25567136725935	0.0	2492.828369140625	16149.0	-0.46304347826086956	688.0	-178.0	1.1696969696969697	-0.43712574850299407	-542.0	135.0	-0.5521679127371256	-0.11610294901722112	44.0	-1.3785087391235793	-9.0	
9.744599108027526	1945.0	2123.0	-0.8831526640441164	1263.0	1.4862048258856169	9.770692826486817	-15936.0	-0.7847946045370937	1280.0	2240.0	1.3733905579399142	0.0	2512.359619140625	16789.0	-0.45217391304347826	693.0	-180.0	1.1656565656565656	-0.43712574850299407	-542.0	69.0	-1.2654746950254132	-0.31650394069847226	58.0	-0.36757338993187516	38.0	
9.744353447725148	1943.0	2123.0	-0.8836295340428519	1263.0	1.5102939861247744	9.849172286940528	-16064.0	-0.6670754138565297	1088.0	2112.0	1.2949110974862048	0.0	2531.890869140625	17429.0	-0.45	694.0	-186.0	1.1535353535353536	-0.44111776447105794	-540.0	111.0	-0.4052406354852311	0.3988002869623069	8.0	-1.0149590004892544	-18.0	
9.806653270484942	1950.0	2119.0	-0.834430595457487	1258.0	1.4270716243406356	9.888412017167381	-16128.0	-0.7063151440833844	1152.0	2112.0	1.2949110974862048	0.0	2551.422119140625	18069.0	-0.4673913043478261	686.0	-189.0	1.1474747474747475	-0.5049900199600799	-508.0	188.0	0.6337812477577811	1.1079611540106424	-41.0	-2.196451880918642	-86.0	
9.78227681633764	1953.0	2122.0	-0.869793592771642	1260.0	1.3903296515127679	9.888412017167381	-16128.0	-0.7063151440833844	1152.0	2048.0	1.25567136725935	0.0	2570.953369140625	18709.0	-0.44782608695652176	695.0	-178.0	1.1696969696969697	-0.4510978043912176	-535.0	263.0	1.097836533482188	1.0763127713057015	-38.0	-3.3417768444222746	-117.0	
9.807622959017108	1952.0	2113.0	-0.7608122474172843	1258.0	1.4037211191641905	9.849172286940528	-16064.0	-0.5885959534028203	960.0	2176.0	1.3341508277130594	0.0	2590.484619140625	19349.0	-0.45217391304347826	693.0	-185.0	1.1555555555555554	-0.4730538922155689	-524.0	246.0	0.5752638280453207	0.742521536325891	-14.0	-3.077995984288058	-83.0	
9.844197354746074	1952.0	2113.0	-0.7615509024799969	1255.0	1.404079476570853	9.927651747394236	-16192.0	-0.5885959534028203	960.0	2048.0	1.25567136725935	0.0	2610.015869140625	19989.0	-0.4608695652173913	689.0	-184.0	1.1575757575757575	-0.4590818363273454	-531.0	231.0	0.20891512055712946	0.7139164198375203	-11.0	-2.8461956150838983	-59.0	
9.686318139784056	1955.0	2111.0	-0.7332542661963168	1268.0	1.3666390724708166	9.770692826486817	-15936.0	-0.5493562231759657	896.0	2048.0	1.25567136725935	0.0	2629.547119140625	20629.0	-0.4543478260869565	692.0	-186.0	1.1535353535353536	-0.43512974051896214	-543.0	221.0	1.1181593101552654	-0.5998284370430768	72.0	-2.703196802227028	-119.0	
9.661090509696661	1955.0	2118.0	-0.8180935538695533	1270.0	1.3655384032932105	9.731453096259962	-15872.0	-0.627835683629675	1024.0	1984.0	1.2164316370324952	0.0	2649.078369140625	21269.0	-0.45	694.0	-188.0	1.1494949494949496	-0.46307385229540926	-529.0	140.0	-0.40686799465824963	-0.8578066818786247	93.0	-1.4560073656807941	-19.0	
9.746430766397578	1955.0	2118.0	-0.8198170823492159	1263.0	1.366374570575423	9.849172286940528	-16064.0	-0.745554874310239	1216.0	1984.0	1.2164316370324952	0.0	2668.609619140625	21909.0	-0.4608695652173913	689.0	-179.0	1.1676767676767676	-0.4331337325349302	-544.0	126.0	0.15914063691893657	0.27868980319939235	14.0	-1.2487396953425736	-55.0	
9.75898424575546	1955.0	2115.0	-0.78349256168272	1262.0	1.3668633505756667	9.770692826486817	-15936.0	-0.745554874310239	1216.0	2048.0	1.25567136725935	0.0	2688.140869140625	22549.0	-0.4652173913043478	687.0	-181.0	1.1636363636363636	-0.44910179640718567	-536.0	193.0	1.2919429620546294	1.005224908798135	-37.0	-2.279079125438037	-129.0	
9.74740477248886	1959.0	2114.0	-0.7701023569907668	1263.0	1.318688686805583	9.888412017167381	-16128.0	-0.6670754138565297	1088.0	1984.0	1.2164316370324952	0.0	2707.672119140625	23189.0	-0.45217391304347826	693.0	-182.0	1.1616161616161615	-0.4510978043912176	-535.0	218.0	1.5105605628908632	0.22560805435266973	15.0	-2.6614934383285287	-144.0	
9.759714750323923	1958.0	2112.0	-0.746206517663883	1262.0	1.3310989377482867	9.849172286940528	-16064.0	-0.627835683629675	1024.0	1984.0	1.2164316370324952	0.0	2727.203369140625	23829.0	-0.45217391304347826	693.0	-182.0	1.1616161616161615	-0.44710578842315374	-537.0	203.0	0.9693629727361743	-0.4055202335752762	59.0	-2.4279445802977047	-109.0	
9.735327502278832	1956.0	2110.0	-0.7218104582736546	1264.0	1.3551954114039066	9.770692826486817	-15936.0	-0.627835683629675	1024.0	1920.0	1.1771919068056407	0.0	2746.734619140625	24469.0	-0.44565217391304346	696.0	-186.0	1.1535353535353536	-0.45309381237524954	-534.0	132.0	0.26043778196761863	-1.7786833014751806	151.0	-1.3410074196447712	-63.0	
9.735202513348083	1954.0	2109.0	-0.7100970819321457	1264.0	1.379407680820183	9.888412017167381	-16128.0	-0.627835683629675	1024.0	1984.0	1.2164316370324952	0.0	2766.265869140625	25109.0	-0.4565217391304348	691.0	-186.0	1.1535353535353536	-0.48103792415169666	-520.0	83.0	0.16522794902816834	-2.8363493416548433	220.0	-0.5948081730264034	-57.0	
9.68571262414634	1954.0	2115.0	-0.7822536865566626	1268.0	1.3781912158819203	9.692213366033108	-15808.0	-0.627835683629675	1024.0	2176.0	1.3341508277130594	0.0	2785.797119140625	25749.0	-0.45869565217391306	690.0	-180.0	1.1656565656565656	-0.45508982035928147	-533.0	62.0	-1.0761944817908868	-4.5168449443998115	337.0	-0.2630023137372242	23.0	
9.636091269675179	1949.0	2117.0	-0.8068414808170405	1272.0	1.4376900882500268	9.731453096259962	-15872.0	-0.745554874310239	1216.0	2176.0	1.3341508277130594	0.0	2805.328369140625	26389.0	-0.44782608695652176	695.0	-187.0	1.1515151515151516	-0.4271457085828344	-547.0	47.0	-2.031940109337523	-5.164098200169655	384.0	-0.025307975332480286	85.0	
9.574526269042964	1947.0	2120.0	-0.8426579980653219	1277.0	1.4608126586133905	9.652973635806253	-15744.0	-0.7063151440833844	1152.0	2240.0	1.3733905579399142	0.0	2824.859619140625	27029.0	-0.45	694.0	-186.0	1.1535353535353536	-0.4830339321357286	-519.0	72.0	-0.16183540405519314	-3.4799479124069084	264.0	-0.4242371592674329	-36.0	
9.562334803799978	1947.0	2120.0	-0.8424117797110845	1278.0	1.460693206144503	9.692213366033108	-15808.0	-0.6670754138565297	1088.0	2304.0	1.4126302881667687	0.0	2844.390869140625	27669.0	-0.4543478260869565	692.0	-180.0	1.1656565656565656	-0.4211576846307386	-550.0	81.0	0.6198798945393478	-1.9096896072203846	156.0	-0.5689364415309448	-86.0	
9.660235016197452	1950.0	2120.0	-0.8436662215468813	1270.0	1.4255150855368668	9.849172286940528	-16064.0	-0.7063151440833844	1152.0	2112.0	1.2949110974862048	0.0	2863.922119140625	28309.0	-0.44565217391304346	696.0	-179.0	1.1676767676767676	-0.42315369261477054	-549.0	134.0	0.14509020700126085	-1.0048206890650766	100.0	-1.370272194845678	-55.0	
9.708632386715836	1947.0	2120.0	-0.8453663999619346	1266.0	1.462126635771153	9.770692826486817	-15936.0	-0.5885959534028203	960.0	2304.0	1.4126302881667687	0.0	2883.453369140625	28949.0	-0.4543478260869565	692.0	-182.0	1.1616161616161615	-0.4650698602794412	-528.0	121.0	0.5338569775559393	-0.694960015335934	77.0	-1.1764412313725177	-80.0	
9.660469882602039	1947.0	2115.0	-0.7834302948437621	1270.0	1.4622643717811967	9.731453096259962	-15872.0	-0.627835683629675	1024.0	2112.0	1.2949110974862048	0.0	2902.984619140625	29589.0	-0.44782608695652176	695.0	-190.0	1.1454545454545455	-0.43712574850299407	-542.0	162.0	0.7502333254497748	0.07954084778454543	26.0	-1.802179139338148	-94.0	
9.672413528763089	1944.0	2114.0	-0.7722015718558585	1269.0	1.4986406737859392	9.770692826486817	-15936.0	-0.5885959534028203	960.0	2240.0	1.3733905579399142	0.0	2922.515869140625	30229.0	-0.44782608695652176	695.0	-184.0	1.1575757575757575	-0.4331337325349302	-544.0	170.0	0.9380536159066254	0.5660880994089957	-7.0	-1.925730346044998	-106.0	
9.623891169313959	1945.0	2113.0	-0.7587880170992961	1273.0	1.4862413929679292	9.692213366033108	-15808.0	-0.5493562231759657	896.0	2176.0	1.3341508277130594	0.0	2942.047119140625	30869.0	-0.45869565217391306	690.0	-186.0	1.1535353535353536	-0.45309381237524954	-534.0	181.0	1.893483974600632	1.1209748153261816	-48.0	-2.1025850298600752	-168.0	
9.599637545317846	1949.0	2116.0	-0.7939125794140836	1275.0	1.4374548400204832	9.652973635806253	-15744.0	-0.5493562231759657	896.0	2240.0	1.3733905579399142	0.0	2961.578369140625	31509.0	-0.44782608695652176	695.0	-178.0	1.1696969696969697	-0.44311377245508987	-539.0	159.0	1.5454409686605102	1.2817396156026226	-58.0	-1.7645038393444	-145.0	
9.709599916468445	1948.0	2113.0	-0.7597962405808554	1266.0	1.4509438198914055	9.809932556713672	-16000.0	-0.627835683629675	1024.0	2176.0	1.3341508277130594	0.0	2981.109619140625	32149.0	-0.45	694.0	-185.0	1.1555555555555554	-0.42914171656686634	-546.0	162.0	0.8906062963261955	1.838886331290407	-92.0	-1.803582869046912	-102.0	
9.600118072024813	1948.0	2111.0	-0.7331997827122286	1275.0	1.4501149660256554	9.692213366033108	-15808.0	-0.6670754138565297	1088.0	1984.0	1.2164316370324952	0.0	3000.640869140625	32789.0	-0.45	694.0	-187.0	1.1515151515151516	-0.4650698602794412	-528.0	200.0	2.205691073670674	1.9353918427390502	-103.0	-2.3946804848811936	-188.0	
9.673497412328214	1943.0	2104.0	-0.6505375434527811	1269.0	1.5119163456767057	9.770692826486817	-15936.0	-0.5493562231759657	896.0	2240.0	1.3733905579399142	0.0	3020.172119140625	33429.0	-0.45	694.0	-179.0	1.1676767676767676	-0.42514970059880247	-548.0	207.0	1.4250302495592917	2.248856954948423	-120.0	-2.493337754967076	-137.0	
9.66179942646954	1948.0	2105.0	-0.6612893964419493	1270.0	1.4514508834328057	9.731453096259962	-15872.0	-0.5885959534028203	960.0	2176.0	1.3341508277130594	0.0	3039.703369140625	34069.0	-0.45869565217391306	690.0	-180.0	1.1656565656565656	-0.44111776447105794	-540.0	219.0	2.1123952780083037	2.1033692029596267	-113.0	-2.6827209109549885	-182.0	
9.601339897198033	1955.0	2108.0	-0.6949599986959207	1275.0	1.3661722327199606	9.692213366033108	-15808.0	-0.5493562231759657	896.0	2048.0	1.25567136725935	0.0	3059.234619140625	34709.0	-0.44782608695652176	695.0	-182.0	1.1616161616161615	-0.46906187624750506	-526.0	179.0	1.8375212107749006	1.6333982210867115	-82.0	-2.0716071512712473	-164.0	
9.686675836339832	1953.0	2106.0	-0.6727799044938299	1268.0	1.391343778595568	9.809932556713672	-16000.0	-0.5885959534028203	960.0	2112.0	1.2949110974862048	0.0	3078.765869140625	35349.0	-0.44782608695652176	695.0	-179.0	1.1676767676767676	-0.43113772455089827	-545.0	145.0	0.685765927375959	1.048198316995475	-39.0	-1.542979332277562	-89.0	
9.60108560177742	1949.0	2104.0	-0.6476296233311494	1275.0	1.4389321501459083	9.731453096259962	-15872.0	-0.47087676272225626	768.0	1920.0	1.1771919068056407	0.0	3098.297119140625	35989.0	-0.43478260869565216	701.0	-188.0	1.1494949494949496	-0.44710578842315374	-537.0	151.0	0.8671367401395221	0.8593150535636881	-27.0	-1.6360477932569084	-101.0	
9.685936696653137	1946.0	2105.0	-0.6622587031491599	1268.0	1.4757789486097381	9.770692826486817	-15936.0	-0.510116492949111	832.0	2112.0	1.2949110974862048	0.0	3117.828369140625	36629.0	-0.44130434782608696	698.0	-187.0	1.1515151515151516	-0.46307385229540926	-529.0	160.0	0.11341257171363235	0.8272945183684771	-21.0	-1.7653926808502163	-52.0	
9.638151318111142	1953.0	2104.0	-0.6474145383963907	1272.0	1.3911121870742555	9.731453096259962	-15872.0	-0.4316370324954016	704.0	2048.0	1.25567136725935	0.0	3137.359619140625	37269.0	-0.44782608695652176	695.0	-183.0	1.1595959595959595	-0.44910179640718567	-536.0	170.0	1.158464038976437	1.1204626763921224	-45.0	-1.927934450275696	-120.0	
9.600251696073792	1954.0	2116.0	-0.7927204044172446	1275.0	1.3772319394225891	9.731453096259962	-15872.0	-0.7847946045370937	1280.0	1984.0	1.2164316370324952	0.0	3156.890869140625	37909.0	-0.4543478260869565	692.0	-191.0	1.1434343434343435	-0.4610778443113773	-530.0	135.0	1.330029998910175	0.862341353693446	-30.0	-1.3973307182400525	-131.0	
9.759815992679531	1949.0	2102.0	-0.626449969255748	1262.0	1.440731250595683	9.809932556713672	-16000.0	-0.47087676272225626	768.0	2112.0	1.2949110974862048	0.0	3176.422119140625	38549.0	-0.44565217391304346	696.0	-184.0	1.1575757575757575	-0.45508982035928147	-533.0	141.0	-1.5673816138253838	-0.251688937781173	58.0	-1.459611354964408	57.0	
9.722754593904924	1947.0	2104.0	-0.65056867687226	1265.0	1.4642158350739407	9.849172286940528	-16064.0	-0.5493562231759657	896.0	2112.0	1.2949110974862048	0.0	3195.953369140625	39189.0	-0.45	694.0	-179.0	1.1676767676767676	-0.4271457085828344	-547.0	112.0	-1.4679829238593336	0.038592906556503756	37.0	-1.0195407030807984	51.0	
9.552442570956657	1950.0	2104.0	-0.6464063149148316	1279.0	1.4264097601507792	9.652973635806253	-15744.0	-0.510116492949111	832.0	2176.0	1.3341508277130594	0.0	3215.484619140625	39829.0	-0.4391304347826087	699.0	-179.0	1.1676767676767676	-0.42315369261477054	-549.0	117.0	0.960523626837131	0.4723108256481242	-3.0	-1.1198713959641888	-107.0	
9.783586931189118	1945.0	2103.0	-0.6400863923019388	1260.0	1.4890253668346545	9.849172286940528	-16064.0	-0.5493562231759657	896.0	2112.0	1.2949110974862048	0.0	3235.015869140625	40469.0	-0.44565217391304346	696.0	-183.0	1.1595959595959595	-0.471057884231537	-525.0	79.0	-1.3674014448252054	0.38632898369150037	12.0	-0.518645377186729	45.0	
9.709951136685547	1943.0	2105.0	-0.6634664448557382	1266.0	1.5121515939062495	9.849172286940528	-16064.0	-0.47087676272225626	768.0	2304.0	1.4126302881667687	0.0	3254.547119140625	41109.0	-0.4434782608695652	697.0	-181.0	1.1636363636363636	-0.42514970059880247	-548.0	84.0	-0.44416660180765677	0.6999262574156844	-13.0	-0.6039233529933303	-15.0	
9.794933696830686	1945.0	2110.0	-0.7256643350378877	1259.0	1.4882830550637107	9.888412017167381	-16128.0	-0.5493562231759657	896.0	2304.0	1.4126302881667687	0.0	3274.078369140625	41749.0	-0.4434782608695652	697.0	-187.0	1.1515151515151516	-0.42514970059880247	-548.0	127.0	-0.4459457614683268	1.1759848951893357	-43.0	-1.257897956833986	-15.0	
9.758964816739436	1946.0	2106.0	-0.6759262596148294	1262.0	1.4763725542459445	9.927651747394236	-16192.0	-0.47087676272225626	768.0	2176.0	1.3341508277130594	0.0	3293.609619140625	42389.0	-0.44782608695652176	695.0	-185.0	1.1555555555555554	-0.4451097804391218	-538.0	121.0	0.07473924516988313	0.9711774873838626	-32.0	-1.1718500540486572	-49.0	
9.69679430046951	1943.0	2113.0	-0.7607421972234567	1267.0	1.511047268020412	9.809932556713672	-16000.0	-0.5493562231759657	896.0	2176.0	1.3341508277130594	0.0	3313.140869140625	43029.0	-0.44130434782608696	698.0	-179.0	1.1676767676767676	-0.4331337325349302	-544.0	125.0	0.2944730916831191	-0.016195271885598942	33.0	-1.2348838944149303	-64.0	
9.782134557170428	1943.0	2113.0	-0.7624657257031193	1260.0	1.5118834353026243	9.849172286940528	-16064.0	-0.627835683629675	1024.0	2240.0	1.3733905579399142	0.0	3332.672119140625	43669.0	-0.43043478260869567	703.0	-186.0	1.1535353535353536	-0.43512974051896214	-543.0	133.0	-1.541382936063537	-0.8430730120824004	97.0	-1.338198337939745	55.0	
9.709233584794433	1946.0	2114.0	-0.7724633569198355	1266.0	1.4749098709534443	9.770692826486817	-15936.0	-0.5885959534028203	960.0	2176.0	1.3341508277130594	0.0	3352.203369140625	44309.0	-0.45217391304347826	693.0	-187.0	1.1515151515151516	-0.4790419161676647	-521.0	122.0	-1.4696846550576717	-1.5144253925670752	141.0	-1.1716149405216667	50.0	
9.734342702289757	1947.0	2109.0	-0.7117661269277201	1264.0	1.4637197416572343	9.809932556713672	-16000.0	-0.5493562231759657	896.0	2176.0	1.3341508277130594	0.0	3371.734619140625	44949.0	-0.44565217391304346	696.0	-178.0	1.1696969696969697	-0.4211576846307386	-550.0	147.0	-0.6245545132509325	-1.0332996937771313	106.0	-1.5602943788218635	-5.0	
9.74640486104288	1943.0	2106.0	-0.6763953462586952	1263.0	1.5123868421357933	9.809932556713672	-16000.0	-0.510116492949111	832.0	2240.0	1.3733905579399142	0.0	3391.265869140625	45589.0	-0.43478260869565216	701.0	-180.0	1.1656565656565656	-0.4191616766467066	-551.0	160.0	0.053619481063595265	-0.5478542273498664	71.0	-1.764794749943716	-49.0	
9.783461942258372	1943.0	2102.0	-0.6283730159604298	1260.0	1.5132376362509306	9.849172286940528	-16064.0	-0.5493562231759657	896.0	2240.0	1.3733905579399142	0.0	3410.797119140625	46229.0	-0.44782608695652176	695.0	-182.0	1.1616161616161615	-0.4510978043912176	-535.0	216.0	0.08316440254681294	0.18880556334145943	24.0	-2.6168012257745175	-51.0	
9.868920711551361	1942.0	2100.0	-0.6059544867589712	1253.0	1.5263646020069594	9.927651747394236	-16192.0	-0.510116492949111	832.0	2240.0	1.3733905579399142	0.0	3430.328369140625	46869.0	-0.44782608695652176	695.0	-183.0	1.1595959595959595	-0.4171656686626747	-552.0	174.0	-0.7492987903249865	0.7159462944550135	-9.0	-1.9696933238838228	4.0	
9.857461909656392	1946.0	2098.0	-0.5803740357267735	1254.0	1.4783130474139945	9.966891477621092	-16256.0	-0.47087676272225626	768.0	2176.0	1.3341508277130594	0.0	3449.859619140625	47509.0	-0.43695652173913047	700.0	-188.0	1.1494949494949496	-0.4171656686626747	-552.0	120.0	0.8493745283658769	1.6812721978088325	-83.0	-1.1643872814053318	-99.0	
9.832354950940628	1946.0	2104.0	-0.6530230770597656	1256.0	1.4773354874135072	9.966891477621092	-16256.0	-0.510116492949111	832.0	2304.0	1.4126302881667687	0.0	3469.390869140625	48149.0	-0.4391304347826087	699.0	-183.0	1.1595959595959595	-0.44710578842315374	-537.0	87.0	0.21758262286464589	0.9255586739017931	-31.0	-0.6561682216659088	-58.0	
9.831867947894986	1944.0	2106.0	-0.67788043973899	1256.0	1.5011784292984272	9.888412017167381	-16128.0	-0.47087676272225626	768.0	2176.0	1.3341508277130594	0.0	3488.922119140625	48789.0	-0.44130434782608696	698.0	-187.0	1.1515151515151516	-0.4191616766467066	-551.0	38.0	0.007316997908735225	0.6405182080008989	-13.0	0.09118158287262369	-44.0	
9.843203919638766	1939.0	2108.0	-0.7036993257705555	1255.0	1.5612745640109709	10.006131207847945	-16320.0	-0.627835683629675	1024.0	2304.0	1.4126302881667687	0.0	3508.453369140625	49429.0	-0.44782608695652176	695.0	-191.0	1.1434343434343435	-0.4610778443113773	-530.0	66.0	1.4351145420821012	1.1129003581394115	-50.0	-0.3489519058770948	-137.0	
9.794800072781705	1939.0	2105.0	-0.666143713332872	1259.0	1.5611660816667772	9.849172286940528	-16064.0	-0.47087676272225626	768.0	2304.0	1.4126302881667687	0.0	3527.984619140625	50069.0	-0.4391304347826087	699.0	-187.0	1.1515151515151516	-0.4670658682634731	-527.0	120.0	2.288654312784564	1.3412182648432769	-67.0	-1.1787800792495187	-193.0	
9.745672197694859	1939.0	2108.0	-0.7017295789366554	1263.0	1.5603189442598708	9.770692826486817	-15936.0	-0.5493562231759657	896.0	2240.0	1.3733905579399142	0.0	3547.515869140625	50709.0	-0.44565217391304346	696.0	-188.0	1.1494949494949496	-0.43113772455089827	-545.0	125.0	1.2809837821180123	0.40989620774828833	0.0	-1.244749001319279	-128.0	
9.696789982910392	1941.0	2111.0	-0.7368385745417032	1267.0	1.535382646613807	9.809932556713672	-16000.0	-0.627835683629675	1024.0	2368.0	1.4518700183936235	0.0	3567.047119140625	51349.0	-0.43478260869565216	701.0	-180.0	1.1656565656565656	-0.4191616766467066	-551.0	116.0	1.0155758129590713	-0.17680683269438943	40.0	-1.105212792350123	-111.0	
9.647657790264429	1939.0	2112.0	-0.7485208174637333	1271.0	1.5588708878002955	9.809932556713672	-16000.0	-0.5493562231759657	896.0	2304.0	1.4126302881667687	0.0	3586.578369140625	51989.0	-0.44565217391304346	696.0	-181.0	1.1636363636363636	-0.44710578842315374	-537.0	67.0	0.5083646410928766	-0.9959025272109877	95.0	-0.3548935323424877	-78.0	
9.671795060448028	1937.0	2112.0	-0.749490124170944	1269.0	1.5831989529772281	9.731453096259962	-15872.0	-0.5885959534028203	960.0	2240.0	1.3733905579399142	0.0	3606.109619140625	52629.0	-0.44782608695652176	695.0	-178.0	1.1696969696969697	-0.4211576846307386	-550.0	115.0	0.7924649713148642	-1.0164593967781423	97.0	-1.087772558458396	-97.0	
9.48831324860637	1934.0	2114.0	-0.7708926465359737	1284.0	1.6172946879484142	9.53525444512569	-15552.0	-0.510116492949111	832.0	2432.0	1.491109748620478	0.0	3625.640869140625	53269.0	-0.4391304347826087	699.0	-188.0	1.1494949494949496	-0.42514970059880247	-548.0	149.0	1.157689604491809	-0.8112995681271068	83.0	-1.6085350709498614	-121.0	
9.574256862165445	1934.0	2109.0	-0.7116649433144137	1277.0	1.6187464011162207	9.613733905579398	-15680.0	-0.5885959534028203	960.0	2304.0	1.4126302881667687	0.0	3645.172119140625	53909.0	-0.44782608695652176	695.0	-184.0	1.1575757575757575	-0.44710578842315374	-537.0	200.0	0.6051585181424389	-0.0371691123856899	36.0	-2.3786751593259114	-85.0	
9.587060319384822	1938.0	2108.0	-0.6987671753309355	1276.0	1.5708106422839119	9.692213366033108	-15808.0	-0.5885959534028203	960.0	2304.0	1.4126302881667687	0.0	3664.703369140625	54549.0	-0.43695652173913047	700.0	-181.0	1.1636363636363636	-0.43512974051896214	-543.0	192.0	0.8541143174393	0.18051670380117227	20.0	-2.2594917135165984	-101.0	
9.587797300291959	1944.0	2108.0	-0.6973365653347288	1276.0	1.4985431615664393	9.613733905579398	-15680.0	-0.5885959534028203	960.0	2240.0	1.3733905579399142	0.0	3684.234619140625	55189.0	-0.4391304347826087	699.0	-188.0	1.1494949494949496	-0.44311377245508987	-539.0	157.0	-0.12354502657062014	0.10732898849385601	28.0	-1.7173957284415182	-37.0	
9.672277745934553	1937.0	2108.0	-0.7007291388099659	1269.0	1.5836913896857032	9.809932556713672	-16000.0	-0.5493562231759657	896.0	2496.0	1.5303494788473329	0.0	3703.765869140625	55829.0	-0.44130434782608696	698.0	-179.0	1.1676767676767676	-0.4451097804391218	-538.0	121.0	-0.6698252036584985	0.18341896312726544	24.0	-1.1644044095603732	-1.0	
9.757980016750363	1937.0	2105.0	-0.665881928268895	1262.0	1.5848968844992721	9.809932556713672	-16000.0	-0.4316370324954016	704.0	2368.0	1.4518700183936235	0.0	3723.297119140625	56469.0	-0.45217391304347826	693.0	-181.0	1.1636363636363636	-0.4610778443113773	-530.0	171.0	0.01499206458387991	0.3610764809338034	11.0	-1.9317088560070557	-46.0	
9.66021342840187	1940.0	2110.0	-0.724148108138114	1270.0	1.547191978503842	9.731453096259962	-15872.0	-0.5885959534028203	960.0	2304.0	1.4126302881667687	0.0	3742.828369140625	57109.0	-0.43695652173913047	700.0	-183.0	1.1595959595959595	-0.4171656686626747	-552.0	210.0	0.271079698356025	0.47192654360158853	4.0	-2.5274256258808987	-63.0	
9.722142601928535	1943.0	2105.0	-0.6637126632099758	1265.0	1.512271046375137	9.849172286940528	-16064.0	-0.510116492949111	832.0	2240.0	1.3733905579399142	0.0	3762.359619140625	57749.0	-0.4434782608695652	697.0	-181.0	1.1636363636363636	-0.44910179640718567	-536.0	168.0	0.1884809521703742	0.7819591679964013	-18.0	-1.887816368457065	-57.0	
9.710565287441494	1948.0	2105.0	-0.6622742698588993	1266.0	1.4519286933083557	9.731453096259962	-15872.0	-0.5493562231759657	896.0	2176.0	1.3341508277130594	0.0	3781.890869140625	58389.0	-0.43695652173913047	700.0	-182.0	1.1616161616161615	-0.40918163672654695	-556.0	160.0	0.11326276592156158	0.8123124411034793	-20.0	-1.7653911827922957	-52.0	
9.795407747198979	1941.0	2102.0	-0.6290961043134029	1259.0	1.5374462489589757	9.888412017167381	-16128.0	-0.47087676272225626	768.0	2304.0	1.4126302881667687	0.0	3801.422119140625	59029.0	-0.44782608695652176	695.0	-188.0	1.1494949494949496	-0.4670658682634731	-527.0	137.0	-0.5448196002914137	0.6492200296290029	-7.0	-1.409000473198607	-9.0	
9.710308833241324	1941.0	2100.0	-0.6029920831532513	1266.0	1.5368563000310007	9.770692826486817	-15936.0	-0.510116492949111	832.0	2240.0	1.3733905579399142	0.0	3820.953369140625	59669.0	-0.4391304347826087	699.0	-183.0	1.1595959595959595	-0.45508982035928147	-533.0	181.0	1.0322158700430115	0.9410390154333772	-32.0	-2.093972348814499	-112.0	
9.771266159456266	1941.0	2100.0	-0.6042231749244388	1261.0	1.5374535623754382	9.849172286940528	-16064.0	-0.4316370324954016	704.0	2368.0	1.4518700183936235	0.0	3840.484619140625	60309.0	-0.4326086956521739	702.0	-179.0	1.1676767676767676	-0.43512974051896214	-543.0	194.0	1.0608434469296255	0.9319627775810911	-31.0	-2.291977255762072	-114.0	
9.686415064580546	1944.0	2099.0	-0.5895940951064284	1268.0	1.500606763911608	9.731453096259962	-15872.0	-0.4316370324954016	704.0	2304.0	1.4126302881667687	0.0	3860.015869140625	60949.0	-0.4326086956521739	702.0	-193.0	1.1393939393939394	-0.4510978043912176	-535.0	172.0	1.1678166218543589	0.5513133242330563	-7.0	-1.9584462270550458	-121.0	
9.686658566103366	1945.0	2098.0	-0.5771654137668161	1268.0	1.488685292969148	9.692213366033108	-15808.0	-0.4316370324954016	704.0	2368.0	1.4518700183936235	0.0	3879.547119140625	61589.0	-0.43695652173913047	700.0	-177.0	1.1717171717171717	-0.4451097804391218	-538.0	139.0	0.2495655748877976	0.31028998026015975	12.0	-1.4473625759009694	-61.0	
9.66154513104893	1942.0	2101.0	-0.6139590210771779	1270.0	1.5242108008587532	9.770692826486817	-15936.0	-0.4316370324954016	704.0	2304.0	1.4126302881667687	0.0	3899.078369140625	62229.0	-0.44130434782608696	698.0	-189.0	1.1474747474747475	-0.48103792415169666	-520.0	94.0	-0.038567768768734446	-0.026867447335629485	34.0	-0.7600705960765713	-42.0	
9.61289778266905	1941.0	2099.0	-0.5888320899791066	1274.0	1.5360237894570195	9.731453096259962	-15872.0	-0.47087676272225626	768.0	2304.0	1.4126302881667687	0.0	3918.609619140625	62869.0	-0.43478260869565216	701.0	-187.0	1.1515151515151516	-0.45309381237524954	-534.0	99.0	0.08145118597167186	-0.22708149021614188	47.0	-0.8373164130004012	-50.0	
9.538667266425556	1943.0	2110.0	-0.7209706195976355	1280.0	1.5098637134562305	9.613733905579398	-15680.0	-0.5493562231759657	896.0	2304.0	1.4126302881667687	0.0	3938.140869140625	63509.0	-0.44565217391304346	696.0	-184.0	1.1575757575757575	-0.4451097804391218	-538.0	101.0	0.6816987468287468	-0.02776193044375653	31.0	-0.8737371395595422	-89.0	
9.636925175378805	1944.0	2105.0	-0.6617506997309454	1272.0	1.4993902989733456	9.692213366033108	-15808.0	-0.510116492949111	832.0	2176.0	1.3341508277130594	0.0	3957.672119140625	64149.0	-0.44565217391304346	696.0	-181.0	1.1636363636363636	-0.4211576846307386	-550.0	101.0	-0.11327782288450335	0.28244100252642657	14.0	-0.8657873738624097	-37.0	
9.697759671442558	1943.0	2105.0	-0.6632202265015007	1267.0	1.512032141437362	9.770692826486817	-15936.0	-0.47087676272225626	768.0	2240.0	1.3733905579399142	0.0	3977.203369140625	64789.0	-0.43043478260869567	703.0	-185.0	1.1555555555555554	-0.42914171656686634	-546.0	93.0	-0.2850688935897815	1.3989760182567421	-60.0	-0.7423964593530756	-25.0	
9.734814593878491	1942.0	2100.0	-0.6032460848623585	1264.0	1.5250506248491968	9.809932556713672	-16000.0	-0.47087676272225626	768.0	2240.0	1.3733905579399142	0.0	3996.734619140625	65429.0	-0.4434782608695652	697.0	-182.0	1.1616161616161615	-0.46307385229540926	-529.0	122.0	0.40371093037894373	1.6535370992742422	-79.0	-1.190348896376033	-70.0	
9.698238039369967	1941.0	2099.0	-0.5905556184587692	1267.0	1.536859956739232	9.692213366033108	-15808.0	-0.47087676272225626	768.0	2240.0	1.3733905579399142	0.0	4016.265869140625	533.0	-0.44565217391304346	696.0	-185.0	1.1555555555555554	-0.44710578842315374	-537.0	127.0	0.2613532606559234	1.3066669282269991	-55.0	-1.2649709470552286	-61.0	
9.564022044223256	1946.0	2105.0	-0.6597965196067848	1278.0	1.4745844239208632	9.613733905579398	-15680.0	-0.5493562231759657	896.0	2176.0	1.3341508277130594	0.0	4035.797119140625	1173.0	-0.43043478260869567	703.0	-190.0	1.1454545454545455	-0.4171656686626747	-552.0	50.0	-0.8486609321209432	1.1721622683510053	-44.0	-0.08276814353050162	12.0	
9.636571796382146	1948.0	2112.0	-0.7461286841151857	1272.0	1.4503502142551992	9.652973635806253	-15744.0	-0.5493562231759657	896.0	2176.0	1.3341508277130594	0.0	4055.328369140625	1813.0	-0.44565217391304346	696.0	-180.0	1.1656565656565656	-0.44111776447105794	-540.0	-47.0	-2.1522918023941044	1.3238236000629184	-52.0	1.4055533362748918	98.0	
9.63572277922161	1946.0	2117.0	-0.8075567858151439	1272.0	1.473823828608763	9.731453096259962	-15872.0	-0.6670754138565297	1088.0	2112.0	1.2949110974862048	0.0	4074.859619140625	2453.0	-0.45217391304347826	693.0	-194.0	1.1373737373737374	-0.5149700598802396	-503.0	-109.0	-2.9827360005193553	1.748701486273129	-79.0	2.356823557723825	153.0	
9.719597709226488	1938.0	2121.0	-0.8599487796507268	1265.0	1.5705242001391306	9.770692826486817	-15936.0	-0.5885959534028203	960.0	2368.0	1.4518700183936235	0.0	4094.390869140625	3093.0	-0.4434782608695652	697.0	-188.0	1.1494949494949496	-0.4451097804391218	-538.0	-100.0	-3.302380583448807	2.15123662811927	-104.0	2.2231378742755528	174.0	
9.914760236690348	1928.0	2110.0	-0.7321799135695153	1249.0	1.6942354417854246	10.006131207847945	-16320.0	-0.627835683629675	1024.0	2560.0	1.5695892090741874	0.0	4113.922119140625	3733.0	-0.44565217391304346	696.0	-177.0	1.1717171717171717	-0.4510978043912176	-535.0	-36.0	-3.0180678183607954	2.3952713771077634	-119.0	1.2469107162064217	155.0	
9.866981334487027	1938.0	2112.0	-0.7531911828393765	1253.0	1.5730656123598494	9.966891477621092	-16256.0	-0.627835683629675	1024.0	2368.0	1.4518700183936235	0.0	4133.453369140625	4373.0	-0.44565217391304346	696.0	-178.0	1.1696969696969697	-0.4171656686626747	-552.0	23.0	-1.55222748534894	2.5390374785255743	-133.0	0.334913909834478	59.0	
9.806504534979053	1937.0	2107.0	-0.6912472943663341	1258.0	1.5851284760205846	9.966891477621092	-16256.0	-0.627835683629675	1024.0	2240.0	1.3733905579399142	0.0	4152.984619140625	5013.0	-0.44782608695652176	695.0	-183.0	1.1595959595959595	-0.45708582834331346	-532.0	45.0	-0.30080036766551144	2.16547210659054	-113.0	-0.012201121798630057	-23.0	
9.830025495627146	1929.0	2106.0	-0.6814569647295068	1256.0	1.6818471310921084	9.888412017167381	-16128.0	-0.5493562231759657	896.0	2432.0	1.491109748620478	0.0	4172.515869140625	5653.0	-0.4543478260869565	692.0	-185.0	1.1555555555555554	-0.4510978043912176	-535.0	40.0	-0.5520541399660214	1.5202473791300573	-69.0	0.0663570433008009	-7.0	
9.879151211934435	1928.0	2102.0	-0.6339192877848467	1252.0	1.6948619577957122	9.966891477621092	-16256.0	-0.47087676272225626	768.0	2624.0	1.6088289393010422	0.0	4192.047119140625	6293.0	-0.43695652173913047	700.0	-186.0	1.1535353535353536	-0.439121756487026	-541.0	38.0	-1.3537797989567004	1.1250556425140075	-39.0	0.10479255084127805	45.0	
9.6967791890126	1936.0	2106.0	-0.6770795178373197	1267.0	1.5962210930972947	9.770692826486817	-15936.0	-0.510116492949111	832.0	2432.0	1.491109748620478	0.0	4211.578369140625	6933.0	-0.4391304347826087	699.0	-191.0	1.1434343434343435	-0.439121756487026	-541.0	91.0	0.04649454226840603	0.7599898194098259	-19.0	-0.7152938427610872	-47.0	
9.635703350205587	1937.0	2108.0	-0.6999904837472534	1272.0	1.5833330322790407	9.652973635806253	-15744.0	-0.5493562231759657	896.0	2304.0	1.4126302881667687	0.0	4231.109619140625	7573.0	-0.44565217391304346	696.0	-195.0	1.1353535353535353	-0.439121756487026	-541.0	120.0	0.5772605274178502	0.5607810474172442	-7.0	-1.1616661413958516	-82.0	
9.514400689752092	1941.0	2107.0	-0.6843843138671626	1282.0	1.5340832962889694	9.574494175352545	-15616.0	-0.5885959534028203	960.0	2240.0	1.3733905579399142	0.0	4250.640869140625	8213.0	-0.44130434782608696	698.0	-181.0	1.1636363636363636	-0.42315369261477054	-549.0	89.0	0.670209739690613	0.1756323766986838	17.0	-0.6911127437847389	-88.0	
9.586327656036802	1934.0	2110.0	-0.7241014080088957	1276.0	1.6187427444079894	9.613733905579398	-15680.0	-0.510116492949111	832.0	2496.0	1.5303494788473329	0.0	4270.172119140625	8853.0	-0.4326086956521739	702.0	-184.0	1.1575757575757575	-0.4590818363273454	-531.0	50.0	-0.9466750793628262	0.579283903074003	-4.0	-0.08178800205808277	18.0	
9.67130158106371	1932.0	2111.0	-0.7384920528275383	1269.0	1.6435449627522407	9.731453096259962	-15872.0	-0.5885959534028203	960.0	2432.0	1.491109748620478	0.0	4289.703369140625	9493.0	-0.44565217391304346	696.0	-182.0	1.1616161616161615	-0.4451097804391218	-538.0	133.0	0.615775286581135	1.5405219090548137	-72.0	-1.3597699201661917	-84.0	
9.709218473337526	1939.0	2107.0	-0.6888006775336983	1266.0	1.560083696030327	9.809932556713672	-16000.0	-0.47087676272225626	768.0	2368.0	1.4518700183936235	0.0	4309.234619140625	10133.0	-0.4391304347826087	699.0	-180.0	1.1656565656565656	-0.4271457085828344	-547.0	192.0	2.01721476491025	2.9181556173048704	-168.0	-2.271122717991308	-175.0	
9.74676903393733	1944.0	2104.0	-0.6517764185788385	1263.0	1.5005884803704521	9.809932556713672	-16000.0	-0.47087676272225626	768.0	2240.0	1.3733905579399142	0.0	4328.765869140625	10773.0	-0.43695652173913047	700.0	-185.0	1.1555555555555554	-0.42914171656686634	-546.0	208.0	2.091265819359473	2.8927504967231346	-166.0	-2.5152092361403633	-180.0	
9.735305914483249	1946.0	2100.0	-0.6022923448648874	1264.0	1.4768723043708818	9.888412017167381	-16128.0	-0.47087676272225626	768.0	2176.0	1.3341508277130594	0.0	4348.297119140625	11413.0	-0.44130434782608696	698.0	-180.0	1.1656565656565656	-0.4610778443113773	-530.0	180.0	0.8123439606890712	1.9602314864298376	-99.0	-2.076564504245674	-97.0	
9.820758207437564	1942.0	2095.0	-0.5440183816407986	1257.0	1.5265023380170033	9.809932556713672	-16000.0	-0.3139178418148375	512.0	2368.0	1.4518700183936235	0.0	4367.828369140625	12053.0	-0.44565217391304346	696.0	-190.0	1.1454545454545455	-0.4770459081836328	-522.0	154.0	0.5797905068731337	1.330914558899841	-57.0	-1.6788017073501003	-82.0	
9.808691731125322	1944.0	2096.0	-0.55548553962807	1258.0	1.5021706161318396	9.888412017167381	-16128.0	-0.39239730226854685	640.0	2176.0	1.3341508277130594	0.0	4387.359619140625	12693.0	-0.43695652173913047	700.0	-186.0	1.1535353535353536	-0.4331337325349302	-544.0	151.0	1.743292413247439	0.9932371674410142	-40.0	-1.644809349987988	-158.0	
9.699464182102304	1950.0	2098.0	-0.5762194571242146	1267.0	1.428581844840142	9.692213366033108	-15808.0	-0.3531575720416922	576.0	2176.0	1.3341508277130594	0.0	4406.890869140625	13333.0	-0.44782608695652176	695.0	-181.0	1.1636363636363636	-0.43712574850299407	-542.0	96.0	0.5848634743378193	-0.5787866592541047	68.0	-0.7967231594582073	-83.0	
9.735917906459639	1950.0	2099.0	-0.5891483585271717	1264.0	1.4288170930696855	9.809932556713672	-16000.0	-0.510116492949111	832.0	2112.0	1.2949110974862048	0.0	4426.422119140625	13973.0	-0.44130434782608696	698.0	-179.0	1.1676767676767676	-0.42315369261477054	-549.0	29.0	-1.1415303330343	-2.343468067554259	191.0	0.2395521854596206	29.0	
9.637657838726827	1948.0	2103.0	-0.6364164670529852	1272.0	1.4514581968492681	9.652973635806253	-15744.0	-0.4316370324954016	704.0	2176.0	1.3341508277130594	0.0	4445.953369140625	14613.0	-0.43695652173913047	700.0	-187.0	1.1515151515151516	-0.45708582834331346	-532.0	4.0	-1.2873011596965402	-3.4879618283514238	267.0	0.6212380306083722	38.0	
9.576086361755939	1943.0	2103.0	-0.6363775502786365	1277.0	1.5110838351027245	9.652973635806253	-15744.0	-0.47087676272225626	768.0	2176.0	1.3341508277130594	0.0	4465.484619140625	15253.0	-0.44565217391304346	696.0	-179.0	1.1676767676767676	-0.4510978043912176	-535.0	3.0	-1.1450776384971024	-3.0936713492465158	240.0	0.6350249208716631	29.0	
9.515484573317215	1940.0	2097.0	-0.5627202854640853	1282.0	1.5473589681797357	9.574494175352545	-15616.0	-0.3531575720416922	576.0	2368.0	1.4518700183936235	0.0	4485.015869140625	15893.0	-0.44782608695652176	695.0	-187.0	1.1515151515151516	-0.44311377245508987	-539.0	33.0	-0.018469169913047853	-2.014402063232053	164.0	0.16748507192726736	-44.0	
9.45416739176694	1941.0	2101.0	-0.6100117440545079	1287.0	1.5342246890072442	9.53525444512569	-15552.0	-0.4316370324954016	704.0	2304.0	1.4126302881667687	0.0	4504.547119140625	16533.0	-0.4391304347826087	699.0	-186.0	1.1535353535353536	-0.44910179640718567	-536.0	46.0	-0.26446607691817325	-0.32520401721536885	53.0	-0.02777359018138861	-27.0	
9.52769330879667	1948.0	2105.0	-0.6585809945453366	1281.0	1.450136906275043	9.613733905579398	-15680.0	-0.47087676272225626	768.0	2176.0	1.3341508277130594	0.0	4524.078369140625	17173.0	-0.44565217391304346	696.0	-181.0	1.1636363636363636	-0.44311377245508987	-539.0	24.0	-1.0481435214107306	0.7804236686200037	-18.0	0.31466394471981074	25.0	
9.503433208461884	1949.0	2105.0	-0.6578501228374938	1283.0	1.4378534212176892	9.574494175352545	-15616.0	-0.5885959534028203	960.0	2112.0	1.2949110974862048	0.0	4543.609619140625	17813.0	-0.43478260869565216	701.0	-186.0	1.1535353535353536	-0.4191616766467066	-551.0	17.0	-1.2265221326500009	1.253347881021081	-49.0	0.4229116091591997	37.0	
9.562813171727385	1945.0	2114.0	-0.769747171668353	1278.0	1.485521021446373	9.613733905579398	-15680.0	-0.627835683629675	1024.0	2176.0	1.3341508277130594	0.0	4563.140869140625	18453.0	-0.43695652173913047	700.0	-187.0	1.1515151515151516	-0.42315369261477054	-549.0	-4.0	-2.28560539119902	0.9244793129655788	-23.0	0.7528940767256785	106.0	
9.550860890448101	1944.0	2111.0	-0.7331686492927497	1279.0	1.4978154766284204	9.731453096259962	-15872.0	-0.5885959534028203	960.0	2176.0	1.3341508277130594	0.0	4582.672119140625	19093.0	-0.44565217391304346	696.0	-179.0	1.1676767676767676	-0.43113772455089827	-545.0	-13.0	-2.5386724902728677	0.03706727300245986	37.0	0.8923068769939835	122.0	
9.587187467095129	1941.0	2110.0	-0.7224323630133211	1276.0	1.534430683570938	9.692213366033108	-15808.0	-0.5493562231759657	896.0	2304.0	1.4126302881667687	0.0	4602.203369140625	19733.0	-0.43695652173913047	700.0	-178.0	1.1696969696969697	-0.43512974051896214	-543.0	-27.0	-3.3461377411677007	-1.1146505556514943	117.0	1.1133092861569243	174.0	
9.587053843046148	1935.0	2105.0	-0.6629117413083054	1276.0	1.6073137101740045	9.692213366033108	-15808.0	-0.5493562231759657	896.0	2368.0	1.4518700183936235	0.0	4621.734619140625	20373.0	-0.44782608695652176	695.0	-186.0	1.1535353535353536	-0.4650698602794412	-528.0	-41.0	-4.42562398235378	-1.8426381221817774	170.0	1.3370319052227775	244.0	
9.721153484380345	1932.0	2102.0	-0.6297647091822879	1265.0	1.6451307552218595	9.849172286940528	-16064.0	-0.47087676272225626	768.0	2368.0	1.4518700183936235	0.0	4641.265869140625	21013.0	-0.4434782608695652	697.0	-177.0	1.1717171717171717	-0.43712574850299407	-542.0	-47.0	-4.716900395068108	-1.9009779927115582	175.0	1.4311994222016315	263.0	
9.7448037515183	1928.0	2104.0	-0.6555913785687231	1263.0	1.6933017622837123	9.809932556713672	-16000.0	-0.47087676272225626	768.0	2624.0	1.6088289393010422	0.0	4660.797119140625	21653.0	-0.4434782608695652	697.0	-181.0	1.1636363636363636	-0.4191616766467066	-551.0	-88.0	-4.205996755356991	-2.081419881799927	183.0	2.0496645302912126	230.0	
9.792841266701348	1926.0	2108.0	-0.7058141073453867	1259.0	1.7173762956899448	9.849172286940528	-16064.0	-0.47087676272225626	768.0	2496.0	1.5303494788473329	0.0	4680.328369140625	22293.0	-0.4391304347826087	699.0	-190.0	1.1454545454545455	-0.43712574850299407	-542.0	-88.0	-3.8334149193586584	-1.657576465141633	153.0	2.0459387119312296	206.0	
9.780654119017479	1928.0	2110.0	-0.7294715116729027	1260.0	1.692921464627662	9.809932556713672	-16000.0	-0.5493562231759657	896.0	2560.0	1.5695892090741874	0.0	4699.859619140625	22933.0	-0.44130434782608696	698.0	-182.0	1.1616161616161615	-0.4131736526946108	-554.0	-57.0	-3.128091834492614	-1.2530250275633041	124.0	1.5674025913487286	160.0	
9.792371533892172	1932.0	2118.0	-0.8262859607516251	1259.0	1.6438777232012847	9.888412017167381	-16128.0	-0.7063151440833844	1152.0	2496.0	1.5303494788473329	0.0	4719.390869140625	23573.0	-0.45	694.0	-190.0	1.1454545454545455	-0.45708582834331346	-532.0	-15.0	-3.0231152301531283	-0.8599674747237047	99.0	0.9275695553433564	153.0	
9.731041399664548	1927.0	2116.0	-0.8018665512967875	1264.0	1.7037495798089783	9.770692826486817	-15936.0	-0.627835683629675	1024.0	2688.0	1.648068669527897	0.0	4738.922119140625	24213.0	-0.44782608695652176	695.0	-190.0	1.1454545454545455	-0.4171656686626747	-552.0	-6.0	-1.8689111062170356	-0.41008716539414647	64.0	0.779145384826429	78.0	
9.791513881613405	1926.0	2119.0	-0.8399068170880764	1259.0	1.7160220947416385	9.849172286940528	-16064.0	-0.6670754138565297	1088.0	2624.0	1.6088289393010422	0.0	4758.453369140625	24853.0	-0.45217391304347826	693.0	-182.0	1.1616161616161615	-0.43113772455089827	-545.0	20.0	-1.99330289088878	-0.17571695421293335	50.0	0.38495204031573194	86.0	
9.76774078432426	1929.0	2117.0	-0.8143185827010089	1261.0	1.6798956677993646	9.849172286940528	-16064.0	-0.7063151440833844	1152.0	2624.0	1.6088289393010422	0.0	4777.984619140625	25493.0	-0.4434782608695652	697.0	-181.0	1.1636363636363636	-0.41516966067864275	-553.0	63.0	-1.1157804558080473	0.748887420002998	-14.0	-0.27781557947233776	29.0	
9.878183682181826	1927.0	2109.0	-0.719489447165926	1252.0	1.7060447736754598	9.927651747394236	-16192.0	-0.5493562231759657	896.0	2496.0	1.5303494788473329	0.0	4797.515869140625	26133.0	-0.4543478260869565	692.0	-185.0	1.1555555555555554	-0.4590818363273454	-531.0	92.0	-0.6548083338558912	1.2441914733027406	-48.0	-0.7234899394751294	-1.0	
9.891351312295654	1932.0	2106.0	-0.6819727515025911	1251.0	1.6463106530778098	9.966891477621092	-16256.0	-0.47087676272225626	768.0	2560.0	1.5695892090741874	0.0	4817.047119140625	26773.0	-0.4543478260869565	692.0	-180.0	1.1656565656565656	-0.439121756487026	-541.0	144.0	-0.048016418740449235	1.3235487594880546	-54.0	-1.5204323833411129	-41.0	
9.79369676020056	1931.0	2106.0	-0.6802414396680587	1259.0	1.6573996134462885	9.888412017167381	-16128.0	-0.510116492949111	832.0	2560.0	1.5695892090741874	0.0	4836.578369140625	27413.0	-0.44782608695652176	695.0	-181.0	1.1636363636363636	-0.42514970059880247	-548.0	139.0	0.37540738393335354	0.6163739690612338	-9.0	-1.448620993991425	-69.0	
9.79357177126981	1929.0	2105.0	-0.6685280633265498	1259.0	1.6816118828625648	9.888412017167381	-16128.0	-0.510116492949111	832.0	2560.0	1.5695892090741874	0.0	4856.109619140625	28053.0	-0.44565217391304346	696.0	-186.0	1.1535353535353536	-0.44111776447105794	-540.0	83.0	-0.052150142678736924	-0.01762162557249285	33.0	-0.5926343921093343	-41.0	
9.756881021728331	1931.0	2108.0	-0.7038832772858352	1262.0	1.6567950376853884	9.888412017167381	-16128.0	-0.5493562231759657	896.0	2432.0	1.491109748620478	0.0	4875.640869140625	28693.0	-0.45869565217391306	690.0	-184.0	1.1575757575757575	-0.41516966067864275	-553.0	61.0	0.3804950757123781	-0.06111776319076541	33.0	-0.2623600838369717	-69.0	
9.696044366885022	1931.0	2107.0	-0.6904619391744031	1267.0	1.6563208845180697	9.731453096259962	-15872.0	-0.510116492949111	832.0	2496.0	1.5303494788473329	0.0	4895.172119140625	29333.0	-0.44565217391304346	696.0	-186.0	1.1535353535353536	-0.4111776447105789	-555.0	71.0	0.8364492345008788	-0.35663358991859784	51.0	-0.4190108801777085	-99.0	
9.768587642705238	1930.0	2111.0	-0.7409386696601741	1261.0	1.6685897427424983	9.849172286940528	-16064.0	-0.5493562231759657	896.0	2624.0	1.6088289393010422	0.0	4914.703369140625	29973.0	-0.44565217391304346	696.0	-189.0	1.1474747474747475	-0.4191616766467066	-551.0	90.0	0.18787602385070942	-0.4648515003255146	62.0	-0.7014985321016249	-57.0	
9.647526324995006	1934.0	2108.0	-0.7009520070995943	1271.0	1.6195862251066646	9.770692826486817	-15936.0	-0.5885959534028203	960.0	2496.0	1.5303494788473329	0.0	4934.234619140625	30613.0	-0.4608695652173913	689.0	-176.0	1.1737373737373737	-0.43512974051896214	-543.0	111.0	1.447688351572979	-0.015021141751337286	27.0	-1.0334882903598364	-139.0	
9.647524166215447	1933.0	2107.0	-0.6890001957587175	1271.0	1.631753914403362	9.770692826486817	-15936.0	-0.47087676272225626	768.0	2496.0	1.5303494788473329	0.0	4953.765869140625	31253.0	-0.45	694.0	-188.0	1.1494949494949496	-0.4131736526946108	-554.0	102.0	1.6510786961494042	0.2352126725613077	9.0	-0.898640064528034	-152.0	
9.647884021550784	1932.0	2103.0	-0.6404776453971073	1271.0	1.644290931231416	9.731453096259962	-15872.0	-0.47087676272225626	768.0	2496.0	1.5303494788473329	0.0	4973.297119140625	31893.0	-0.45869565217391306	690.0	-191.0	1.1434343434343435	-0.45508982035928147	-533.0	95.0	0.5461890860526388	0.14293689306157742	20.0	-0.7811272901000702	-80.0	
9.599355185762978	1930.0	2099.0	-0.5912086566179148	1275.0	1.6683947183034982	9.692213366033108	-15808.0	-0.39239730226854685	640.0	2496.0	1.5303494788473329	0.0	4992.828369140625	32533.0	-0.4565217391304348	691.0	-190.0	1.1454545454545455	-0.44910179640718567	-536.0	103.0	0.6932984165877304	-0.37218012362785546	54.0	-0.9042713872077024	-90.0	
9.5385271660379	1934.0	2102.0	-0.6255945638699896	1280.0	1.6192498079493893	9.613733905579398	-15680.0	-0.47087676272225626	768.0	2368.0	1.4518700183936235	0.0	5012.359619140625	33173.0	-0.4434782608695652	697.0	-179.0	1.1676767676767676	-0.4131736526946108	-554.0	97.0	-0.021963798419003207	-1.3905158296943967	125.0	-0.8058640122059241	-44.0	
9.50158212107581	1930.0	2101.0	-0.6136194024645036	1283.0	1.6671928801981606	9.574494175352545	-15616.0	-0.4316370324954016	704.0	2496.0	1.5303494788473329	0.0	5031.890869140625	33813.0	-0.45	694.0	-188.0	1.1494949494949496	-0.43712574850299407	-542.0	-12.0	-0.9530030093640075	-2.531457572542439	201.0	0.8612410567096098	17.0	
9.488418808521095	1927.0	2106.0	-0.675039720809592	1284.0	1.7025916222024158	9.53525444512569	-15552.0	-0.4316370324954016	704.0	2560.0	1.5695892090741874	0.0	5051.422119140625	34453.0	-0.4434782608695652	697.0	-179.0	1.1676767676767676	-0.40319361277445115	-559.0	-79.0	-1.6804522455593598	-2.626535088213888	208.0	1.8875269559156698	65.0	
9.499392766149981	1922.0	2111.0	-0.737429345861891	1283.0	1.7623184293836032	9.574494175352545	-15616.0	-0.5885959534028203	960.0	2688.0	1.648068669527897	0.0	5070.953369140625	35093.0	-0.45217391304347826	693.0	-188.0	1.1494949494949496	-0.45508982035928147	-533.0	-93.0	-2.1597555496578984	-1.6571649523828555	145.0	2.1052477456106478	97.0	
