Device	Device	Device	Device	Device	Device	Device	Device	Device	Device	Device	Device	Device	Device	Device	Device	Device	Device	Device	Device	Device	Device	Device	Device	Device	Device	Device	
Low Noise Accelerometer X	Low Noise Accelerometer X	Low Noise Accelerometer Z	Low Noise Accelerometer Z	Low Noise Accelerometer Y	Low Noise Accelerometer Y	Wide Range Accelerometer X	Wide Range Accelerometer X	Wide Range Accelerometer Z	Wide Range Accelerometer Z	Wide Range Accelerometer Y	Wide Range Accelerometer Y	Event_Marker	Timestamp	Timestamp	Magnetometer Z	Magnetometer Z	Magnetometer X	Magnetometer X	Magnetometer Y	Magnetometer Y	Gyroscope Y	Gyroscope Y	Gyroscope Z	Gyroscope Z	Gyroscope X	Gyroscope X	
CAL	UNCAL	CAL	UNCAL	UNCAL	CAL	CAL	UNCAL	UNCAL	CAL	CAL	UNCAL	CAL	CAL	UNCAL	CAL	UNCAL	UNCAL	CAL	UNCAL	CAL	CAL	UNCAL	UNCAL	CAL	UNCAL	CAL	
m/(s^2)	no units	m/(s^2)	no units	no units	m/(s^2)	m/(s^2)	no units	no units	m/(s^2)	m/(s^2)	no units	no units	ms	no units	local_flux	no units	no units	local_flux	no units	local_flux	deg/s	no units	no units	deg/s	no units	deg/s	
9.671389870741969	1917.0	-0.5470246363741431	2095.0	1269.0	1.8261834113798223	9.652973635806253	-15744.0	640.0	-0.39239730226854685	1.6088289393010422	2624.0	0.0	298.7060546875	9788.0	-0.41304347826086957	711.0	-154.0	1.2181818181818183	-543.0	-0.43512974051896214	-0.12100729355513193	222.0	-257.0	4.4195596567276105	-35.0	-2.706014261665209	
9.721246091617719	1919.0	-0.46220091541064595	2088.0	1265.0	1.803433825256046	9.849172286940528	-16064.0	576.0	-0.3531575720416922	1.6873083997547516	2752.0	0.0	318.2373046875	10428.0	-0.4282608695652174	704.0	-164.0	1.197979797979798	-530.0	-0.4610778443113773	-0.25340141428058083	232.0	-202.0	3.61027023157329	-27.0	-2.856781575210807	
9.673462871855282	1927.0	-0.4593085619987536	2088.0	1269.0	1.706599374423866	9.692213366033108	-15808.0	448.0	-0.27467811158798283	1.6088289393010422	2624.0	0.0	337.7685546875	11068.0	-0.41956521739130437	708.0	-163.0	1.2	-527.0	-0.4670658682634731	-2.1412086836255755	215.0	-74.0	1.812278932436388	95.0	-2.5793483694375086	
9.744538662199897	1917.0	-0.5485019464995682	2095.0	1263.0	1.8269001261931475	9.849172286940528	-16064.0	448.0	-0.27467811158798283	1.6088289393010422	2624.0	0.0	357.2998046875	11708.0	-0.40652173913043477	714.0	-158.0	1.2101010101010101	-538.0	-0.4451097804391218	-2.992558087508227	132.0	59.0	-0.17296444413207573	150.0	-1.3084774609500127	
9.671870397448936	1916.0	-0.48631183967228825	2090.0	1269.0	1.838843537384995	9.849172286940528	-16064.0	576.0	-0.3531575720416922	1.6873083997547516	2752.0	0.0	376.8310546875	12348.0	-0.4260869565217391	705.0	-166.0	1.1939393939393939	-529.0	-0.46307385229540926	-2.3734566168446682	176.0	81.0	-0.5191209281125281	109.0	-1.9838699965691964	
9.610910912454436	1915.0	-0.473128936560224	2089.0	1274.0	1.8504139643372548	9.652973635806253	-15744.0	576.0	-0.3531575720416922	1.8050275904353157	2944.0	0.0	396.3623046875	12988.0	-0.4173913043478261	709.0	-157.0	1.2121212121212122	-531.0	-0.4590818363273454	-3.0470414320447117	149.0	99.0	-0.7585303479541798	153.0	-1.566487760584496	
9.69711098021368	1922.0	-0.4731834200443121	2089.0	1267.0	1.766938070782416	9.692213366033108	-15808.0	448.0	-0.27467811158798283	1.648068669527897	2688.0	0.0	415.8935546875	13628.0	-0.4173913043478261	709.0	-156.0	1.2141414141414142	-541.0	-0.439121756487026	-2.876392087614749	186.0	50.0	-0.013265352964912325	142.0	-2.130931896614347	
9.830967120025056	1918.0	-0.45246506925790686	2087.0	1256.0	1.8166765867727313	9.927651747394236	-16192.0	320.0	-0.19619865113427343	1.765787860208461	2880.0	0.0	435.4248046875	14268.0	-0.4108695652173913	712.0	-157.0	1.2121212121212122	-540.0	-0.44111776447105794	-0.48967844661709636	197.0	-24.0	0.9367566701920957	-13.0	-2.3220994132524604	
9.623608809759089	1926.0	-0.5560840943031274	2096.0	1273.0	1.7171812712509447	9.692213366033108	-15808.0	576.0	-0.3531575720416922	1.6088289393010422	2624.0	0.0	454.9560546875	14908.0	-0.4217391304347826	707.0	-160.0	1.206060606060606	-528.0	-0.4650698602794412	1.4032710573720686	274.0	-40.0	1.091731551148343	-137.0	-3.5121315698893105	
9.673579225667796	1925.0	-0.4232146929767557	2085.0	1269.0	1.7310578621943797	9.809932556713672	-16000.0	448.0	-0.27467811158798283	1.6088289393010422	2624.0	0.0	474.4873046875	15548.0	-0.41304347826086957	711.0	-161.0	1.204040404040404	-542.0	-0.43712574850299407	0.5788150478252451	273.0	-64.0	1.5083254143488132	-83.0	-3.4886778843185566	
9.772203466295059	1928.0	-0.35132765677108535	2079.0	1261.0	1.6966183966494561	9.731453096259962	-15872.0	384.0	-0.23543838136112813	1.5695892090741874	2560.0	0.0	494.0185546875	16188.0	-0.40652173913043477	714.0	-162.0	1.202020202020202	-546.0	-0.42914171656686634	0.28409310189328996	267.0	-36.0	1.1053977667240824	-64.0	-3.3944759120075263	
9.527404472903125	1926.0	-0.42002163772653767	2085.0	1281.0	1.717579852448151	9.692213366033108	-15808.0	448.0	-0.27467811158798283	1.6873083997547516	2752.0	0.0	513.5498046875	16828.0	-0.4108695652173913	712.0	-162.0	1.202020202020202	-529.0	-0.46307385229540926	-0.12070773568423268	255.0	16.0	0.3466613298887925	-38.0	-3.2079183979283292	
9.612871877314351	1929.0	-0.44541035388858596	2087.0	1274.0	1.6820360610173897	9.613733905579398	-15680.0	512.0	-0.3139178418148375	1.5695892090741874	2560.0	0.0	533.0810546875	17468.0	-0.4043478260869565	715.0	-161.0	1.204040404040404	-547.0	-0.4271457085828344	-1.4019989580206307	172.0	50.0	-0.12440022505082271	46.0	-1.9327480712562957	
9.636647133383054	1927.0	-0.4829503996165301	2090.0	1272.0	1.705994798662966	9.731453096259962	-15872.0	448.0	-0.27467811158798283	1.6088289393010422	2624.0	0.0	552.6123046875	18108.0	-0.40869565217391307	713.0	-164.0	1.197979797979798	-533.0	-0.45508982035928147	0.025547136902771966	112.0	-2.0	0.5193508605043726	-46.0	-1.0344760036884193	
9.539483901892718	1930.0	-0.48026534778452656	2090.0	1280.0	1.6689054385531297	9.652973635806253	-15744.0	576.0	-0.3531575720416922	1.5303494788473329	2496.0	0.0	572.1435546875	18748.0	-0.4108695652173913	712.0	-157.0	1.2121212121212122	-533.0	-0.45508982035928147	0.7660433434425101	106.0	-25.0	0.808989720622035	-94.0	-0.9506262129021058	
9.53839138320936	1927.0	-0.554122130824097	2096.0	1280.0	1.7043005238491533	9.53525444512569	-15552.0	576.0	-0.3531575720416922	1.6088289393010422	2624.0	0.0	591.6748046875	19388.0	-0.40652173913043477	714.0	-168.0	1.1898989898989898	-541.0	-0.439121756487026	-1.3369007646669915	73.0	19.0	0.27560842000153873	43.0	-0.4276956311366001	
9.550222993117014	1928.0	-0.6028908995399448	2100.0	1279.0	1.691882959489987	9.613733905579398	-15680.0	704.0	-0.4316370324954016	1.5695892090741874	2560.0	0.0	611.2060546875	20028.0	-0.40217391304347827	716.0	-159.0	1.208080808080808	-548.0	-0.42514970059880247	-2.1495485839059296	89.0	2.0	0.5967751122428921	96.0	-0.6629151605487735	
9.573504769801401	1921.0	-0.6294328739244833	2102.0	1277.0	1.7761877069105758	9.613733905579398	-15680.0	832.0	-0.510116492949111	1.648068669527897	2688.0	0.0	630.7373046875	20668.0	-0.41304347826086957	711.0	-160.0	1.206060606060606	-533.0	-0.45508982035928147	-1.7870381069503274	133.0	-106.0	2.217502848680885	73.0	-1.3357417862308771	
9.757837757583149	1927.0	-0.5585540612003723	2096.0	1262.0	1.7064506682891285	9.652973635806253	-15744.0	704.0	-0.4316370324954016	1.6873083997547516	2752.0	0.0	650.2685546875	21308.0	-0.4152173913043478	710.0	-168.0	1.1898989898989898	-523.0	-0.47504990019960086	-0.12213422044206917	202.0	-230.0	4.002673189259314	-35.0	-2.401820482890636	
9.671639848603464	1921.0	-0.5704513890571609	2097.0	1269.0	1.7777588725472697	9.731453096259962	-15872.0	640.0	-0.39239730226854685	1.6873083997547516	2752.0	0.0	669.7998046875	21948.0	-0.40652173913043477	714.0	-169.0	1.187878787878788	-546.0	-0.42914171656686634	1.814231638101804	243.0	-296.0	4.88235033866044	-161.0	-3.0447582859627675	
9.757842075142266	1929.0	-0.5824576838821257	2098.0	1262.0	1.6821152896957334	9.809932556713672	-16000.0	640.0	-0.39239730226854685	1.5303494788473329	2496.0	0.0	689.3310546875	22588.0	-0.40652173913043477	714.0	-165.0	1.195959595959596	-533.0	-0.45508982035928147	0.648262252558887	290.0	-237.0	4.107537242648332	-86.0	-3.747927489445741	
9.85525312571454	1929.0	-0.5966176770562703	2099.0	1254.0	1.6829478002697147	9.849172286940528	-16064.0	768.0	-0.47087676272225626	1.5695892090741874	2560.0	0.0	708.8623046875	23228.0	-0.4	717.0	-162.0	1.202020202020202	-539.0	-0.44311377245508987	-0.9186392296588541	218.0	-150.0	2.8684434783549095	16.0	-2.6372014404030315	
9.843290050537467	1923.0	-0.5002800979762835	2091.0	1255.0	1.75608070193525	9.966891477621092	-16256.0	768.0	-0.47087676272225626	1.5303494788473329	2496.0	0.0	728.3935546875	23868.0	-0.4043478260869565	715.0	-168.0	1.1898989898989898	-529.0	-0.46307385229540926	-1.1900159445978935	215.0	-76.0	1.776060925296313	33.0	-2.5888602968277854	
9.819154939133426	1926.0	-0.5112626026099496	2092.0	1257.0	1.7195849474616198	9.888412017167381	-16128.0	512.0	-0.3139178418148375	1.6873083997547516	2752.0	0.0	747.9248046875	24508.0	-0.40869565217391307	713.0	-159.0	1.208080808080808	-536.0	-0.44910179640718567	-1.3738933797012893	243.0	-2.0	0.6964477379505096	44.0	-3.0128770357847365	
9.770996752578746	1928.0	-0.47323012017353044	2089.0	1261.0	1.6953873048782684	9.888412017167381	-16128.0	512.0	-0.3139178418148375	1.6088289393010422	2624.0	0.0	767.4560546875	25148.0	-0.40869565217391307	713.0	-161.0	1.204040404040404	-546.0	-0.42914171656686634	-0.03769964824773997	263.0	-34.0	1.0953760745616008	-43.0	-3.3304214826049754	
9.599956383841576	1929.0	-0.5183056135758155	2093.0	1275.0	1.6811779534857898	9.809932556713672	-16000.0	448.0	-0.27467811158798283	1.5303494788473329	2496.0	0.0	786.9873046875	25788.0	-0.4	717.0	-166.0	1.1939393939393939	-527.0	-0.4670658682634731	1.2673198078539922	270.0	-50.0	1.248685335520015	-128.0	-3.449935555492989	
9.79648083686631	1935.0	-0.447673019205942	2087.0	1259.0	1.6115603673332297	9.731453096259962	-15872.0	640.0	-0.39239730226854685	1.491109748620478	2432.0	0.0	806.5185546875	26428.0	-0.40869565217391307	713.0	-163.0	1.2	-529.0	-0.46307385229540926	-0.12907928315016615	274.0	-49.0	1.333315668581824	-37.0	-3.496808066484088	
9.820730143303308	1929.0	-0.3886448342094012	2082.0	1257.0	1.684682298874071	9.966891477621092	-16256.0	384.0	-0.23543838136112813	1.491109748620478	2432.0	0.0	826.0498046875	27068.0	-0.40869565217391307	713.0	-168.0	1.1898989898989898	-544.0	-0.4331337325349302	0.5263341078126715	242.0	-93.0	1.9279013808799865	-79.0	-3.0166701851845907	
9.63810598374042	1932.0	-0.39642650023797954	2083.0	1272.0	1.6466336623049034	9.888412017167381	-16128.0	448.0	-0.27467811158798283	1.5303494788473329	2496.0	0.0	845.5810546875	27708.0	-0.4	717.0	-166.0	1.1939393939393939	-545.0	-0.43113772455089827	1.5628427306103199	251.0	-59.0	1.351490538468091	-147.0	-3.163917400690134	
9.722842883583182	1932.0	-0.45910126041886473	2088.0	1265.0	1.646854283701522	9.731453096259962	-15872.0	512.0	-0.3139178418148375	1.5303494788473329	2496.0	0.0	865.1123046875	28348.0	-0.4043478260869565	715.0	-166.0	1.1939393939393939	-527.0	-0.4670658682634731	-1.1766607298682543	230.0	25.0	0.2700139990755818	31.0	-2.81713073110436	
9.758928117486947	1929.0	-0.47274546681992513	2089.0	1262.0	1.6832232722898022	9.927651747394236	-16192.0	576.0	-0.3531575720416922	1.5695892090741874	2560.0	0.0	884.6435546875	28988.0	-0.4043478260869565	715.0	-170.0	1.185858585858586	-522.0	-0.4770459081836328	-1.5414309696104331	159.0	72.0	-0.4524395847500914	55.0	-1.7336351199616906	
9.686016351213162	1927.0	-0.42298404133225764	2085.0	1268.0	1.7070881544241097	9.731453096259962	-15872.0	512.0	-0.3139178418148375	1.5695892090741874	2560.0	0.0	904.1748046875	29628.0	-0.39565217391304347	719.0	-171.0	1.183838383838384	-544.0	-0.4331337325349302	0.9249128307385911	157.0	-9.0	0.5890789603057945	-105.0	-1.7278803070146105	
9.672973710030083	1924.0	-0.4722141133371015	2089.0	1269.0	1.7426100056054834	9.770692826486817	-15936.0	448.0	-0.27467811158798283	1.6088289393010422	2624.0	0.0	923.7060546875	30268.0	-0.4	717.0	-162.0	1.202020202020202	-532.0	-0.45708582834331346	1.5349810304812614	142.0	-74.0	1.5120054819467192	-144.0	-1.5058441068827595	
9.697483788226364	1927.0	-0.49637173772796217	2091.0	1267.0	1.706468951830285	9.849172286940528	-16064.0	576.0	-0.3531575720416922	1.5303494788473329	2496.0	0.0	943.2373046875	30908.0	-0.40217391304347827	716.0	-160.0	1.206060606060606	-545.0	-0.43113772455089827	2.009543354977664	184.0	-109.0	2.0292649061446566	-175.0	-2.149373000089701	
9.696869637470417	1922.0	-0.49756391272480105	2091.0	1267.0	1.7666918524281787	9.809932556713672	-16000.0	448.0	-0.27467811158798283	1.6088289393010422	2624.0	0.0	962.7685546875	31548.0	-0.3934782608695652	720.0	-171.0	1.183838383838384	-533.0	-0.45508982035928147	1.4786353926703935	157.0	-122.0	2.244692793533572	-140.0	-1.7334175326339285	
9.746615980872328	1929.0	-0.48468949480593215	2090.0	1263.0	1.6829807106437962	9.888412017167381	-16128.0	576.0	-0.3531575720416922	1.5695892090741874	2560.0	0.0	982.2998046875	32188.0	-0.40217391304347827	716.0	-175.0	1.1757575757575758	-524.0	-0.4730538922155689	1.244392808487594	197.0	-133.0	2.4502482193825363	-125.0	-2.339440125803508	
9.734056025175772	1926.0	-0.48515858144979795	2090.0	1264.0	1.7189949985336448	9.809932556713672	-16000.0	384.0	-0.23543838136112813	1.5695892090741874	2560.0	0.0	1001.8310546875	32828.0	-0.39565217391304347	719.0	-175.0	1.1757575757575758	-536.0	-0.44910179640718567	0.8428602981157736	178.0	-96.0	1.9119133080625386	-99.0	-2.046451416669371	
9.770016270148789	1921.0	-0.4870894115093495	2090.0	1261.0	1.7795762565382012	9.888412017167381	-16128.0	576.0	-0.3531575720416922	1.5303494788473329	2496.0	0.0	1021.3623046875	33468.0	-0.391304347826087	721.0	-172.0	1.1818181818181819	-531.0	-0.4590818363273454	0.3952648821004088	184.0	-83.0	1.751813590405639	-70.0	-2.1332302153609284	
9.587260645316478	1919.0	-0.4473022671737888	2087.0	1276.0	1.8022429572754022	9.809932556713672	-16000.0	448.0	-0.27467811158798283	1.6873083997547516	2752.0	0.0	1040.8935546875	34108.0	-0.39565217391304347	719.0	-171.0	1.183838383838384	-534.0	-0.45309381237524954	2.7175170340369483	165.0	-107.0	1.9384459952246618	-221.0	-1.8674793528498754	
9.672111740192198	1916.0	-0.4619313469917993	2088.0	1269.0	1.8390897557392323	9.613733905579398	-15680.0	384.0	-0.23543838136112813	1.7265481299816063	2816.0	0.0	1060.4248046875	34748.0	-0.3934782608695652	720.0	-164.0	1.197979797979798	-544.0	-0.4331337325349302	1.3510848816723648	218.0	-149.0	2.6954781764581304	-132.0	-2.6598986815163435	
9.697348005397824	1920.0	-0.4248993046820696	2085.0	1267.0	1.7915196677300487	9.809932556713672	-16000.0	384.0	-0.23543838136112813	1.7265481299816063	2816.0	0.0	1079.9560546875	35388.0	-0.391304347826087	721.0	-172.0	1.1818181818181819	-536.0	-0.44910179640718567	2.793521268934473	259.0	-194.0	3.2946902383498227	-226.0	-3.297897189875657	
9.69758718936153	1919.0	-0.3885670006607039	2082.0	1267.0	1.8039335753809838	9.770692826486817	-15936.0	320.0	-0.19619865113427343	1.6873083997547516	2752.0	0.0	1099.4873046875	36028.0	-0.3934782608695652	720.0	-167.0	1.1919191919191918	-531.0	-0.4590818363273454	2.9923733205190013	277.0	-208.0	3.501695758375508	-239.0	-3.573649968946635	
9.685033710003646	1919.0	-0.4248915213271999	2085.0	1268.0	1.8034447953807398	9.692213366033108	-15808.0	384.0	-0.23543838136112813	1.648068669527897	2688.0	0.0	1119.0185546875	36668.0	-0.39565217391304347	719.0	-162.0	1.202020202020202	-545.0	-0.43113772455089827	2.3547183557999682	277.0	-149.0	2.6615188227805224	-198.0	-3.5672734192994446	
9.734530075544065	1922.0	-0.3885903507253131	2082.0	1264.0	1.7681581924289098	9.809932556713672	-16000.0	448.0	-0.27467811158798283	1.6873083997547516	2752.0	0.0	1138.5498046875	37308.0	-0.3891304347826087	722.0	-170.0	1.185858585858586	-531.0	-0.4590818363273454	2.8272951235696615	271.0	-124.0	2.250164695926535	-229.0	-3.4807444341254308	
9.625050389879991	1923.0	-0.3739457041975631	2081.0	1273.0	1.7551616492664623	9.652973635806253	-15744.0	384.0	-0.23543838136112813	1.648068669527897	2688.0	0.0	1158.0810546875	37948.0	-0.39565217391304347	719.0	-166.0	1.1939393939393939	-528.0	-0.4650698602794412	3.1477122213621995	268.0	-110.0	2.0161435183893768	-250.0	-3.438321228677501	
9.551410277817302	1919.0	-0.3734221340696092	2081.0	1279.0	1.8026232549314523	9.613733905579398	-15680.0	384.0	-0.23543838136112813	1.6873083997547516	2752.0	0.0	1177.6123046875	38588.0	-0.3804347826086957	726.0	-169.0	1.187878787878788	-537.0	-0.44710578842315374	2.6941128307126374	271.0	-54.0	1.2099589211405684	-221.0	-3.4794126111968606	
9.491801924485888	1929.0	-0.35761644596449926	2080.0	1284.0	1.681703300568346	9.53525444512569	-15552.0	320.0	-0.19619865113427343	1.5695892090741874	2560.0	0.0	1197.1435546875	39228.0	-0.3847826086956522	724.0	-172.0	1.1818181818181819	-539.0	-0.44311377245508987	0.9241626112495241	257.0	1.0	0.500042640002115	-106.0	-3.2487853523482366	
9.53983512210982	1925.0	-0.38393555205940944	2082.0	1280.0	1.7301132125679735	9.574494175352545	-15616.0	192.0	-0.11771919068056406	1.648068669527897	2688.0	0.0	1216.6748046875	39868.0	-0.3804347826086957	726.0	-169.0	1.187878787878788	-531.0	-0.4590818363273454	-1.659669102643192	250.0	56.0	-0.14896893399095834	62.0	-3.1164831568823135	
9.637369002833283	1926.0	-0.3978571102341863	2083.0	1272.0	1.718901143022376	9.692213366033108	-15808.0	320.0	-0.19619865113427343	1.648068669527897	2688.0	0.0	1236.2060546875	40508.0	-0.3847826086956522	724.0	-165.0	1.195959595959596	-548.0	-0.42514970059880247	-1.160960441542219	208.0	44.0	-0.029320342624553936	30.0	-2.4826869735313464	
9.661991117282964	1925.0	-0.36201724292129556	2080.0	1270.0	1.7315539556110862	9.809932556713672	-16000.0	320.0	-0.19619865113427343	1.6088289393010422	2624.0	0.0	1255.7373046875	41148.0	-0.3826086956521739	725.0	-171.0	1.183838383838384	-546.0	-0.42914171656686634	0.4808137052761594	238.0	10.0	0.3844082547635109	-77.0	-2.9553784792580853	
9.527760010679346	1923.0	-0.347595464683174	2079.0	1281.0	1.7544522478695999	9.652973635806253	-15744.0	320.0	-0.19619865113427343	1.648068669527897	2688.0	0.0	1275.2685546875	41788.0	-0.391304347826087	721.0	-164.0	1.197979797979798	-532.0	-0.45708582834331346	1.619278397714996	259.0	-34.0	0.9776169424865486	-151.0	-3.286154761163462	
9.55239076024726	1926.0	-0.3595628427337902	2080.0	1279.0	1.7184343032715197	9.613733905579398	-15680.0	256.0	-0.15695892090741875	1.5695892090741874	2560.0	0.0	1294.7998046875	42428.0	-0.3869565217391304	723.0	-162.0	1.202020202020202	-546.0	-0.42914171656686634	0.8415393174197096	247.0	-52.0	1.2943122697132305	-100.0	-3.095867864657087	
9.649558309296713	1925.0	-0.38615151724754715	2082.0	1271.0	1.731188284787961	9.731453096259962	-15872.0	256.0	-0.15695892090741875	1.6873083997547516	2752.0	0.0	1314.3310546875	43068.0	-0.3891304347826087	722.0	-169.0	1.187878787878788	-545.0	-0.43113772455089827	-0.39839487880846297	238.0	-59.0	1.4800839308364901	-19.0	-2.946586393417239	
9.735139908740894	1925.0	-0.36349455304672074	2080.0	1264.0	1.732270670424411	9.849172286940528	-16064.0	384.0	-0.23543838136112813	1.6088289393010422	2624.0	0.0	1333.8623046875	43708.0	-0.3869565217391304	723.0	-178.0	1.1696969696969697	-523.0	-0.47504990019960086	0.8708209179143159	274.0	-69.0	1.5635726895502549	-102.0	-3.506807068494733	
9.75988917090088	1927.0	-0.3513198734162156	2079.0	1262.0	1.7085435243001474	9.809932556713672	-16000.0	320.0	-0.19619865113427343	1.6088289393010422	2624.0	0.0	1353.3935546875	44348.0	-0.3804347826086957	726.0	-169.0	1.187878787878788	-539.0	-0.44311377245508987	1.5913713878274505	277.0	-70.0	1.530239975649461	-149.0	-3.5596399496197195	
9.662592315361563	1924.0	-0.28911419987919634	2074.0	1270.0	1.7443371907933773	9.770692826486817	-15936.0	192.0	-0.11771919068056406	1.648068669527897	2688.0	0.0	1372.9248046875	44988.0	-0.3782608695652174	727.0	-169.0	1.187878787878788	-540.0	-0.44111776447105794	2.4854586500866938	313.0	-33.0	0.9351900041999686	-208.0	-4.116109339352579	
9.552272247655187	1927.0	-0.38370490041491145	2082.0	1279.0	1.7061435047977034	9.652973635806253	-15744.0	320.0	-0.19619865113427343	1.5303494788473329	2496.0	0.0	1392.4560546875	45628.0	-0.3826086956521739	725.0	-163.0	1.2	-538.0	-0.4451097804391218	1.4491174850451851	294.0	44.0	-0.15866237468005628	-141.0	-3.816772543671745	
9.58970429566292	1933.0	-0.3708226991411727	2081.0	1276.0	1.6343574906640121	9.652973635806253	-15744.0	320.0	-0.19619865113427343	1.491109748620478	2432.0	0.0	1411.9873046875	46268.0	-0.3869565217391304	723.0	-162.0	1.202020202020202	-546.0	-0.42914171656686634	-0.5433687717507345	249.0	79.0	-0.5720993882469813	-11.0	-3.112437034715953	
9.564461554118617	1926.0	-0.3719993074282722	2081.0	1278.0	1.7184306465632886	9.613733905579398	-15680.0	512.0	-0.3139178418148375	1.6088289393010422	2624.0	0.0	1431.5185546875	46908.0	-0.3826086956521739	725.0	-171.0	1.183838383838384	-549.0	-0.42315369261477054	-0.16738041691871364	177.0	-6.0	0.6322923594785932	-34.0	-2.0211398840437407	
9.577267170117553	1931.0	-0.3710533507856708	2081.0	1277.0	1.6583271984342822	9.574494175352545	-15616.0	384.0	-0.23543838136112813	1.5303494788473329	2496.0	0.0	1451.0498046875	47548.0	-0.3847826086956522	724.0	-162.0	1.202020202020202	-535.0	-0.4510978043912176	0.9887505489872572	219.0	-86.0	1.7767772749000916	-109.0	-2.671484463664778	
9.58922592773551	1935.0	-0.4434873071839042	2087.0	1276.0	1.609529675362142	9.613733905579398	-15680.0	512.0	-0.3139178418148375	1.4518700183936235	2368.0	0.0	1470.5810546875	48188.0	-0.3804347826086957	726.0	-166.0	1.1939393939393939	-546.0	-0.42914171656686634	-0.20638679306644364	206.0	-81.0	1.7770875699192512	-31.0	-2.4618144590655335	
9.61470569446396	1940.0	-0.39402658353456227	2083.0	1274.0	1.5500381164104984	9.692213366033108	-15808.0	384.0	-0.23543838136112813	1.4126302881667687	2304.0	0.0	1490.1123046875	48828.0	-0.3739130434782609	729.0	-168.0	1.1898989898989898	-539.0	-0.44311377245508987	-2.082002140238306	242.0	-86.0	2.0044940575074532	91.0	-2.990586822704081	
9.68834148896753	1942.0	-0.37064653098076283	2081.0	1268.0	1.5269118893389033	9.809932556713672	-16000.0	256.0	-0.15695892090741875	1.3733905579399142	2240.0	0.0	1509.6435546875	49468.0	-0.3826086956521739	725.0	-170.0	1.185858585858586	-525.0	-0.471057884231537	-1.940862488437462	232.0	-97.0	2.153504628781386	82.0	-2.839906964469238	
9.639812653179723	1940.0	-0.3213775422015702	2077.0	1272.0	1.551015676410986	9.731453096259962	-15872.0	320.0	-0.19619865113427343	1.4126302881667687	2304.0	0.0	1529.1748046875	50108.0	-0.3804347826086957	726.0	-172.0	1.1818181818181819	-546.0	-0.42914171656686634	-0.5641300270155254	208.0	-152.0	2.867670995157072	-7.0	-2.4886552776766133	
9.603964444460106	1941.0	-0.2594492204382674	2072.0	1275.0	1.5392282847703385	9.692213366033108	-15808.0	128.0	-0.07847946045370938	1.3733905579399142	2240.0	0.0	1548.7060546875	50748.0	-0.3760869565217391	728.0	-169.0	1.187878787878788	-548.0	-0.42514970059880247	-0.11153230510499376	217.0	-213.0	3.7561882075188833	-36.0	-2.630063384173285	
9.641028002014268	1944.0	-0.24728232416263207	2071.0	1272.0	1.5035760109953833	9.652973635806253	-15744.0	64.0	-0.03923973022685469	1.4126302881667687	2304.0	0.0	1568.2373046875	51388.0	-0.3869565217391304	723.0	-165.0	1.195959595959596	-536.0	-0.44910179640718567	-1.063733479764519	189.0	-177.0	3.2656970538103334	26.0	-2.194685859118705	
9.823287988682704	1940.0	-0.26411958581391043	2072.0	1257.0	1.5534230093298922	9.888412017167381	-16128.0	192.0	-0.11771919068056406	1.491109748620478	2432.0	0.0	1587.7685546875	52028.0	-0.3847826086956522	724.0	-165.0	1.195959595959596	-547.0	-0.4271457085828344	-2.286362581442221	147.0	-165.0	3.145330663511111	106.0	-1.5436762981399503	
9.90935011483385	1939.0	-0.1807498249112293	2065.0	1250.0	1.567165520971515	10.006131207847945	-16320.0	64.0	-0.03923973022685469	1.4126302881667687	2304.0	0.0	1607.2998046875	52668.0	-0.3804347826086957	726.0	-172.0	1.1818181818181819	-545.0	-0.43113772455089827	-1.1162877300609808	101.0	-150.0	2.811021106758563	30.0	-0.8557572747906449	
9.811329231064745	1936.0	-0.19168562941567704	2066.0	1258.0	1.6022205324020324	9.888412017167381	-16128.0	64.0	-0.03923973022685469	1.5303494788473329	2496.0	0.0	1626.8310546875	53308.0	-0.3826086956521739	725.0	-165.0	1.195959595959596	-536.0	-0.44910179640718567	0.24764754821955526	99.0	-141.0	2.5799419476190812	-59.0	-0.83897837662288	
9.701868974416694	1946.0	-0.2846072849558176	2074.0	1267.0	1.4797147855693071	9.809932556713672	-16000.0	256.0	-0.15695892090741875	1.3341508277130594	2176.0	0.0	1646.3623046875	53948.0	-0.3869565217391304	723.0	-165.0	1.195959595959596	-548.0	-0.42514970059880247	0.3839110852272886	130.0	-57.0	1.329947006190118	-69.0	-1.3118239017267979	
9.8480264569449	1937.0	-0.19218584947902181	2066.0	1255.0	1.5905343096891162	9.927651747394236	-16192.0	128.0	-0.07847946045370938	1.5303494788473329	2496.0	0.0	1665.8935546875	54588.0	-0.3934782608695652	720.0	-171.0	1.183838383838384	-529.0	-0.46307385229540926	-2.09934200220699	51.0	11.0	0.43523032970107917	93.0	-0.08547045830492632	
9.786584286463876	1936.0	-0.22776393172793552	2069.0	1260.0	1.601612299932901	9.809932556713672	-16000.0	192.0	-0.11771919068056406	1.4126302881667687	2304.0	0.0	1685.4248046875	55228.0	-0.3891304347826087	722.0	-170.0	1.185858585858586	-531.0	-0.4590818363273454	-1.7618176492029485	41.0	20.0	0.27072245080875035	71.0	0.063245552917885	
9.676509879059878	1941.0	-0.32187776226491505	2077.0	1269.0	1.5393294536980697	9.770692826486817	-15936.0	384.0	-0.23543838136112813	1.491109748620478	2432.0	0.0	1704.9560546875	55868.0	-0.3739130434782609	729.0	-172.0	1.1818181818181819	-543.0	-0.43512974051896214	-0.4116547555371379	56.0	2.0	0.4557416561610479	-17.0	-0.1783929581480507	
9.835108804692567	1936.0	-0.2531292978253746	2071.0	1256.0	1.6018438914542137	9.888412017167381	-16128.0	128.0	-0.07847946045370938	1.4518700183936235	2368.0	0.0	1724.4873046875	56508.0	-0.3934782608695652	720.0	-174.0	1.1777777777777778	-526.0	-0.46906187624750506	-1.4217151544094453	-23.0	-38.0	1.0776811733456968	50.0	1.033228558388201	
9.761113154853659	1935.0	-0.32503190074078436	2077.0	1262.0	1.612433101697755	9.849172286940528	-16064.0	256.0	-0.15695892090741875	1.4126302881667687	2304.0	0.0	1744.0185546875	57148.0	-0.3826086956521739	725.0	-166.0	1.1939393939393939	-535.0	-0.4510978043912176	-1.17557043630783	-22.0	-44.0	1.1511128884735915	34.0	1.0155579857319	
9.736618188114285	1939.0	-0.3845369557360607	2082.0	1264.0	1.5634003303960708	9.849172286940528	-16064.0	384.0	-0.23543838136112813	1.4518700183936235	2368.0	0.0	1763.5498046875	57788.0	-0.3826086956521739	725.0	-177.0	1.1717171717171717	-514.0	-0.4930139720558883	-2.6779438860733826	-47.0	-24.0	0.9406188801394699	132.0	1.4108098571116845	
9.833053073815718	1934.0	-0.43645986292777783	2086.0	1256.0	1.6240864140365898	9.849172286940528	-16064.0	576.0	-0.3531575720416922	1.5303494788473329	2496.0	0.0	1783.0810546875	58428.0	-0.3826086956521739	725.0	-174.0	1.1777777777777778	-531.0	-0.4590818363273454	-4.40889649097716	-116.0	29.0	0.2245132964783112	245.0	2.477549040955399	
9.723461351898246	1939.0	-0.48181270810377924	2090.0	1265.0	1.5622960045102334	9.770692826486817	-15936.0	512.0	-0.3139178418148375	1.4126302881667687	2304.0	0.0	1802.6123046875	59068.0	-0.3891304347826087	722.0	-180.0	1.1656565656565656	-526.0	-0.46906187624750506	-2.468200859990291	-117.0	-25.0	0.8984277179414143	119.0	2.4733512101208155	
9.515340155370444	1929.0	-0.44344060705468585	2087.0	1282.0	1.6810804412662896	9.613733905579398	-15680.0	384.0	-0.23543838136112813	1.5695892090741874	2560.0	0.0	1822.1435546875	59708.0	-0.3804347826086957	726.0	-167.0	1.1919191919191918	-548.0	-0.42514970059880247	0.23152085690177565	-112.0	-135.0	2.3627443238346366	-56.0	2.370308365575469	
9.550694884705749	1923.0	-0.4943708574745831	2091.0	1279.0	1.7532138426819497	9.613733905579398	-15680.0	576.0	-0.3531575720416922	1.6088289393010422	2624.0	0.0	1841.6748046875	60348.0	-0.3804347826086957	726.0	-174.0	1.1777777777777778	-543.0	-0.43512974051896214	-1.5031163872126798	-89.0	-147.0	2.6773775164397757	57.0	2.0378448520850547	
9.783666585749144	1926.0	-0.4008117304850365	2083.0	1260.0	1.720334572649026	9.849172286940528	-16064.0	448.0	-0.27467811158798283	1.5695892090741874	2560.0	0.0	1861.2060546875	60988.0	-0.3869565217391304	723.0	-173.0	1.1797979797979798	-525.0	-0.471057884231537	-1.7978091420905205	-11.0	-201.0	3.554935806060964	76.0	0.8544799925615897	
9.74734432666123	1931.0	-0.43545163944621856	2086.0	1263.0	1.6593839871131135	9.888412017167381	-16128.0	384.0	-0.23543838136112813	1.5303494788473329	2496.0	0.0	1880.7373046875	61628.0	-0.3760869565217391	728.0	-173.0	1.1797979797979798	-546.0	-0.42914171656686634	0.5816998256662246	135.0	-256.0	4.302730980827686	-80.0	-1.389847416507613	
9.808788655921813	1933.0	-0.4118253685381815	2084.0	1258.0	1.636138307572631	9.849172286940528	-16064.0	320.0	-0.19619865113427343	1.5303494788473329	2496.0	0.0	1900.2685546875	62268.0	-0.391304347826087	721.0	-174.0	1.1777777777777778	-526.0	-0.46906187624750506	-0.8097223649670411	133.0	-180.0	3.2589269504001677	10.0	-1.3455149436507101	
9.955818902185696	1937.0	-0.3894457561110716	2082.0	1246.0	1.5896396350752036	10.084610668301655	-16448.0	448.0	-0.27467811158798283	1.4518700183936235	2368.0	0.0	1919.7998046875	62908.0	-0.3847826086956522	724.0	-166.0	1.1939393939393939	-532.0	-0.45708582834331346	-0.48732541559917486	100.0	-150.0	2.76663696465301	-11.0	-0.8468377724599779	
9.906684550760174	1934.0	-0.38917618769222484	2082.0	1250.0	1.6252955655583898	9.927651747394236	-16192.0	512.0	-0.3139178418148375	1.491109748620478	2432.0	0.0	1939.3310546875	63548.0	-0.3804347826086957	726.0	-178.0	1.1696969696969697	-534.0	-0.45309381237524954	0.7853692235737891	130.0	-75.0	1.5718705872274685	-95.0	-1.3158384831102627	
9.83415206883775	1940.0	-0.39845851391083753	2083.0	1256.0	1.5521882608504736	9.888412017167381	-16128.0	448.0	-0.27467811158798283	1.3733905579399142	2240.0	0.0	1958.8623046875	64188.0	-0.3869565217391304	723.0	-180.0	1.1656565656565656	-529.0	-0.46307385229540926	-0.5459621844468393	113.0	24.0	0.1699311768380427	-9.0	-1.0439700359502084	
9.784767739550732	1933.0	-0.37476219280897294	2081.0	1260.0	1.6362687301662122	9.809932556713672	-16000.0	256.0	-0.15695892090741875	1.4518700183936235	2368.0	0.0	1978.3935546875	64828.0	-0.391304347826087	721.0	-173.0	1.1797979797979798	-530.0	-0.4610778443113773	-0.32740031700446437	100.0	11.0	0.3417130743425423	-23.0	-0.848437023445925	
9.771475120506155	1926.0	-0.40056551213079894	2083.0	1261.0	1.7202151201801386	9.888412017167381	-16128.0	384.0	-0.23543838136112813	1.5695892090741874	2560.0	0.0	1997.9248046875	65468.0	-0.3847826086956522	724.0	-168.0	1.1898989898989898	-545.0	-0.43113772455089827	1.3279043846471799	104.0	-88.0	1.713195198248101	-130.0	-0.9258265723635821	
9.845720748206558	1931.0	-0.3520896618984071	2079.0	1255.0	1.661201371104045	9.966891477621092	-16256.0	320.0	-0.19619865113427343	1.5303494788473329	2496.0	0.0	2017.4560546875	572.0	-0.3869565217391304	723.0	-174.0	1.1777777777777778	-540.0	-0.44111776447105794	1.7461925907823435	141.0	-152.0	2.666112084684576	-157.0	-1.4927470970104852	
9.832682424582591	1930.0	-0.42522335658500443	2085.0	1256.0	1.6723878436920236	9.888412017167381	-16128.0	448.0	-0.27467811158798283	1.5695892090741874	2560.0	0.0	2036.9873046875	1212.0	-0.3869565217391304	723.0	-176.0	1.1737373737373737	-532.0	-0.45708582834331346	1.3007385750857436	120.0	-127.0	2.309527425074671	-128.0	-1.1689009218725304	
9.821462806651327	1933.0	-0.363310601531441	2080.0	1257.0	1.6367501967499936	9.966891477621092	-16256.0	320.0	-0.19619865113427343	1.5303494788473329	2496.0	0.0	2056.5185546875	1852.0	-0.3804347826086957	726.0	-166.0	1.1939393939393939	-536.0	-0.44910179640718567	1.3744067555498298	153.0	-139.0	2.5043862103192582	-133.0	-1.6715387443615821	
9.846214227590874	1936.0	-0.36308773324181265	2080.0	1255.0	1.6008553613290324	9.888412017167381	-16128.0	320.0	-0.19619865113427343	1.4518700183936235	2368.0	0.0	2076.0498046875	2492.0	-0.3804347826086957	726.0	-177.0	1.1717171717171717	-531.0	-0.4590818363273454	2.4672472785113997	158.0	-170.0	2.8961339512080944	-204.0	-1.7585127769676236	
9.821842091002686	1941.0	-0.42235435323772125	2085.0	1257.0	1.5397780099077696	9.966891477621092	-16256.0	320.0	-0.19619865113427343	1.4126302881667687	2304.0	0.0	2095.5810546875	3132.0	-0.3869565217391304	723.0	-168.0	1.1898989898989898	-527.0	-0.4670658682634731	3.6980932745916926	156.0	-194.0	3.1690704297979053	-284.0	-1.7404029859778563	
9.724308210279222	1940.0	-0.4084327950629444	2084.0	1265.0	1.550990079453367	9.849172286940528	-16064.0	448.0	-0.27467811158798283	1.4126302881667687	2304.0	0.0	2115.1123046875	3772.0	-0.3847826086956522	724.0	-169.0	1.187878787878788	-543.0	-0.43512974051896214	4.301947917409833	161.0	-237.0	3.7747616329222353	-323.0	-1.8224871597824635	
9.737954208320462	1943.0	-0.298251491356878	2075.0	1264.0	1.516083774157587	9.966891477621092	-16256.0	320.0	-0.19619865113427343	1.4126302881667687	2304.0	0.0	2134.6435546875	4412.0	-0.3739130434782609	729.0	-176.0	1.1737373737373737	-526.0	-0.46906187624750506	2.766427107609948	193.0	-256.0	4.1859591331070645	-223.0	-2.29382396689359	
9.909128201106613	1948.0	-0.3126966196596088	2076.0	1250.0	1.4574100989469998	10.0453709380748	-16384.0	192.0	-0.11771919068056406	1.3341508277130594	2176.0	0.0	2154.1748046875	5052.0	-0.3847826086956522	724.0	-170.0	1.185858585858586	-520.0	-0.48103792415169666	2.0959332848163994	214.0	-203.0	3.450798469922061	-180.0	-2.6065106636466435	
9.860599365318805	1946.0	-0.2634276308804163	2072.0	1254.0	1.4815138860190822	10.0453709380748	-16384.0	320.0	-0.19619865113427343	1.4126302881667687	2304.0	0.0	2173.7060546875	5692.0	-0.3673913043478261	732.0	-177.0	1.1717171717171717	-535.0	-0.4510978043912176	3.921629918922098	213.0	-206.0	3.3680991304136705	-299.0	-2.609558504512415	
9.77537762120996	1945.0	-0.23756204471963244	2070.0	1261.0	1.492968517210686	9.888412017167381	-16128.0	128.0	-0.07847946045370938	1.3341508277130594	2176.0	0.0	2193.2373046875	6332.0	-0.3673913043478261	732.0	-177.0	1.1717171717171717	-532.0	-0.45708582834331346	4.8124098395917	184.0	-186.0	2.988608187421217	-357.0	-2.1774016649358416	
9.677231748510108	1940.0	-0.23678447288257126	2070.0	1269.0	1.5522357980574797	9.731453096259962	-15872.0	0.0	0.0	1.4518700183936235	2368.0	0.0	2212.7685546875	6972.0	-0.3717391304347826	730.0	-175.0	1.1757575757575758	-525.0	-0.471057884231537	4.410663832612423	187.0	-169.0	2.7635222408458677	-331.0	-2.2190115812919036	
9.76282198307252	1944.0	-0.26193475404525174	2072.0	1262.0	1.5046474265071397	9.849172286940528	-16064.0	192.0	-0.11771919068056406	1.4126302881667687	2304.0	0.0	2232.2998046875	7612.0	-0.3717391304347826	730.0	-181.0	1.1636363636363636	-531.0	-0.4590818363273454	3.4534866905361548	189.0	-129.0	2.2316583500473612	-269.0	-2.239858060821712	
9.702588685087365	1944.0	-0.1875621842325971	2066.0	1267.0	1.5047888192254149	9.770692826486817	-15936.0	192.0	-0.11771919068056406	1.3733905579399142	2240.0	0.0	2251.8310546875	8252.0	-0.3673913043478261	732.0	-179.0	1.1676767676767676	-526.0	-0.46906187624750506	3.3665709766003067	154.0	-129.0	2.216414908071897	-263.0	-1.706669512047372	
9.775493975022476	1943.0	-0.20146817569763448	2067.0	1261.0	1.5174270049811998	9.927651747394236	-16192.0	128.0	-0.07847946045370938	1.4126302881667687	2304.0	0.0	2271.3623046875	8892.0	-0.3652173913043478	733.0	-166.0	1.1939393939393939	-526.0	-0.46906187624750506	2.888766663376625	164.0	-123.0	2.165798715973624	-232.0	-1.8539827236679869	
9.738803225480996	1945.0	-0.2368233896569199	2070.0	1264.0	1.4926101598040233	9.809932556713672	-16000.0	192.0	-0.11771919068056406	1.3733905579399142	2240.0	0.0	2290.8935546875	9532.0	-0.3717391304347826	730.0	-167.0	1.1919191919191918	-538.0	-0.4451097804391218	3.49780672711456	178.0	-107.0	1.8920465778336082	-272.0	-2.0730008809593587	
9.604449288726189	1942.0	-0.2226400464181661	2069.0	1275.0	1.5275530321821158	9.731453096259962	-15872.0	64.0	-0.03923973022685469	1.3733905579399142	2240.0	0.0	2310.4248046875	10172.0	-0.358695652173913	736.0	-176.0	1.1737373737373737	-526.0	-0.46906187624750506	4.237759572667156	148.0	-103.0	1.7623248942203018	-320.0	-1.6241266451563297	
9.592018639519496	1943.0	-0.2587261320852943	2072.0	1276.0	1.5150196720622933	9.692213366033108	-15808.0	192.0	-0.11771919068056406	1.3733905579399142	2240.0	0.0	2329.9560546875	10812.0	-0.3739130434782609	729.0	-172.0	1.1818181818181819	-519.0	-0.4830339321357286	2.5051491519334936	153.0	-111.0	2.005896434583429	-207.0	-1.6828461683254186	
9.738926055632186	1946.0	-0.23658495465755214	2070.0	1264.0	1.4805655796844446	9.849172286940528	-16064.0	64.0	-0.03923973022685469	1.2949110974862048	2112.0	0.0	2349.4873046875	11452.0	-0.3630434782608696	734.0	-170.0	1.185858585858586	-539.0	-0.44311377245508987	1.5131534289946635	144.0	-135.0	2.4292841416838917	-142.0	-1.536044081818464	
9.776239591047846	1953.0	-0.24784481106493467	2071.0	1261.0	1.396488767076937	9.849172286940528	-16064.0	320.0	-0.19619865113427343	1.25567136725935	2048.0	0.0	2369.0185546875	12092.0	-0.3521739130434783	739.0	-179.0	1.1676767676767676	-531.0	-0.4590818363273454	3.0250057815274767	165.0	-112.0	1.9920072971399505	-241.0	-1.8705542403247806	
9.67895352940632	1955.0	-0.24539819423229897	2071.0	1269.0	1.3714439870866795	9.809932556713672	-16000.0	192.0	-0.11771919068056406	1.2949110974862048	2112.0	0.0	2388.5498046875	12732.0	-0.358695652173913	736.0	-174.0	1.1777777777777778	-524.0	-0.4730538922155689	2.9933986790220852	180.0	-18.0	0.594037274435659	-240.0	-2.098375051429004	
9.654932613035236	1955.0	-0.2083350185030904	2068.0	1271.0	1.3715744096802607	9.731453096259962	-15872.0	0.0	0.0	1.3341508277130594	2176.0	0.0	2408.0810546875	13372.0	-0.36086956521739133	735.0	-175.0	1.1757575757575758	-540.0	-0.44111776447105794	1.847813766272049	177.0	56.0	-0.43750038805529184	-166.0	-2.0412918258756485	
9.496450041215063	1958.0	-0.2409896139206329	2071.0	1284.0	1.3335184596946306	9.53525444512569	-15552.0	192.0	-0.11771919068056406	1.137952176578786	1856.0	0.0	2427.6123046875	14012.0	-0.358695652173913	736.0	-175.0	1.1757575757575758	-537.0	-0.44710578842315374	1.2735922833966757	174.0	104.0	-1.118999847814245	-129.0	-1.9899222346210395	
9.570081518159517	1958.0	-0.1937059386850799	2067.0	1278.0	1.3347276112164308	9.652973635806253	-15744.0	128.0	-0.07847946045370938	1.1771919068056407	1920.0	0.0	2447.1435546875	14652.0	-0.3695652173913044	731.0	-168.0	1.1898989898989898	-526.0	-0.46906187624750506	-1.0606324601668775	134.0	163.0	-1.8654301275621084	23.0	-1.3582149681739966	
9.618830108895006	1950.0	-0.09907632137501622	2059.0	1274.0	1.4325469354655609	9.731453096259962	-15872.0	0.0	0.0	1.25567136725935	2048.0	0.0	2466.6748046875	15292.0	-0.36086956521739133	735.0	-172.0	1.1818181818181819	-516.0	-0.4890219560878244	-1.8340221964335583	85.0	152.0	-1.6764945466201207	74.0	-0.6052339225223565	
9.667354627123697	1950.0	-0.12444168747245532	2061.0	1270.0	1.4327785269868734	9.770692826486817	-15936.0	-64.0	0.03923973022685469	1.2949110974862048	2112.0	0.0	2486.2060546875	15932.0	-0.3521739130434783	739.0	-173.0	1.1797979797979798	-529.0	-0.46307385229540926	-0.9938885265833224	111.0	47.0	-0.1449374659941774	20.0	-1.0090725215782734	
9.58177734523863	1952.0	-0.17100227435503515	2065.0	1277.0	1.4073607627570284	9.652973635806253	-15744.0	64.0	-0.03923973022685469	1.2164316370324952	1984.0	0.0	2505.7373046875	16572.0	-0.36086956521739133	735.0	-173.0	1.1797979797979798	-518.0	-0.4850299401197605	-0.0699761740550486	136.0	-2.0	0.5406000434033108	-40.0	-1.3985397819856853	
9.666753429045096	1951.0	-0.1973447305145546	2067.0	1270.0	1.4199952918045822	9.849172286940528	-16064.0	128.0	-0.07847946045370938	1.25567136725935	2048.0	0.0	2525.2685546875	17212.0	-0.358695652173913	736.0	-173.0	1.1797979797979798	-536.0	-0.44910179640718567	-0.9750825215364535	117.0	18.0	0.2921864348642811	19.0	-1.100515334480453	
9.642116203138508	1945.0	-0.1495219184413082	2063.0	1272.0	1.4925163042927547	9.731453096259962	-15872.0	-64.0	0.03923973022685469	1.3733905579399142	2240.0	0.0	2544.7998046875	17852.0	-0.3630434782608696	734.0	-180.0	1.1656565656565656	-533.0	-0.45508982035928147	-0.9869542738724422	60.0	-52.0	1.3078111651120312	21.0	-0.23347646486583834	
9.83754813747989	1948.0	-0.1527461071110051	2063.0	1256.0	1.4582938034362187	9.888412017167381	-16128.0	64.0	-0.03923973022685469	1.25567136725935	2048.0	0.0	2564.3310546875	18492.0	-0.3695652173913044	731.0	-172.0	1.1818181818181819	-529.0	-0.46307385229540926	-0.6564336446200867	74.0	-122.0	2.3427993019510427	0.0	-0.4497094278123543	
9.727831426631669	1951.0	-0.18638557594549765	2066.0	1265.0	1.4207156633261384	9.849172286940528	-16064.0	128.0	-0.07847946045370938	1.3341508277130594	2176.0	0.0	2583.8623046875	19132.0	-0.3739130434782609	729.0	-173.0	1.1797979797979798	-517.0	-0.48702594810379246	0.14215783568847243	79.0	-134.0	2.4701692049941353	-52.0	-0.5337409699918658	
9.738917420513953	1942.0	-0.18877770929404525	2066.0	1264.0	1.5292363368712347	9.770692826486817	-15936.0	0.0	0.0	1.3733905579399142	2240.0	0.0	2603.3935546875	19772.0	-0.3652173913043478	733.0	-174.0	1.1777777777777778	-531.0	-0.4590818363273454	-0.04850093618347864	73.0	-84.0	1.7301636779960574	-40.0	-0.4405796294214352	
9.788045295600801	1942.0	-0.1531918436902618	2063.0	1260.0	1.530083474278141	9.849172286940528	-16064.0	0.0	0.0	1.4126302881667687	2304.0	0.0	2622.9248046875	20412.0	-0.3652173913043478	733.0	-170.0	1.185858585858586	-526.0	-0.46906187624750506	-0.4619277518398707	15.0	-32.0	0.9440428183605323	-13.0	0.4456839163016687	
9.665156637079633	1938.0	-0.2004443855063358	2067.0	1270.0	1.576574833359106	9.809932556713672	-16000.0	64.0	-0.03923973022685469	1.4518700183936235	2368.0	0.0	2642.4560546875	21052.0	-0.3673913043478261	732.0	-167.0	1.1919191919191918	-536.0	-0.44910179640718567	0.3194653822219457	42.0	-53.0	1.2209262904537825	-64.0	0.027223597128350888	
9.665158795859192	1939.0	-0.2123961968472125	2068.0	1270.0	1.5644071440624086	9.770692826486817	-15936.0	192.0	-0.11771919068056406	1.4518700183936235	2368.0	0.0	2661.9873046875	21692.0	-0.35434782608695653	738.0	-174.0	1.1777777777777778	-522.0	-0.4770459081836328	0.6278412215135323	39.0	-61.0	1.3175782669670613	-84.0	0.06976721516129053	
9.774996178079045	1936.0	-0.16656648167247545	2064.0	1261.0	1.6021083933496074	9.888412017167381	-16128.0	-64.0	0.03923973022685469	1.4518700183936235	2368.0	0.0	2681.5185546875	22332.0	-0.3673913043478261	732.0	-172.0	1.1818181818181819	-524.0	-0.4730538922155689	-0.2459019016527639	43.0	-68.0	1.4857717746523627	-27.0	0.017668144491812813	
9.72671947893229	1939.0	-0.15267605691717756	2063.0	1265.0	1.5656199522924399	9.770692826486817	-15936.0	0.0	0.0	1.4126302881667687	2304.0	0.0	2701.0498046875	22972.0	-0.36086956521739133	735.0	-177.0	1.1717171717171717	-537.0	-0.44710578842315374	1.2504342642460342	71.0	-153.0	2.6730238166288305	-124.0	-0.42315073047516	
9.824242565757963	1935.0	-0.10683855838757077	2059.0	1257.0	1.6152463292303298	9.927651747394236	-16192.0	-64.0	0.03923973022685469	1.5303494788473329	2496.0	0.0	2720.5810546875	23612.0	-0.358695652173913	736.0	-175.0	1.1757575757575758	-536.0	-0.44910179640718567	1.9406573456957577	86.0	-168.0	2.85899732166699	-169.0	-0.6581898434189348	
9.836321994747554	1939.0	-0.16708226844555968	2064.0	1256.0	1.5665719153353086	9.927651747394236	-16192.0	0.0	0.0	1.4518700183936235	2368.0	0.0	2740.1123046875	24252.0	-0.3652173913043478	733.0	-168.0	1.1898989898989898	-526.0	-0.46906187624750506	2.34408359266622	53.0	-167.0	2.795850305502343	-195.0	-0.16032296520422873	
9.921789399158776	1942.0	-0.19247098460760798	2066.0	1249.0	1.5310281239045473	9.966891477621092	-16256.0	192.0	-0.11771919068056406	1.3733905579399142	2240.0	0.0	2759.6435546875	24892.0	-0.36086956521739133	735.0	-180.0	1.1656565656565656	-511.0	-0.4990019960079841	1.1761590319794204	36.0	-135.0	2.3870355296629207	-119.0	0.10991141348248717	
9.884736635502403	1944.0	-0.2643969375876269	2072.0	1252.0	1.5058419511960148	9.966891477621092	-16256.0	128.0	-0.07847946045370938	1.3733905579399142	2240.0	0.0	2779.1748046875	25532.0	-0.358695652173913	736.0	-174.0	1.1777777777777778	-517.0	-0.48702594810379246	1.3823379048025084	36.0	-78.0	1.5181127664712553	-133.0	0.1078496247542563	
9.860967855772374	1949.0	-0.2627123258823129	2072.0	1254.0	1.445380145660346	9.888412017167381	-16128.0	384.0	-0.23543838136112813	1.2949110974862048	2112.0	0.0	2798.7060546875	26172.0	-0.3652173913043478	733.0	-172.0	1.1818181818181819	-523.0	-0.47504990019960086	0.3318336525268936	49.0	-40.0	1.0294214652480007	-65.0	-0.0793639639016948	
9.90973155796477	1948.0	-0.25174538795838625	2071.0	1250.0	1.4580256448325934	10.006131207847945	-16320.0	128.0	-0.07847946045370938	1.3733905579399142	2240.0	0.0	2818.2373046875	26812.0	-0.3565217391304348	737.0	-179.0	1.1676767676767676	-528.0	-0.4650698602794412	0.7809985171253133	85.0	-2.0	0.4503455889275758	-95.0	-0.6313841296579452	
9.812807510438136	1950.0	-0.21272803210501706	2068.0	1258.0	1.4333501923736922	9.927651747394236	-16192.0	128.0	-0.07847946045370938	1.2949110974862048	2112.0	0.0	2837.7685546875	27452.0	-0.358695652173913	736.0	-173.0	1.1797979797979798	-522.0	-0.4770459081836328	2.0859591296829327	139.0	39.0	-0.2223206123529819	-181.0	-1.4657265114489206	
9.667240432090738	1953.0	-0.17248736783532997	2065.0	1270.0	1.3961523499196622	9.770692826486817	-15936.0	64.0	-0.03923973022685469	1.3341508277130594	2176.0	0.0	2857.2998046875	28092.0	-0.36086956521739133	735.0	-176.0	1.1737373737373737	-518.0	-0.4850299401197605	1.5720721788231975	145.0	85.0	-0.872559062872869	-148.0	-1.5518423947920346	
9.606759315023648	1950.0	-0.08663985668053423	2058.0	1275.0	1.432550592173792	9.692213366033108	-15808.0	-64.0	0.03923973022685469	1.3341508277130594	2176.0	0.0	2876.8310546875	28732.0	-0.35434782608695653	738.0	-177.0	1.1717171717171717	-532.0	-0.45708582834331346	0.003966212468905498	148.0	107.0	-1.0914288750163466	-46.0	-1.581788711554347	
9.631021574137995	1950.0	-0.09932253972925377	2059.0	1273.0	1.4326663879344483	9.652973635806253	-15744.0	0.0	0.0	1.3341508277130594	2176.0	0.0	2896.3623046875	29372.0	-0.3695652173913044	731.0	-177.0	1.1717171717171717	-523.0	-0.47504990019960086	-1.1149082171086095	142.0	108.0	-1.032197908579946	27.0	-1.4793452144068608	
9.778407358178091	1951.0	-0.004516754258780065	2051.0	1261.0	1.4230401108584698	9.888412017167381	-16128.0	-256.0	0.15695892090741875	1.2949110974862048	2112.0	0.0	2915.8935546875	30012.0	-0.36086956521739133	735.0	-171.0	1.183838383838384	-531.0	-0.4590818363273454	0.029069036841300234	117.0	72.0	-0.5872977159976112	-47.0	-1.1105568500642304	
9.534948702551453	1955.0	-0.010828893516803134	2052.0	1281.0	1.372349631825286	9.652973635806253	-15744.0	-192.0	0.11771919068056406	1.2164316370324952	1984.0	0.0	2935.4248046875	30652.0	-0.3521739130434783	739.0	-171.0	1.183838383838384	-535.0	-0.4510978043912176	1.1344716263423809	164.0	121.0	-1.3702732639915212	-120.0	-1.8364397732976445	
9.388659754753826	1959.0	-0.05568151862945983	2056.0	1293.0	1.3222454450118457	9.53525444512569	-15552.0	-128.0	0.07847946045370938	1.137952176578786	1856.0	0.0	2954.9560546875	31292.0	-0.36086956521739133	735.0	-176.0	1.1737373737373737	-522.0	-0.4770459081836328	-1.4165760299155294	122.0	196.0	-2.342709459023895	46.0	-1.1721460267730883	
9.592303157853921	1963.0	-0.4733818662223397	2090.0	1276.0	1.2719121044825805	9.613733905579398	-15680.0	512.0	-0.3139178418148375	1.0987124463519313	1792.0	0.0	2974.4873046875	31932.0	-0.3630434782608696	734.0	-170.0	1.185858585858586	-526.0	-0.46906187624750506	-3.4632782671549185	62.0	198.0	-2.2667458919489696	180.0	-0.23913147588358394	
9.619310635601973	1949.0	-0.03836352467316148	2054.0	1274.0	1.4452070614707335	9.692213366033108	-15808.0	-192.0	0.11771919068056406	1.2949110974862048	2112.0	0.0	2994.0185546875	32572.0	-0.3630434782608696	734.0	-167.0	1.1919191919191918	-537.0	-0.44710578842315374	-1.5595532985593112	36.0	108.0	-1.065737302926186	57.0	0.13726853678787448	
9.631387905812003	1952.0	-0.08665542339027368	2058.0	1273.0	1.4087003368724096	9.770692826486817	-15936.0	64.0	-0.03923973022685469	1.3341508277130594	2176.0	0.0	3013.5498046875	33212.0	-0.3630434782608696	734.0	-174.0	1.1777777777777778	-530.0	-0.4610778443113773	-0.48444094904600105	119.0	17.0	0.2742470152050943	-13.0	-1.135840001155928	
9.680035254191884	1953.0	-0.11178235448834495	2060.0	1269.0	1.3968873482741433	9.770692826486817	-15936.0	128.0	-0.07847946045370938	1.2164316370324952	1984.0	0.0	3033.0810546875	33852.0	-0.3652173913043478	733.0	-170.0	1.185858585858586	-519.0	-0.4830339321357286	-1.4629051841974159	108.0	7.0	0.48558114824376675	51.0	-0.9587549785762769	
9.824867510411702	1945.0	-0.16540544009511543	2064.0	1257.0	1.4941849821489486	9.888412017167381	-16128.0	-64.0	0.03923973022685469	1.3341508277130594	2176.0	0.0	3052.6123046875	34492.0	-0.3521739130434783	739.0	-172.0	1.1818181818181819	-532.0	-0.45708582834331346	-2.992234861234071	76.0	9.0	0.5425698056609011	151.0	-0.4567696665967848	
9.84961677257169	1947.0	-0.15323076046461043	2063.0	1255.0	1.470457836024685	10.006131207847945	-16320.0	-64.0	0.03923973022685469	1.3341508277130594	2176.0	0.0	3072.1435546875	35132.0	-0.3652173913043478	733.0	-180.0	1.1656565656565656	-519.0	-0.4830339321357286	-1.502668289152462	73.0	-103.0	2.116231296977092	55.0	-0.4260379558917454	
9.922032900681597	1943.0	-0.18004230326799567	2065.0	1249.0	1.5191066529620874	10.006131207847945	-16320.0	64.0	-0.03923973022685469	1.3733905579399142	2240.0	0.0	3091.6748046875	35772.0	-0.3630434782608696	734.0	-171.0	1.183838383838384	-527.0	-0.4670658682634731	-0.1115115429906703	122.0	-223.0	3.848317123150902	-35.0	-1.1851966716423368	
9.824994658122007	1948.0	-0.1890706277775011	2066.0	1257.0	1.4578050234359747	9.888412017167381	-16128.0	0.0	0.0	1.3733905579399142	2240.0	0.0	3111.2060546875	36412.0	-0.3630434782608696	734.0	-170.0	1.185858585858586	-540.0	-0.44111776447105794	1.5380720766009988	157.0	-314.0	5.119116719972181	-142.0	-1.7340118994732345	
9.922157889612343	1945.0	-0.1917556796095046	2066.0	1249.0	1.494894383545811	9.966891477621092	-16256.0	64.0	-0.03923973022685469	1.4126302881667687	2304.0	0.0	3130.7373046875	37052.0	-0.36086956521739133	735.0	-179.0	1.1676767676767676	-527.0	-0.4670658682634731	1.6895766612287297	178.0	-322.0	5.241287696266338	-152.0	-2.0549185803005003	
9.897899948057116	1947.0	-0.20297661924253851	2067.0	1251.0	1.4704432091917599	9.966891477621092	-16256.0	128.0	-0.07847946045370938	1.2949110974862048	2112.0	0.0	3150.2685546875	37692.0	-0.36086956521739133	735.0	-173.0	1.1797979797979798	-524.0	-0.4730538922155689	2.473891539106642	186.0	-344.0	5.521401383376897	-203.0	-2.184434732881561	
9.800857387938409	1950.0	-0.1881013210702905	2066.0	1259.0	1.4334769582590423	9.809932556713672	-16000.0	128.0	-0.07847946045370938	1.1771919068056407	1920.0	0.0	3169.7998046875	38332.0	-0.3521739130434783	739.0	-178.0	1.1696969696969697	-537.0	-0.44710578842315374	3.3579095658060174	190.0	-311.0	4.967554565106511	-261.0	-2.254111415049695	
9.874736683964802	1953.0	-0.1522925871768787	2063.0	1253.0	1.3984292602449873	10.006131207847945	-16320.0	0.0	0.0	1.25567136725935	2048.0	0.0	3189.3310546875	38972.0	-0.3630434782608696	734.0	-176.0	1.1737373737373737	-528.0	-0.4650698602794412	2.01339325338758	187.0	-240.0	3.994840039276858	-174.0	-2.1950388754996553	
9.874611695034053	1951.0	-0.1405792108353698	2062.0	1253.0	1.4226415296612633	9.849172286940528	-16064.0	64.0	-0.03923973022685469	1.2949110974862048	2112.0	0.0	3208.8623046875	39612.0	-0.3673913043478261	732.0	-177.0	1.1717171717171717	-517.0	-0.48702594810379246	1.8657895283663921	153.0	-143.0	2.5301559843237293	-165.0	-1.6764525720897479	
9.57006640670261	1951.0	-0.11004325929894287	2060.0	1278.0	1.4199014362933133	9.652973635806253	-15744.0	64.0	-0.03923973022685469	1.3341508277130594	2176.0	0.0	3228.3935546875	40252.0	-0.35434782608695653	738.0	-171.0	1.183838383838384	-532.0	-0.45708582834331346	2.692300694468013	167.0	-43.0	0.9818975426166228	-220.0	-1.8976454404047565	
9.64357937105499	1952.0	-0.08690164174451118	2058.0	1272.0	1.408819789341297	9.692213366033108	-15808.0	0.0	0.0	1.2949110974862048	2112.0	0.0	3247.9248046875	40892.0	-0.3521739130434783	739.0	-174.0	1.1777777777777778	-521.0	-0.4790419161676647	1.2096340791973348	134.0	58.0	-0.4492277851486341	-124.0	-1.380917633567639	
9.570428420817503	1951.0	-0.07347252027820936	2057.0	1278.0	1.4202707638246697	9.692213366033108	-15808.0	-384.0	0.23543838136112813	1.2949110974862048	2112.0	0.0	3267.4560546875	41532.0	-0.35434782608695653	738.0	-168.0	1.1898989898989898	-524.0	-0.4730538922155689	0.6306463399828328	76.0	89.0	-0.9089830257938704	-86.0	-0.49299847860895385	
9.618952939046194	1951.0	-0.09883788637564846	2059.0	1274.0	1.4205023553459821	9.692213366033108	-15808.0	0.0	0.0	1.2949110974862048	2112.0	0.0	3286.9873046875	42172.0	-0.358695652173913	736.0	-171.0	1.183838383838384	-536.0	-0.44910179640718567	-0.18579253412190797	42.0	146.0	-1.7274160044457467	-33.0	0.03227617629178942	
9.703676886211605	1945.0	-0.08980177851127324	2058.0	1267.0	1.493729112522786	9.692213366033108	-15808.0	-64.0	0.03923973022685469	1.3733905579399142	2240.0	0.0	3306.5185546875	42812.0	-0.35	740.0	-178.0	1.1696969696969697	-522.0	-0.4770459081836328	-1.5050914452299784	-1.0	190.0	-2.3214226609676563	53.0	0.6994615608401326	
9.765360399435894	1946.0	-0.02984320358187051	2053.0	1262.0	1.4828973406332386	9.849172286940528	-16064.0	-128.0	0.07847946045370938	1.3341508277130594	2176.0	0.0	3326.0498046875	43452.0	-0.35434782608695653	738.0	-177.0	1.1717171717171717	-519.0	-0.4830339321357286	-0.9274205148198549	3.0	118.0	-1.279734827783088	16.0	0.6328483496348906	
9.667835153830662	1949.0	-0.06372889077060054	2056.0	1270.0	1.445438652992046	9.692213366033108	-15808.0	-128.0	0.07847946045370938	1.3341508277130594	2176.0	0.0	3345.5810546875	44092.0	-0.35	740.0	-180.0	1.1656565656565656	-535.0	-0.4510978043912176	-0.46380668905013434	18.0	80.0	-0.733161732342704	-14.0	0.40007532924791583	
9.72794130410551	1946.0	-0.11443627290086952	2060.0	1265.0	1.4816772189867446	9.849172286940528	-16064.0	-64.0	0.03923973022685469	1.3341508277130594	2176.0	0.0	3365.1123046875	44732.0	-0.3565217391304348	737.0	-180.0	1.1656565656565656	-532.0	-0.45708582834331346	-2.1405952613744605	-11.0	142.0	-1.5636350656440696	95.0	0.857907853754429	
9.837423148549142	1946.0	-0.14103273076949618	2062.0	1256.0	1.4825060728524948	9.888412017167381	-16128.0	0.0	0.0	1.3341508277130594	2176.0	0.0	3384.6435546875	45372.0	-0.358695652173913	736.0	-177.0	1.1717171717171717	-524.0	-0.4730538922155689	-2.655421123111991	-39.0	125.0	-1.2899648424813162	129.0	1.288911625679789	
9.787806111637096	1943.0	-0.1895241477116275	2066.0	1260.0	1.517669566627206	9.927651747394236	-16192.0	128.0	-0.07847946045370938	1.3733905579399142	2240.0	0.0	3404.1748046875	46012.0	-0.3521739130434783	739.0	-171.0	1.183838383838384	-539.0	-0.44311377245508987	-0.046085201017564165	-37.0	7.0	0.29875754965779505	-40.0	1.2324000155082746	
9.751716560174213	1944.0	-0.15197631862881367	2063.0	1263.0	1.5056359566323212	9.809932556713672	-16000.0	64.0	-0.03923973022685469	1.3341508277130594	2176.0	0.0	3423.7060546875	46652.0	-0.358695652173913	736.0	-176.0	1.1737373737373737	-538.0	-0.4451097804391218	0.843340429723416	9.0	-37.0	0.9245084815502888	-98.0	0.5238859873377469	
9.90935011483385	1939.0	-0.1807498249112293	2065.0	1250.0	1.567165520971515	9.927651747394236	-16192.0	128.0	-0.07847946045370938	1.4126302881667687	2304.0	0.0	3443.2373046875	47292.0	-0.3630434782608696	734.0	-171.0	1.183838383838384	-523.0	-0.47504990019960086	-1.5259400060001684	36.0	-14.0	0.7610086691830616	56.0	0.1369324038622831	
9.996267734484208	1943.0	-0.07180739633122019	2056.0	1243.0	1.5209313503694812	10.084610668301655	-16448.0	-128.0	0.07847946045370938	1.3341508277130594	2176.0	0.0	3462.7685546875	47932.0	-0.36086956521739133	735.0	-171.0	1.183838383838384	-538.0	-0.4451097804391218	-0.7698395782281878	60.0	-68.0	1.532580042265206	7.0	-0.23564761182228086	
9.910442633517208	1942.0	-0.10689304187165889	2059.0	1250.0	1.531770435675491	10.006131207847945	-16320.0	-128.0	0.07847946045370938	1.4126302881667687	2304.0	0.0	3482.2998046875	48572.0	-0.3521739130434783	739.0	-175.0	1.1757575757575758	-530.0	-0.4610778443113773	1.840711380425443	90.0	-119.0	2.1337543372676784	-163.0	-0.7180268856673724	
9.740621931173699	1949.0	-0.10177693991675917	2059.0	1264.0	1.4457860402740146	9.809932556713672	-16000.0	0.0	0.0	1.2949110974862048	2112.0	0.0	3501.8310546875	49212.0	-0.3521739130434783	739.0	-173.0	1.1797979797979798	-518.0	-0.4850299401197605	1.9115089070573419	64.0	48.0	-0.3907387870172297	-169.0	-0.3232975985762769	
9.702952857981819	1945.0	-0.16294325655274028	2064.0	1267.0	1.4929904574600736	9.809932556713672	-16000.0	128.0	-0.07847946045370938	1.3733905579399142	2240.0	0.0	3521.3623046875	49852.0	-0.35434782608695653	738.0	-174.0	1.1777777777777778	-530.0	-0.4610778443113773	-0.5145801176389485	26.0	104.0	-1.084581071515854	-11.0	0.2789100597315226	
9.751837231545844	1944.0	-0.13978607228856915	2062.0	1263.0	1.5057590658094397	9.849172286940528	-16064.0	-64.0	0.03923973022685469	1.3733905579399142	2240.0	0.0	3540.8935546875	50492.0	-0.35	740.0	-178.0	1.1696969696969697	-524.0	-0.4730538922155689	0.4073103875670855	32.0	87.0	-0.8902218968459843	-71.0	0.17843640182775122	
9.703797557583236	1945.0	-0.07761153217102873	2057.0	1267.0	1.4938522216999048	9.770692826486817	-15936.0	64.0	-0.03923973022685469	1.25567136725935	2048.0	0.0	3560.4248046875	51132.0	-0.3565217391304348	737.0	-182.0	1.1616161616161615	-506.0	-0.5089820359281437	1.479921219586398	50.0	76.0	-0.7890074991829379	-141.0	-0.10605396504757503	
9.606632167313341	1947.0	-0.06297466899814855	2056.0	1275.0	1.468930550886766	9.652973635806253	-15744.0	-128.0	0.07847946045370938	1.3341508277130594	2176.0	0.0	3579.9560546875	51772.0	-0.3673913043478261	732.0	-172.0	1.1818181818181819	-513.0	-0.49500998003992025	0.750728985538624	59.0	123.0	-1.4374281106840292	-94.0	-0.23564417198466384	
9.72769780258269	1945.0	-0.1268649542404818	2061.0	1265.0	1.4935986899292046	9.888412017167381	-16128.0	64.0	-0.03923973022685469	1.4518700183936235	2368.0	0.0	3599.4873046875	52412.0	-0.34782608695652173	741.0	-172.0	1.1818181818181819	-537.0	-0.44710578842315374	-0.1179716268198532	50.0	95.0	-0.9626517282874556	-37.0	-0.0900750365835125	
9.715374872070278	1940.0	-0.07904992552210519	2057.0	1266.0	1.554194574766686	9.809932556713672	-16000.0	0.0	0.0	1.4518700183936235	2368.0	0.0	3619.0185546875	53052.0	-0.3630434782608696	734.0	-184.0	1.1575757575757575	-517.0	-0.48702594810379246	0.5076459937153499	51.0	13.0	0.2237989576886324	-77.0	-0.1115403382641497	
9.87398027404164	1938.0	-0.04615689510519497	2054.0	1253.0	1.5802059446327374	9.966891477621092	-16256.0	-64.0	0.03923973022685469	1.4518700183936235	2368.0	0.0	3638.5498046875	53692.0	-0.35434782608695653	738.0	-173.0	1.1797979797979798	-541.0	-0.439121756487026	0.592014076231846	62.0	-49.0	1.1541541867384177	-82.0	-0.27968439931745154	
9.838017870289066	1942.0	-0.03227425370476675	2053.0	1256.0	1.5317923759248788	9.849172286940528	-16064.0	-320.0	0.19619865113427343	1.3733905579399142	2240.0	0.0	3658.0810546875	54332.0	-0.3695652173913044	731.0	-175.0	1.1757575757575758	-521.0	-0.4790419161676647	1.8435468804775708	111.0	-56.0	1.2018049157313557	-164.0	-1.0374468756488822	
9.874111739311063	1943.0	-0.09372570546933406	2058.0	1253.0	1.5194906073263685	9.966891477621092	-16256.0	0.0	0.0	1.4518700183936235	2368.0	0.0	3677.6123046875	54972.0	-0.35434782608695653	738.0	-175.0	1.1757575757575758	-519.0	-0.4830339321357286	1.676780743690082	71.0	-30.0	0.7992721406400344	-153.0	-0.4274141952696005	
9.873868237788242	1942.0	-0.10615438680894636	2059.0	1253.0	1.5314120782688285	9.927651747394236	-16192.0	-192.0	0.11771919068056406	1.4518700183936235	2368.0	0.0	3697.1435546875	55612.0	-0.35	740.0	-170.0	1.185858585858586	-531.0	-0.4590818363273454	2.30053508428351	79.0	-4.0	0.37092066123554873	-194.0	-0.5553247424778163	
9.738915261734395	1941.0	-0.1768258979531685	2065.0	1264.0	1.5414040261679323	9.888412017167381	-16128.0	64.0	-0.03923973022685469	1.4126302881667687	2304.0	0.0	3716.6748046875	56252.0	-0.34347826086956523	743.0	-180.0	1.1656565656565656	-535.0	-0.4510978043912176	2.202363302615312	77.0	39.0	-0.2681409739677827	-188.0	-0.5239247737105638	
9.701858180518904	1941.0	-0.22484822825143397	2069.0	1267.0	1.5405532320527948	9.731453096259962	-15872.0	384.0	-0.23543838136112813	1.4126302881667687	2304.0	0.0	3736.2060546875	56892.0	-0.3521739130434783	739.0	-171.0	1.183838383838384	-529.0	-0.46307385229540926	1.265896583394489	74.0	48.0	-0.3397205191001811	-127.0	-0.4689327300925001	
9.66516311341831	1941.0	-0.23629981952896595	2070.0	1270.0	1.5400717654690135	9.809932556713672	-16000.0	128.0	-0.07847946045370938	1.3733905579399142	2240.0	0.0	3755.7373046875	57532.0	-0.35	740.0	-173.0	1.1797979797979798	-541.0	-0.439121756487026	0.49740320888611517	137.0	100.0	-1.0275165789392282	-78.0	-1.4194227012903822	
9.812061894412766	1940.0	-0.16635139673771687	2064.0	1258.0	1.554288430277955	9.809932556713672	-16000.0	192.0	-0.11771919068056406	1.4126302881667687	2304.0	0.0	3775.2685546875	58172.0	-0.34782608695652173	741.0	-169.0	1.187878787878788	-539.0	-0.44311377245508987	0.785406318336187	187.0	74.0	-0.6273382469551085	-97.0	-2.182759006149141	
9.642598888625033	1945.0	-0.10076093308033017	2059.0	1272.0	1.4930087410012296	9.731453096259962	-15872.0	-128.0	0.07847946045370938	1.3733905579399142	2240.0	0.0	3794.7998046875	58812.0	-0.35	740.0	-171.0	1.183838383838384	-527.0	-0.4670658682634731	2.6923445561232233	264.0	67.0	-0.6082695156043265	-222.0	-3.37293105012397	
9.533356228145106	1944.0	-0.0378321711903378	2054.0	1281.0	1.5045937947864148	9.574494175352545	-15616.0	-128.0	0.07847946045370938	1.3733905579399142	2240.0	0.0	3814.3310546875	59452.0	-0.3521739130434783	739.0	-174.0	1.1777777777777778	-539.0	-0.44311377245508987	1.4619764393804286	235.0	118.0	-1.3048961713847813	-142.0	-2.919562730173272	
9.644042627525492	1943.0	0.06942564568435736	2045.0	1272.0	1.5188214297200497	9.731453096259962	-15872.0	-384.0	0.23543838136112813	1.3733905579399142	2240.0	0.0	3833.8623046875	60092.0	-0.34782608695652173	741.0	-180.0	1.1656565656565656	-545.0	-0.43113772455089827	0.0601403494192298	204.0	87.0	-0.7614200789209316	-50.0	-2.4340614795398197	
9.644169775235797	1946.0	0.04576045800197168	2047.0	1272.0	1.482441471007076	9.731453096259962	-15872.0	-384.0	0.23543838136112813	1.4126302881667687	2304.0	0.0	3853.3935546875	60732.0	-0.3521739130434783	739.0	-177.0	1.1717171717171717	-529.0	-0.46307385229540926	0.4817381494141791	168.0	72.0	-0.5877768702631018	-77.0	-1.8907489404295033	
9.718411085377085	1949.0	0.11813993091611699	2041.0	1266.0	1.4477631005243774	9.770692826486817	-15936.0	-256.0	0.15695892090741875	1.25567136725935	2048.0	0.0	3872.9248046875	61372.0	-0.34347826086956523	743.0	-171.0	1.183838383838384	-541.0	-0.439121756487026	-0.859545997606804	125.0	58.0	-0.3106881369741687	11.0	-1.2233437035220311	
9.778765054733869	1949.0	0.0559576074437069	2046.0	1261.0	1.447744816983221	9.849172286940528	-16064.0	-384.0	0.23543838136112813	1.2949110974862048	2112.0	0.0	3892.4560546875	62012.0	-0.35	740.0	-176.0	1.1737373737373737	-524.0	-0.4730538922155689	-0.6401400958517137	98.0	53.0	-0.26742212450900127	-3.0	-0.8148913747068822	
9.619784685970263	1945.0	0.05820470605132344	2046.0	1274.0	1.4943702553659985	9.770692826486817	-15936.0	-320.0	0.19619865113427343	1.4126302881667687	2304.0	0.0	3911.9873046875	62652.0	-0.35434782608695653	738.0	-168.0	1.1898989898989898	-532.0	-0.45708582834331346	1.240398209131442	95.0	-7.0	0.499417539294693	-125.0	-0.7880693813308581	
9.692444315602993	1942.0	0.04382184458755045	2047.0	1268.0	1.531097601360941	9.652973635806253	-15744.0	-384.0	0.23543838136112813	1.4126302881667687	2304.0	0.0	3931.5185546875	63292.0	-0.3673913043478261	732.0	-171.0	1.183838383838384	-515.0	-0.4910179640718563	1.3139480271277162	74.0	-68.0	1.3960655351985947	-129.0	-0.46941324452983235	
9.595278925333096	1944.0	0.05845870776043069	2046.0	1276.0	1.5061759305478022	9.731453096259962	-15872.0	-192.0	0.11771919068056406	1.3341508277130594	2176.0	0.0	3951.0498046875	63932.0	-0.341304347826087	744.0	-177.0	1.1717171717171717	-531.0	-0.4590818363273454	0.9808747903974546	73.0	-96.0	1.838429172403536	-107.0	-0.4508733866872445	
9.6672166855156	1942.0	-0.041017443085686056	2054.0	1270.0	1.5299969321833349	9.809932556713672	-16000.0	-128.0	0.07847946045370938	1.3733905579399142	2240.0	0.0	3970.5810546875	64572.0	-0.35	740.0	-172.0	1.1818181818181819	-522.0	-0.4770459081836328	-0.5484744582248113	36.0	-89.0	1.817414848167342	-7.0	0.12715774838452948	
9.727693485023574	1943.0	-0.10296133155872837	2059.0	1265.0	1.5179340685225997	9.849172286940528	-16064.0	-128.0	0.07847946045370938	1.3733905579399142	2240.0	0.0	3990.1123046875	65212.0	-0.35	740.0	-171.0	1.183838383838384	-534.0	-0.45309381237524954	-0.17906594407981982	29.0	-91.0	1.8174304679460225	-31.0	0.2299275415700758	
9.7391544456981	1940.0	-0.14049359393180277	2062.0	1264.0	1.5538179338188671	9.770692826486817	-15936.0	0.0	0.0	1.3733905579399142	2240.0	0.0	4009.6435546875	316.0	-0.35434782608695653	738.0	-180.0	1.1656565656565656	-523.0	-0.47504990019960086	0.7732224072978225	41.0	-112.0	2.07329415762892	-93.0	0.03789515235287729	
9.691720287373206	1942.0	-0.029319633453916583	2053.0	1268.0	1.5303589462982286	9.809932556713672	-16000.0	-128.0	0.07847946045370938	1.4518700183936235	2368.0	0.0	4029.1748046875	956.0	-0.3521739130434783	739.0	-176.0	1.1737373737373737	-523.0	-0.47504990019960086	0.9632387697258659	98.0	-105.0	1.989798298650697	-106.0	-0.830925163362658	
9.777301886817387	1942.0	-0.006662669253090142	2051.0	1261.0	1.5314413319346787	9.809932556713672	-16000.0	-384.0	0.23543838136112813	1.3341508277130594	2176.0	0.0	4048.7060546875	1596.0	-0.3456521739130435	742.0	-171.0	1.183838383838384	-542.0	-0.43712574850299407	-0.6182568360452966	163.0	-54.0	1.3747964278936886	-4.0	-1.8037033631984827	
9.67977232365304	1943.0	-0.016644733760066754	2052.0	1269.0	1.5183180228868811	9.731453096259962	-15872.0	-320.0	0.19619865113427343	1.3733905579399142	2240.0	0.0	4068.2373046875	2236.0	-0.341304347826087	744.0	-174.0	1.1777777777777778	-540.0	-0.44111776447105794	-0.22275570052752813	172.0	-41.0	1.1578422853071173	-30.0	-1.9445405038312267	
9.72938288422641	1943.0	0.06770211720469474	2045.0	1265.0	1.5196575970022623	9.849172286940528	-16064.0	-192.0	0.11771919068056406	1.3341508277130594	2176.0	0.0	4087.7685546875	2876.0	-0.3565217391304348	737.0	-171.0	1.183838383838384	-527.0	-0.4670658682634731	0.4545753212157155	161.0	-47.0	1.1939630534734178	-74.0	-1.7840134338205222	
9.692806329717888	1942.0	0.080392583608284	2044.0	1268.0	1.5314669288922973	9.809932556713672	-16000.0	-256.0	0.15695892090741875	1.3733905579399142	2240.0	0.0	4107.2998046875	3516.0	-0.3521739130434783	739.0	-173.0	1.1797979797979798	-540.0	-0.44111776447105794	0.2230460890873913	105.0	-85.0	1.745724189393696	-58.0	-0.9299871148832694	
9.813990477579306	1939.0	0.04064435604707195	2047.0	1258.0	1.5684258664085524	9.888412017167381	-16128.0	-192.0	0.11771919068056406	1.4518700183936235	2368.0	0.0	4126.8310546875	4156.0	-0.358695652173913	736.0	-179.0	1.1676767676767676	-530.0	-0.4610778443113773	-0.5762591913274229	109.0	-77.0	1.6838492670016052	-6.0	-0.9828305639802619	
9.801924001267066	1941.0	0.02917719805980054	2048.0	1259.0	1.5440941445233887	9.966891477621092	-16256.0	-256.0	0.15695892090741875	1.4126302881667687	2304.0	0.0	4146.3623046875	4796.0	-0.35434782608695653	738.0	-186.0	1.1535353535353536	-527.0	-0.4670658682634731	-1.0533966762503144	98.0	-55.0	1.3805309382843425	25.0	-0.8107588089028962	
9.850452837054876	1943.0	-0.02009179071939196	2052.0	1255.0	1.5199903574513063	9.927651747394236	-16192.0	-256.0	0.15695892090741875	1.4126302881667687	2304.0	0.0	4165.8935546875	5436.0	-0.341304347826087	744.0	-169.0	1.187878787878788	-535.0	-0.4510978043912176	-0.3186048327606319	89.0	-37.0	1.054049073340091	-23.0	-0.6812245980602264	
9.740115499112033	1938.0	-0.019068000528093265	2052.0	1264.0	1.5791381858292124	9.849172286940528	-16064.0	-320.0	0.19619865113427343	1.4126302881667687	2304.0	0.0	4185.4248046875	6076.0	-0.35	740.0	-175.0	1.1757575757575758	-531.0	-0.4590818363273454	-0.04131609210274505	57.0	-14.0	0.6704545101750404	-41.0	-0.19730547025767978	
9.667089537805293	1939.0	-0.017352255403300376	2052.0	1270.0	1.5663768908963087	9.809932556713672	-16000.0	-384.0	0.23543838136112813	1.3733905579399142	2240.0	0.0	4204.9560546875	6716.0	-0.35434782608695653	738.0	-176.0	1.1737373737373737	-516.0	-0.4890219560878244	0.07120368265844729	98.0	14.0	0.267775994683603	-49.0	-0.8220048124919838	
9.76364077731924	1932.0	-0.033181293573019494	2053.0	1262.0	1.6515214623073413	9.849172286940528	-16064.0	-256.0	0.15695892090741875	1.491109748620478	2432.0	0.0	4224.4873046875	7356.0	-0.34782608695652173	741.0	-167.0	1.1919191919191918	-537.0	-0.44710578842315374	-1.1374925474025233	80.0	12.0	0.3709356894498931	30.0	-0.5361535916362409	
9.813505633313223	1938.0	0.0038351820269706405	2050.0	1258.0	1.580101118996775	9.927651747394236	-16192.0	-256.0	0.15695892090741875	1.491109748620478	2432.0	0.0	4244.0185546875	7996.0	-0.34782608695652173	741.0	-171.0	1.183838383838384	-539.0	-0.44311377245508987	-0.5193299876167601	90.0	-29.0	0.9486878791520814	-10.0	-0.6944264719869502	
9.801316326849793	1939.0	-0.007870410959668533	2051.0	1259.0	1.56781397723119	9.966891477621092	-16256.0	-128.0	0.07847946045370938	1.491109748620478	2432.0	0.0	4263.5498046875	8636.0	-0.3521739130434783	739.0	-173.0	1.1797979797979798	-520.0	-0.48103792415169666	-0.0814103807534731	138.0	-30.0	0.9624026991750702	-39.0	-1.4288436908692714	
9.764744089900388	1940.0	-0.019083567237832694	2052.0	1262.0	1.55528793052783	9.888412017167381	-16128.0	-192.0	0.11771919068056406	1.4518700183936235	2368.0	0.0	4283.0810546875	9276.0	-0.34782608695652173	741.0	-172.0	1.1818181818181819	-540.0	-0.44111776447105794	0.003491314494379851	156.0	0.0	0.5176689990842468	-45.0	-1.703456966376883	
9.702819233932837	1939.0	-0.10342263484772447	2059.0	1267.0	1.5658734840631399	9.731453096259962	-15872.0	0.0	0.0	1.4518700183936235	2368.0	0.0	4302.6123046875	9916.0	-0.34347826086956523	743.0	-179.0	1.1676767676767676	-533.0	-0.45508982035928147	0.12286015994391587	148.0	30.0	0.054718894845089766	-53.0	-1.5829776510290972	
9.73987415636877	1938.0	-0.043448493208582295	2054.0	1264.0	1.5788919674749748	9.809932556713672	-16000.0	-256.0	0.15695892090741875	1.491109748620478	2432.0	0.0	4322.1435546875	10556.0	-0.3521739130434783	739.0	-175.0	1.1757575757575758	-526.0	-0.46906187624750506	0.44745403916308485	217.0	-54.0	1.3334746620058013	-74.0	-2.6356532476159655	
9.630278116892182	1941.0	-0.06489771570283029	2056.0	1273.0	1.5414369365420135	9.770692826486817	-15936.0	-64.0	0.03923973022685469	1.4126302881667687	2304.0	0.0	4341.6748046875	11196.0	-0.35	740.0	-170.0	1.185858585858586	-540.0	-0.44111776447105794	0.458926327291299	263.0	-73.0	1.645518552840995	-75.0	-3.335387742360366	
9.752927591449641	1946.0	-0.053977477908122046	2055.0	1263.0	1.4825316698101136	9.888412017167381	-16128.0	-128.0	0.07847946045370938	1.3733905579399142	2240.0	0.0	4361.2060546875	11836.0	-0.3521739130434783	739.0	-176.0	1.1737373737373737	-536.0	-0.44910179640718567	-0.0803081302979814	252.0	-46.0	1.2715596546806833	-40.0	-3.162695017556336	
9.691856070201744	1949.0	-0.10079206649980911	2059.0	1268.0	1.4453082303984646	9.731453096259962	-15872.0	-128.0	0.07847946045370938	1.3733905579399142	2240.0	0.0	4380.7373046875	12476.0	-0.35	740.0	-177.0	1.1717171717171717	-523.0	-0.47504990019960086	-0.2125759311340921	256.0	14.0	0.38364872880736606	-32.0	-3.2222088414491155	
9.72843046593071	1949.0	-0.10153072156252164	2059.0	1265.0	1.4456665878051271	9.927651747394236	-16192.0	64.0	-0.03923973022685469	1.3341508277130594	2176.0	0.0	4400.2685546875	13116.0	-0.35434782608695653	738.0	-174.0	1.1777777777777778	-538.0	-0.4451097804391218	-1.4835178779120912	200.0	55.0	-0.1766548064346874	51.0	-2.3577883953653664	
9.704157412918573	1944.0	-0.02908898180941849	2053.0	1267.0	1.5063892385279587	9.849172286940528	-16064.0	-192.0	0.11771919068056406	1.4126302881667687	2304.0	0.0	4419.7998046875	13756.0	-0.3456521739130435	742.0	-168.0	1.1898989898989898	-541.0	-0.439121756487026	-1.599756587783911	266.0	50.0	-0.053449982232226134	58.0	-3.3604282896354687	
9.728299000661286	1944.0	-0.05396191119838256	2055.0	1265.0	1.506381925111496	9.888412017167381	-16128.0	-256.0	0.15695892090741875	1.3733905579399142	2240.0	0.0	4439.3310546875	14396.0	-0.3565217391304348	737.0	-175.0	1.1757575757575758	-520.0	-0.48103792415169666	-1.0463209615307347	293.0	15.0	0.44919438487826846	22.0	-3.7766090337307006	
9.705010747638225	1948.0	0.008435497208786169	2050.0	1267.0	1.458580245581	9.809932556713672	-16000.0	-128.0	0.07847946045370938	1.2164316370324952	1984.0	0.0	4458.8623046875	15036.0	-0.35434782608695653	738.0	-169.0	1.187878787878788	-534.0	-0.45309381237524954	-0.29321167354161626	280.0	17.0	0.3588842256908257	-27.0	-3.5864214954318845	
9.619670490937308	1948.0	0.010159025688448758	2050.0	1274.0	1.4577440782987874	9.652973635806253	-15744.0	-384.0	0.23543838136112813	1.2949110974862048	2112.0	0.0	4478.3935546875	15676.0	-0.3456521739130435	742.0	-180.0	1.1656565656565656	-528.0	-0.4650698602794412	-0.7647269960740164	251.0	19.0	0.34407409909149805	4.0	-3.1406417034232903	
9.72864806209883	1938.0	0.05431969586761129	2046.0	1265.0	1.5797573884230374	9.770692826486817	-15936.0	-320.0	0.19619865113427343	1.4126302881667687	2304.0	0.0	4497.9248046875	16316.0	-0.3565217391304348	737.0	-179.0	1.1676767676767676	-522.0	-0.4770459081836328	-1.6801630475282097	210.0	27.0	0.2629054525082347	64.0	-2.5079131984220564	
9.740962357493009	1939.0	0.05431191251274156	2046.0	1264.0	1.567832260772346	9.888412017167381	-16128.0	-192.0	0.11771919068056406	1.4518700183936235	2368.0	0.0	4517.4560546875	16956.0	-0.35434782608695653	738.0	-170.0	1.185858585858586	-544.0	-0.4331337325349302	-1.2839609165969839	245.0	10.0	0.5114951235789615	38.0	-3.0441946113663496	
9.801915366148835	1937.0	0.07698444342330746	2044.0	1259.0	1.5927649017101788	9.809932556713672	-16000.0	-256.0	0.15695892090741875	1.4518700183936235	2368.0	0.0	4536.9873046875	17596.0	-0.3565217391304348	737.0	-177.0	1.1717171717171717	-541.0	-0.439121756487026	-0.692926814035695	204.0	-5.0	0.6703037404831171	0.0	-2.4265308079052708	
9.729257895295664	1941.0	0.0794154935462037	2044.0	1265.0	1.5438698664185386	9.809932556713672	-16000.0	-320.0	0.19619865113427343	1.4518700183936235	2368.0	0.0	4556.5185546875	18236.0	-0.3652173913043478	733.0	-173.0	1.1797979797979798	-527.0	-0.4670658682634731	0.5051596720539561	205.0	-18.0	0.782427834795926	-78.0	-2.453720798241452	
9.716465231974077	1942.0	0.006758668858341921	2050.0	1266.0	1.53096717876736	9.809932556713672	-16000.0	-448.0	0.27467811158798283	1.3733905579399142	2240.0	0.0	4576.0498046875	18876.0	-0.3521739130434783	739.0	-172.0	1.1818181818181819	-544.0	-0.4331337325349302	-0.41034683710843484	146.0	8.0	0.4204484542606811	-18.0	-1.5472273301080033	
9.777304045596946	1943.0	-0.018614480593966864	2052.0	1261.0	1.5192736426379811	9.809932556713672	-16000.0	-64.0	0.03923973022685469	1.3733905579399142	2240.0	0.0	4595.5810546875	19516.0	-0.35	740.0	-173.0	1.1797979797979798	-540.0	-0.44111776447105794	-0.9931786407941895	101.0	52.0	-0.22603304297584478	20.0	-0.8569883656833129	
9.691957312557351	1940.0	0.018964481908325892	2049.0	1268.0	1.5549405432458612	9.809932556713672	-16000.0	-320.0	0.19619865113427343	1.3733905579399142	2240.0	0.0	4615.1123046875	20156.0	-0.36086956521739133	735.0	-174.0	1.1777777777777778	-523.0	-0.47504990019960086	-1.0012781056831177	175.0	34.0	0.08941475865353554	20.0	-1.9823826562055264	
9.802046831418256	1942.0	0.029415633059168306	2048.0	1259.0	1.53204956440381	9.888412017167381	-16128.0	-384.0	0.23543838136112813	1.3341508277130594	2176.0	0.0	4634.6435546875	20796.0	-0.358695652173913	736.0	-172.0	1.1818181818181819	-532.0	-0.45708582834331346	-1.4709672967493828	115.0	54.0	-0.2142468497514555	51.0	-1.0651382357777535	
9.778038867724524	1948.0	-0.0052320592568834146	2051.0	1261.0	1.459173851217206	9.731453096259962	-15872.0	-256.0	0.15695892090741875	1.25567136725935	2048.0	0.0	4654.1748046875	21436.0	-0.34782608695652173	741.0	-180.0	1.1656565656565656	-541.0	-0.439121756487026	-1.0788177508383117	148.0	66.0	-0.40137445749700085	25.0	-1.5709608719212749	
9.826671104647495	1942.0	0.05330368903118232	2046.0	1257.0	1.5325346876958224	9.849172286940528	-16064.0	-256.0	0.15695892090741875	1.4126302881667687	2304.0	0.0	4673.7060546875	22076.0	-0.358695652173913	736.0	-178.0	1.1696969696969697	-521.0	-0.4790419161676647	0.2661177261607921	105.0	37.0	-0.08635905381797687	-62.0	-0.9304178312540033	
9.741208017795389	1941.0	0.054788782511477147	2046.0	1264.0	1.5437431005331885	9.849172286940528	-16064.0	-64.0	0.03923973022685469	1.4126302881667687	2304.0	0.0	4693.2373046875	22716.0	-0.3565217391304348	737.0	-168.0	1.1898989898989898	-544.0	-0.4331337325349302	1.3752527845581264	125.0	-15.0	0.6282226414003456	-134.0	-1.2456916913436804	
9.765836608583744	1943.0	0.05477321580173769	2046.0	1262.0	1.5198928452318061	9.809932556713672	-16000.0	-192.0	0.11771919068056406	1.4126302881667687	2304.0	0.0	4712.7685546875	23356.0	-0.3456521739130435	742.0	-169.0	1.187878787878788	-544.0	-0.4331337325349302	1.2005399700367523	136.0	-88.0	1.741527442113352	-122.0	-1.4112449434266032	
9.754129987606838	1944.0	0.09182860817607652	2043.0	1263.0	1.5080981401746962	9.809932556713672	-16000.0	-448.0	0.27467811158798283	1.4126302881667687	2304.0	0.0	4732.2998046875	23996.0	-0.358695652173913	736.0	-173.0	1.1797979797979798	-524.0	-0.4730538922155689	0.8542985479186018	115.0	-111.0	2.097677765900432	-99.0	-1.0883908942244331	
9.887999080095563	1946.0	0.040836090917221374	2047.0	1252.0	1.4848305203848262	9.888412017167381	-16128.0	-384.0	0.23543838136112813	1.3733905579399142	2240.0	0.0	4751.8310546875	24636.0	-0.35434782608695653	738.0	-173.0	1.1797979797979798	-543.0	-0.43512974051896214	0.11407846706027273	115.0	-84.0	1.7443994823287714	-51.0	-1.0809886934158501	
9.8153308153446	1945.0	0.10302619774450125	2042.0	1258.0	1.4967739315766737	9.966891477621092	-16256.0	-320.0	0.19619865113427343	1.3733905579399142	2240.0	0.0	4771.3623046875	25276.0	-0.35434782608695653	738.0	-169.0	1.187878787878788	-540.0	-0.44111776447105794	1.2832103644593138	96.0	-89.0	1.7264314856492113	-127.0	-0.8037066283594222	
9.69293563620775	1946.0	0.044775584585021594	2047.0	1268.0	1.482919280882626	9.809932556713672	-16000.0	-192.0	0.11771919068056406	1.4126302881667687	2304.0	0.0	4790.8935546875	25916.0	-0.358695652173913	736.0	-175.0	1.1757575757575758	-533.0	-0.45508982035928147	1.827359093345534	85.0	-25.0	0.722346479029545	-163.0	-0.6418477354201475	
9.631614137098358	1945.0	0.021387748676352403	2049.0	1273.0	1.49412038030353	9.731453096259962	-15872.0	-320.0	0.19619865113427343	1.3733905579399142	2240.0	0.0	4810.4248046875	26556.0	-0.3630434782608696	734.0	-171.0	1.183838383838384	-534.0	-0.45309381237524954	0.7044879409290044	53.0	28.0	-0.013572068021304177	-90.0	-0.1439270086868566	
9.619418354296254	1943.0	0.04553758971234334	2047.0	1274.0	1.5183363064280373	9.770692826486817	-15936.0	-192.0	0.11771919068056406	1.4126302881667687	2304.0	0.0	4829.9560546875	27196.0	-0.35434782608695653	738.0	-175.0	1.1757575757575758	-539.0	-0.44311377245508987	-0.4588150643649026	-8.0	72.0	-0.6293866099300852	-14.0	0.795462675358478	
9.594304919241814	1940.0	0.008743982401981515	2050.0	1276.0	1.5538618143176424	9.692213366033108	-15808.0	-192.0	0.11771919068056406	1.4126302881667687	2304.0	0.0	4849.4873046875	27836.0	-0.358695652173913	736.0	-176.0	1.1737373737373737	-525.0	-0.471057884231537	-0.7512272943418427	2.0	69.0	-0.5579735572891983	5.0	0.6462955429053956	
9.569921988755839	1940.0	0.009236419110456556	2050.0	1278.0	1.5536229093798675	9.53525444512569	-15552.0	-320.0	0.19619865113427343	1.4126302881667687	2304.0	0.0	4869.0185546875	28476.0	-0.36086956521739133	735.0	-170.0	1.185858585858586	-544.0	-0.4331337325349302	-0.39198016853338974	16.0	12.0	0.28011266666387136	-18.0	0.4297753149933188	
9.642827278690946	1939.0	-0.00466957235458082	2051.0	1272.0	1.5662610951356524	9.692213366033108	-15808.0	-256.0	0.15695892090741875	1.4518700183936235	2368.0	0.0	4888.5498046875	29116.0	-0.35434782608695653	738.0	-169.0	1.187878787878788	-542.0	-0.43712574850299407	-0.5726460715663734	37.0	-31.0	0.9501403400836218	-6.0	0.11219033904265995	
