Device	Device	Device	Device	Device	Device	Device	Device	Device	Device	Device	Device	Device	Device	Device	Device	Device	Device	Device	Device	Device	Device	Device	Device	Device	Device	Device	
Low Noise Accelerometer X	Low Noise Accelerometer X	Low Noise Accelerometer Z	Low Noise Accelerometer Z	Low Noise Accelerometer Y	Low Noise Accelerometer Y	Wide Range Accelerometer X	Wide Range Accelerometer X	Wide Range Accelerometer Z	Wide Range Accelerometer Z	Wide Range Accelerometer Y	Wide Range Accelerometer Y	Event_Marker	Timestamp	Timestamp	Magnetometer Z	Magnetometer Z	Magnetometer X	Magnetometer X	Magnetometer Y	Magnetometer Y	Gyroscope Y	Gyroscope Y	Gyroscope Z	Gyroscope Z	Gyroscope X	Gyroscope X	
CAL	UNCAL	CAL	UNCAL	CAL	UNCAL	CAL	UNCAL	UNCAL	CAL	CAL	UNCAL	CAL	CAL	UNCAL	CAL	UNCAL	UNCAL	CAL	UNCAL	CAL	CAL	UNCAL	CAL	UNCAL	CAL	UNCAL	
m/(s^2)	no units	m/(s^2)	no units	m/(s^2)	no units	m/(s^2)	no units	no units	m/(s^2)	m/(s^2)	no units	no units	ms	no units	local_flux	no units	no units	local_flux	no units	local_flux	deg/s	no units	deg/s	no units	deg/s	no units	
9.616547265597289	1897.0	-0.9165158531518839	2125.0	2.0629039285822848	1273.0	9.731453096259962	-15872.0	1024.0	-0.627835683629675	1.9619865113427344	3200.0	0.0	1290.95458984375	42302.0	-0.40217391304347827	716.0	-163.0	1.2	-570.0	-0.3812375249500998	1.8638498817037163	155.0	2.366590172540089	-132.0	-1.7068514265736914	-165.0	
9.580095700019513	1898.0	-0.9155387630898035	2125.0	2.0505009910560434	1276.0	9.652973635806253	-15744.0	1088.0	-0.6670754138565297	1.9619865113427344	3200.0	0.0	1310.48583984375	42942.0	-0.4152173913043478	710.0	-167.0	1.1919191919191918	-549.0	-0.42315369261477054	2.3117801381573218	158.0	2.6970594117029747	-156.0	-1.7569581055640828	-194.0	
9.6283810342845	1899.0	-0.9772364332086084	2130.0	2.038318674926421	1272.0	9.613733905579398	-15680.0	1216.0	-0.745554874310239	1.9619865113427344	3200.0	0.0	1330.01708984375	43582.0	-0.4152173913043478	710.0	-175.0	1.1757575757575758	-544.0	-0.4331337325349302	1.0488101458501995	134.0	1.8858036415718467	-97.0	-1.3793093942341677	-112.0	
9.71348426580127	1901.0	-1.0272440770505133	2134.0	2.014573245261001	1265.0	9.888412017167381	-16128.0	1344.0	-0.8240343347639485	2.001226241569589	3264.0	0.0	1349.54833984375	44222.0	-0.4043478260869565	715.0	-161.0	1.204040404040404	-567.0	-0.3872255489021957	2.10841434122506	135.0	1.962588592074027	-107.0	-1.4051145616632013	-181.0	
9.652154131573646	1896.0	-1.0028246675956758	2132.0	2.0744451018686947	1270.0	9.692213366033108	-15808.0	1344.0	-0.8240343347639485	1.9227467811158798	3136.0	0.0	1369.07958984375	44862.0	-0.41304347826086957	711.0	-166.0	1.1939393939393939	-553.0	-0.41516966067864275	3.012263527613067	139.0	1.8571366375330896	-104.0	-1.474989555428222	-240.0	
9.567050900056872	1894.0	-0.9528170237537708	2128.0	2.0981905315341147	1277.0	9.731453096259962	-15872.0	1216.0	-0.745554874310239	2.0797057020232983	3392.0	0.0	1388.61083984375	45502.0	-0.4043478260869565	715.0	-164.0	1.197979797979798	-565.0	-0.39121756487025955	2.2789578703054443	207.0	1.6946709688563348	-87.0	-2.5018770311745375	-193.0	
9.238861820926147	1901.0	-0.9323098368535387	2127.0	2.0107763632142195	1304.0	9.496014714898834	-15488.0	1088.0	-0.6670754138565297	1.9227467811158798	3136.0	0.0	1408.14208984375	46142.0	-0.40652173913043477	714.0	-171.0	1.183838383838384	-540.0	-0.44111776447105794	-1.065522516468256	277.0	1.3553397014334196	-46.0	-3.533071010576762	24.0	
9.725660619587352	1894.0	-0.9438276160186139	2127.0	2.099866522806771	1264.0	9.770692826486817	-15936.0	960.0	-0.5885959534028203	2.001226241569589	3264.0	0.0	1427.67333984375	46782.0	-0.3978260869565217	718.0	-166.0	1.1939393939393939	-567.0	-0.3872255489021957	-1.6108931775937747	282.0	2.1459645119491095	-96.0	-3.6036629313419333	60.0	
9.665554469312504	1897.0	-0.893120233888345	2123.0	2.0636279568120726	1269.0	9.966891477621092	-16256.0	1216.0	-0.745554874310239	2.040465971796444	3328.0	0.0	1447.20458984375	47422.0	-0.4043478260869565	715.0	-162.0	1.202020202020202	-557.0	-0.407185628742515	5.760932284053249	291.0	2.77779102984715	-172.0	-3.8142633152359697	-420.0	
9.362705056522572	1900.0	-0.7277762676111251	2110.0	2.0261083240336926	1294.0	9.53525444512569	-15552.0	896.0	-0.5493562231759657	1.9227467811158798	3136.0	0.0	1466.73583984375	48062.0	-0.4043478260869565	715.0	-158.0	1.2101010101010101	-563.0	-0.3952095808383234	6.865037636335562	289.0	2.654751056045901	-169.0	-3.7948861178082227	-492.0	
9.168865596587539	1908.0	-0.6975488012678936	2108.0	1.9280866619290995	1310.0	9.339055793991415	-15232.0	768.0	-0.47087676272225626	1.8442673206621703	3008.0	0.0	1486.26708984375	48702.0	-0.39565217391304347	719.0	-167.0	1.1919191919191918	-546.0	-0.42914171656686634	2.5772476262399615	268.0	1.755997779247366	-90.0	-3.4326165827262782	-213.0	
9.399525112553915	1902.0	-0.7280380526751021	2110.0	2.0023775212011974	1291.0	9.37829552421827	-15296.0	896.0	-0.5493562231759657	1.883507050889025	3072.0	0.0	1505.79833984375	49342.0	-0.3978260869565217	718.0	-160.0	1.206060606060606	-550.0	-0.4211576846307386	-3.0175170151012534	176.0	1.0699335616631016	-22.0	-1.9774293925866304	152.0	
9.56899675345988	1901.0	-0.8414357616959957	2119.0	2.014986453291132	1277.0	9.652973635806253	-15744.0	1088.0	-0.6670754138565297	1.883507050889025	3072.0	0.0	1525.32958984375	49982.0	-0.391304347826087	721.0	-161.0	1.204040404040404	-564.0	-0.3932135728542915	-2.0359615299687803	111.0	1.5467812198390516	-61.0	-0.9986517915444187	89.0	
9.41112185605698	1906.0	-0.8370427480940691	2119.0	1.9532106705977008	1290.0	9.574494175352545	-15616.0	1024.0	-0.627835683629675	1.9227467811158798	3136.0	0.0	1544.86083984375	50622.0	-0.3934782608695652	720.0	-172.0	1.1818181818181819	-550.0	-0.4211576846307386	1.285886235389546	129.0	2.4959464780661405	-139.0	-1.3056345277531352	-127.0	
9.411361040020685	1905.0	-0.8007104440727033	2116.0	1.9656245782486361	1290.0	9.496014714898834	-15488.0	1024.0	-0.627835683629675	1.883507050889025	3072.0	0.0	1564.39208984375	51262.0	-0.39565217391304347	719.0	-165.0	1.195959595959596	-566.0	-0.3892215568862276	1.1714022663215142	122.0	3.2192961870902406	-187.0	-1.1980258097354586	-119.0	
9.4229448308464	1903.0	-0.83800427144641	2119.0	1.9894638634253248	1289.0	9.53525444512569	-15552.0	1088.0	-0.6670754138565297	1.883507050889025	3072.0	0.0	1583.92333984375	51902.0	-0.4	717.0	-169.0	1.187878787878788	-554.0	-0.4131736526946108	-0.10163125639409408	144.0	3.6361259294001425	-208.0	-1.5198962349645764	-36.0	
9.727860768410972	1907.0	-0.8797767293256101	2122.0	1.943902527137841	1264.0	9.731453096259962	-15872.0	1024.0	-0.627835683629675	1.8442673206621703	3008.0	0.0	1603.45458984375	52542.0	-0.3869565217391304	723.0	-171.0	1.183838383838384	-563.0	-0.3952095808383234	-1.0186575185456657	156.0	4.202003961162185	-241.0	-1.6932354780464827	24.0	
9.532555981779895	1907.0	-0.9002177283382989	2124.0	1.9417450692814033	1280.0	9.770692826486817	-15936.0	1088.0	-0.6670754138565297	1.8050275904353157	2944.0	0.0	1622.98583984375	53182.0	-0.40652173913043477	714.0	-164.0	1.197979797979798	-555.0	-0.4111776447105789	0.17485544569798922	175.0	4.130494394212043	-241.0	-1.9941439917193375	-54.0	
9.617174369030586	1908.0	-0.9870345462003054	2131.0	1.929674892204206	1273.0	9.613733905579398	-15680.0	1344.0	-0.8240343347639485	1.8050275904353157	2944.0	0.0	1642.51708984375	53822.0	-0.3934782608695652	720.0	-165.0	1.195959595959596	-554.0	-0.4131736526946108	-2.444885614135977	170.0	2.9904462170463475	-153.0	-1.891900953744572	116.0	
9.750907678690771	1903.0	-0.9665546304132678	2129.0	1.9914579883140997	1262.0	9.692213366033108	-15808.0	1344.0	-0.8240343347639485	1.9227467811158798	3136.0	0.0	1662.04833984375	54462.0	-0.3934782608695652	720.0	-168.0	1.1898989898989898	-542.0	-0.43712574850299407	-3.8312820129713434	189.0	2.768663259307735	-131.0	-2.1670103737866366	206.0	
9.763458999269094	1902.0	-0.9182782984058951	2125.0	2.004114457611041	1261.0	9.731453096259962	-15872.0	1216.0	-0.745554874310239	1.8442673206621703	3008.0	0.0	1681.57958984375	55102.0	-0.4043478260869565	715.0	-161.0	1.204040404040404	-550.0	-0.4211576846307386	-2.2211080729782617	212.0	2.985430127232124	-152.0	-2.5329219991181264	101.0	
9.7515175118876	1906.0	-0.9414588327346755	2127.0	1.955570466309601	1262.0	9.888412017167381	-16128.0	1216.0	-0.745554874310239	1.9227467811158798	3136.0	0.0	1701.11083984375	55742.0	-0.4043478260869565	715.0	-166.0	1.1939393939393939	-554.0	-0.4131736526946108	0.42853537679978526	235.0	2.7850223310685824	-150.0	-2.909228319547466	-72.0	
9.862438777672576	1902.0	-0.7739650891568612	2113.0	2.0065473874875663	1253.0	9.888412017167381	-16128.0	1152.0	-0.7063151440833844	2.001226241569589	3264.0	0.0	1720.64208984375	56382.0	-0.3934782608695652	720.0	-173.0	1.1797979797979798	-546.0	-0.42914171656686634	1.8147907314314744	242.0	1.853217303624244	-94.0	-3.029554751420779	-163.0	
9.5701926732784	1896.0	-0.659774241589167	2104.0	2.0770559915458073	1277.0	9.731453096259962	-15872.0	832.0	-0.510116492949111	1.883507050889025	3072.0	0.0	1740.17333984375	57022.0	-0.3978260869565217	718.0	-167.0	1.1919191919191918	-560.0	-0.4011976047904192	-0.01859986555539283	253.0	-0.21638474659085716	53.0	-3.178521225679047	-45.0	
9.691863824185463	1895.0	-0.6746651064711544	2105.0	2.0901719871771425	1267.0	9.770692826486817	-15936.0	832.0	-0.510116492949111	1.9619865113427344	3200.0	0.0	1759.70458984375	57662.0	-0.4	717.0	-167.0	1.1919191919191918	-558.0	-0.4051896207584831	-3.7610544433795736	218.0	-2.0461682008810724	191.0	-2.608777288265824	198.0	
9.642615277726986	1895.0	-0.7224412184151824	2109.0	2.089201740593117	1271.0	9.809932556713672	-16000.0	768.0	-0.47087676272225626	2.040465971796444	3328.0	0.0	1779.23583984375	58302.0	-0.3934782608695652	720.0	-168.0	1.1898989898989898	-557.0	-0.407185628742515	-3.284802988516309	194.0	-2.363781130062096	209.0	-2.248520791407613	167.0	
9.582263467149758	1896.0	-0.6722107062836491	2105.0	2.077052334837576	1276.0	9.809932556713672	-16000.0	832.0	-0.510116492949111	1.9619865113427344	3200.0	0.0	1798.76708984375	58942.0	-0.4	717.0	-164.0	1.197979797979798	-557.0	-0.407185628742515	-0.13261166043730827	137.0	-1.1036075740193254	108.0	-1.413122552597148	-37.0	
9.363080023314815	1906.0	-0.7629163966356519	2113.0	1.9534715157848632	1294.0	9.53525444512569	-15552.0	768.0	-0.47087676272225626	1.883507050889025	3072.0	0.0	1818.29833984375	59582.0	-0.391304347826087	721.0	-163.0	1.2	-560.0	-0.4011976047904192	2.664881516035072	80.0	-0.013649575350371035	20.0	-0.574177332270617	-218.0	
9.387460795021235	1905.0	-0.7514570220032503	2112.0	1.9658781100193359	1292.0	9.37829552421827	-15296.0	1024.0	-0.627835683629675	1.765787860208461	2880.0	0.0	1837.82958984375	60222.0	-0.3891304347826087	722.0	-169.0	1.187878787878788	-551.0	-0.4191616766467066	-0.31262613486342694	9.0	0.4352486120167474	1.0	0.5354456529836153	-23.0	
9.691163542530816	1906.0	-0.8792765092622654	2122.0	1.9555887498507574	1267.0	9.692213366033108	-15808.0	1088.0	-0.6670754138565297	1.9227467811158798	3136.0	0.0	1857.36083984375	60862.0	-0.3978260869565217	718.0	-161.0	1.204040404040404	-552.0	-0.4171656686626747	-4.368344356010428	-18.0	1.1658683608871747	-30.0	0.986649223027785	242.0	
9.690318842929397	1906.0	-0.964608233643977	2129.0	1.954726985610926	1267.0	9.849172286940528	-16064.0	1152.0	-0.7063151440833844	1.7265481299816063	2816.0	0.0	1876.89208984375	61502.0	-0.391304347826087	721.0	-166.0	1.1939393939393939	-565.0	-0.39121756487025955	-2.928621063228232	-5.0	2.6028077472655275	-132.0	0.7745333589212557	149.0	
9.605588419425311	1909.0	-0.937788907485722	2127.0	1.9180032963242146	1274.0	9.692213366033108	-15808.0	1024.0	-0.627835683629675	1.883507050889025	3072.0	0.0	1896.42333984375	62142.0	-0.3978260869565217	718.0	-169.0	1.187878787878788	-542.0	-0.43712574850299407	0.46007035955000114	63.0	3.3228663741686204	-193.0	-0.2935740876259183	-72.0	
9.605579784307078	1905.0	-0.8899816621222152	2123.0	1.9666740535110048	1274.0	9.613733905579398	-15680.0	1152.0	-0.7063151440833844	1.8442673206621703	3008.0	0.0	1915.95458984375	62782.0	-0.391304347826087	721.0	-168.0	1.1898989898989898	-564.0	-0.3932135728542915	0.9546695117082469	81.0	3.944070504690027	-236.0	-0.5722843377026339	-104.0	
9.727979281003044	1906.0	-0.8556346716444889	2120.0	1.9561933256116573	1264.0	9.770692826486817	-15936.0	1152.0	-0.7063151440833844	1.8442673206621703	3008.0	0.0	1935.48583984375	63422.0	-0.391304347826087	721.0	-166.0	1.1939393939393939	-558.0	-0.4051896207584831	1.3728353122711945	125.0	4.991209488176163	-306.0	-1.245667516620811	-131.0	
9.716522637887635	1911.0	-0.842006031953168	2119.0	1.8959740817219948	1265.0	9.849172286940528	-16064.0	960.0	-0.5885959534028203	1.8050275904353157	2944.0	0.0	1955.01708984375	64062.0	-0.39565217391304347	719.0	-172.0	1.1818181818181819	-549.0	-0.42315369261477054	1.094766228115977	149.0	5.1750888943709	-316.0	-1.607905837186103	-113.0	
9.898420610441175	1907.0	-0.8954140326251799	2123.0	1.9454517525251473	1250.0	9.927651747394236	-16192.0	1216.0	-0.745554874310239	1.8442673206621703	3008.0	0.0	1974.54833984375	64702.0	-0.4	717.0	-177.0	1.1717171717171717	-527.0	-0.4670658682634731	-0.17390527466550973	161.0	4.34115357880882	-254.0	-1.7777286278617102	-31.0	
9.814179348762288	1913.0	-0.855689155128577	2120.0	1.8727174320568185	1257.0	9.849172286940528	-16064.0	1152.0	-0.7063151440833844	1.765787860208461	2880.0	0.0	1994.07958984375	65342.0	-0.391304347826087	721.0	-164.0	1.197979797979798	-556.0	-0.40918163672654695	0.8183793786475267	129.0	3.3230876539460596	-192.0	-1.300959459185715	-96.0	
9.643735860544599	1911.0	-0.8039579828070094	2116.0	1.895626694440026	1271.0	9.731453096259962	-15872.0	1088.0	-0.6670754138565297	1.8050275904353157	2944.0	0.0	2013.61083984375	446.0	-0.3934782608695652	720.0	-170.0	1.185858585858586	-541.0	-0.439121756487026	2.303824902696364	92.0	2.4325734486144155	-141.0	-0.753076271840652	-193.0	
9.71603995240111	1911.0	-0.8907670173141461	2123.0	1.8954816450135197	1265.0	9.888412017167381	-16128.0	1152.0	-0.7063151440833844	1.8442673206621703	3008.0	0.0	2033.14208984375	1086.0	-0.39565217391304347	719.0	-163.0	1.2	-549.0	-0.42315369261477054	0.5923489166700863	71.0	1.3245237082444044	-60.0	-0.4165698769994005	-82.0	
9.630331205246621	1908.0	-0.8897587938325868	2123.0	1.9307792180900434	1272.0	9.731453096259962	-15872.0	1088.0	-0.6670754138565297	1.765787860208461	2880.0	0.0	2052.67333984375	1726.0	-0.3826086956521739	725.0	-164.0	1.197979797979798	-555.0	-0.4111776447105789	0.30886048552189765	50.0	0.28200357528426306	10.0	-0.09434335770693002	-64.0	
9.630206216315875	1906.0	-0.8780454174910778	2122.0	1.9549914875063197	1272.0	9.613733905579398	-15680.0	1088.0	-0.6670754138565297	1.765787860208461	2880.0	0.0	2072.20458984375	2366.0	-0.391304347826087	721.0	-175.0	1.1757575757575758	-547.0	-0.4271457085828344	0.22272511508337972	23.0	0.46647529027911305	-3.0	0.31716438383015483	-58.0	
9.643011832314812	1911.0	-0.8770994608484763	2122.0	1.8948880393773133	1271.0	9.731453096259962	-15872.0	1024.0	-0.627835683629675	1.765787860208461	2880.0	0.0	2091.73583984375	3006.0	-0.3891304347826087	722.0	-164.0	1.197979797979798	-557.0	-0.407185628742515	0.2931064584975846	20.0	-0.21491101494521686	42.0	0.3620879468218683	-63.0	
9.617784202227417	1911.0	-0.9619387485217129	2129.0	1.893787370199707	1273.0	9.731453096259962	-15872.0	1152.0	-0.7063151440833844	1.765787860208461	2880.0	0.0	2111.26708984375	3646.0	-0.3847826086956522	724.0	-170.0	1.185858585858586	-555.0	-0.4111776447105789	0.6908546808964148	29.0	-0.2071339985568209	40.0	0.22122833532031344	-89.0	
9.435511262881633	1909.0	-0.8733906188251742	2122.0	1.9169465076453833	1288.0	9.45677498467198	-15424.0	1216.0	-0.745554874310239	1.765787860208461	2880.0	0.0	2130.79833984375	4286.0	-0.3891304347826087	722.0	-173.0	1.1797979797979798	-544.0	-0.4331337325349302	1.2747194678581764	70.0	0.48181965421202716	-7.0	-0.40818445703599626	-127.0	
9.471967146018523	1910.0	-0.8982713315690081	2124.0	1.9050140665782296	1285.0	9.613733905579398	-15680.0	1152.0	-0.7063151440833844	1.8442673206621703	3008.0	0.0	2150.32958984375	4926.0	-0.3934782608695652	720.0	-170.0	1.185858585858586	-551.0	-0.4191616766467066	-0.5237106461823424	119.0	0.9516428547914508	-28.0	-1.1354473041845645	-10.0	
9.581696809544091	1913.0	-0.9363427307797758	2127.0	1.8695860709081245	1276.0	9.652973635806253	-15744.0	1216.0	-0.745554874310239	1.6873083997547516	2752.0	0.0	2169.86083984375	5566.0	-0.3869565217391304	723.0	-173.0	1.1797979797979798	-561.0	-0.3992015968063873	-0.07547294951035156	124.0	1.3432774411456634	-56.0	-1.21597530852771	-39.0	
9.545003901223055	1914.0	-0.9597461333981845	2129.0	1.8569369150276456	1279.0	9.613733905579398	-15680.0	1280.0	-0.7847946045370937	1.765787860208461	2880.0	0.0	2189.39208984375	6206.0	-0.3826086956521739	725.0	-175.0	1.1757575757575758	-545.0	-0.43113772455089827	1.35431725093114	87.0	1.0263519887658765	-43.0	-0.6675355679465739	-132.0	
9.496832761991026	1910.0	-0.850002782916505	2120.0	1.9057454082244796	1283.0	9.574494175352545	-15616.0	1152.0	-0.7063151440833844	1.7265481299816063	2816.0	0.0	2208.92333984375	6846.0	-0.391304347826087	721.0	-166.0	1.1939393939393939	-548.0	-0.42514970059880247	1.816547595718125	93.0	1.2976810218452894	-63.0	-0.7634126242461546	-162.0	
9.618251776257035	1904.0	-0.8295150837745978	2118.0	1.9794536319850649	1273.0	9.652973635806253	-15744.0	1088.0	-0.6670754138565297	1.9227467811158798	3136.0	0.0	2228.45458984375	7486.0	-0.3978260869565217	718.0	-169.0	1.187878787878788	-537.0	-0.44710578842315374	0.8224104724605299	111.0	1.917553670898757	-99.0	-1.027235511568712	-97.0	
9.582173018691943	1910.0	-0.8517263113961676	2120.0	1.9065815755066922	1276.0	9.692213366033108	-15808.0	1152.0	-0.7063151440833844	1.883507050889025	3072.0	0.0	2247.98583984375	8126.0	-0.3826086956521739	725.0	-171.0	1.183838383838384	-558.0	-0.4051896207584831	0.5462497204310116	125.0	2.140194118231808	-112.0	-1.2374016607024092	-79.0	
9.668489440263702	1915.0	-0.8156869258582577	2117.0	1.8475641697223673	1269.0	9.770692826486817	-15936.0	1024.0	-0.627835683629675	1.765787860208461	2880.0	0.0	2267.51708984375	8766.0	-0.3891304347826087	722.0	-167.0	1.1919191919191918	-553.0	-0.41516966067864275	0.16861767377789783	74.0	1.970533151479898	-101.0	-0.45795994099633414	-54.0	
9.77759631791509	1909.0	-0.8071432547023577	2116.0	1.921029831836946	1260.0	9.849172286940528	-16064.0	1152.0	-0.7063151440833844	1.765787860208461	2880.0	0.0	2287.04833984375	9406.0	-0.3826086956521739	725.0	-169.0	1.187878787878788	-551.0	-0.4191616766467066	0.38407773881656077	34.0	1.421457402756469	-67.0	0.14825047736468613	-68.0	
9.655558835334018	1908.0	-0.8049195061593504	2116.0	1.93187988726765	1270.0	9.770692826486817	-15936.0	960.0	-0.5885959534028203	1.8442673206621703	3008.0	0.0	2306.57958984375	10046.0	-0.3826086956521739	725.0	-171.0	1.183838383838384	-546.0	-0.42914171656686634	2.329871614005107	58.0	1.4505559469808795	-77.0	-0.2362264727940435	-195.0	
9.66738181012344	1905.0	-0.8058810295116912	2116.0	1.9681330800952737	1269.0	9.809932556713672	-16000.0	896.0	-0.5493562231759657	1.883507050889025	3072.0	0.0	2326.11083984375	10686.0	-0.3847826086956522	724.0	-178.0	1.1696969696969697	-542.0	-0.43712574850299407	2.0823669008234886	54.0	1.1954837474760074	-59.0	-0.1729149237610866	-179.0	
9.71688249322297	1910.0	-0.7934834815915577	2115.0	1.9085110985500484	1265.0	9.809932556713672	-16000.0	1024.0	-0.627835683629675	1.7265481299816063	2816.0	0.0	2345.64208984375	11326.0	-0.3804347826086957	726.0	-173.0	1.1797979797979798	-561.0	-0.3992015968063873	2.781722301650866	53.0	0.5165150891381214	-17.0	-0.1646993522940752	-225.0	
9.557787929426409	1909.0	-0.8392820633468159	2119.0	1.9185103598656148	1278.0	9.613733905579398	-15680.0	1152.0	-0.7063151440833844	1.765787860208461	2880.0	0.0	2365.17333984375	11966.0	-0.3869565217391304	723.0	-175.0	1.1757575757575758	-541.0	-0.439121756487026	1.8116501185051446	52.0	-1.3506092354421937	112.0	-0.13978950498733284	-163.0	
9.655810971975072	1913.0	-0.8402980701832449	2119.0	1.8712876591383998	1270.0	9.731453096259962	-15872.0	1024.0	-0.627835683629675	1.765787860208461	2880.0	0.0	2384.70458984375	12606.0	-0.3739130434782609	729.0	-168.0	1.1898989898989898	-564.0	-0.3932135728542915	0.5493430401816903	6.0	-2.430167738522977	188.0	0.5724533376590196	-81.0	
9.447332078891495	1905.0	-0.8624003308366384	2121.0	1.9653673897697046	1287.0	9.53525444512569	-15552.0	1024.0	-0.627835683629675	1.8442673206621703	3008.0	0.0	2404.23583984375	13246.0	-0.3826086956521739	725.0	-175.0	1.1757575757575758	-538.0	-0.4451097804391218	1.6111982367547346	8.0	-2.1130510327151635	162.0	0.5314165347427188	-150.0	
9.53290504321744	1901.0	-0.7919361212723051	2115.0	2.015120532592945	1280.0	9.574494175352545	-15616.0	960.0	-0.5885959534028203	2.0797057020232983	3392.0	0.0	2423.76708984375	13886.0	-0.3782608695652174	727.0	-175.0	1.1757575757575758	-558.0	-0.4051896207584831	1.4872431935536865	7.0	-0.7107292781516701	69.0	0.5478652106500145	-141.0	
9.691286372682006	1907.0	-0.8790380742628976	2122.0	1.9435441697311786	1267.0	9.731453096259962	-15872.0	1088.0	-0.6670754138565297	1.883507050889025	3072.0	0.0	2443.29833984375	14526.0	-0.3826086956521739	725.0	-167.0	1.1919191919191918	-554.0	-0.4131736526946108	0.1617716595265661	71.0	-0.2946835269522597	50.0	-0.41226410442796535	-55.0	
9.824896852191003	1901.0	-0.858796593475228	2120.0	2.017371845960651	1256.0	9.927651747394236	-16192.0	1024.0	-0.627835683629675	1.9619865113427344	3200.0	0.0	2462.82958984375	15166.0	-0.3739130434782609	729.0	-173.0	1.1797979797979798	-562.0	-0.39720558882235535	-0.1826172926470258	64.0	0.4596600726441133	1.0	-0.3023563365792332	-32.0	
9.594125299971227	1911.0	-0.8883048337717709	2123.0	1.8942871203246447	1275.0	9.652973635806253	-15744.0	1152.0	-0.7063151440833844	1.8050275904353157	2944.0	0.0	2482.36083984375	15806.0	-0.3717391304347826	730.0	-172.0	1.1818181818181819	-541.0	-0.439121756487026	2.5324491100185123	133.0	1.3621438996991944	-69.0	-1.3789366584005653	-209.0	
9.691894047099279	1909.0	-0.8419904652434286	2119.0	1.9198243370233774	1267.0	9.692213366033108	-15808.0	1024.0	-0.627835683629675	1.765787860208461	2880.0	0.0	2501.89208984375	16446.0	-0.3760869565217391	728.0	-165.0	1.195959595959596	-549.0	-0.42315369261477054	1.5289124320775298	137.0	2.3639587449437403	-131.0	-1.4297377935222964	-143.0	
9.595323378569306	1907.0	-0.7185951250058189	2109.0	1.9441889692826224	1275.0	9.692213366033108	-15808.0	896.0	-0.5493562231759657	1.8442673206621703	3008.0	0.0	2521.42333984375	17086.0	-0.3804347826086957	726.0	-172.0	1.1818181818181819	-539.0	-0.44311377245508987	2.738983252745561	200.0	3.0826825031773866	-182.0	-2.4000134066719427	-222.0	
9.511939769169185	1919.0	-0.6652493911727648	2105.0	1.7993102772739398	1282.0	9.574494175352545	-15616.0	768.0	-0.47087676272225626	1.7265481299816063	2816.0	0.0	2540.95458984375	17726.0	-0.3652173913043478	733.0	-176.0	1.1737373737373737	-550.0	-0.4211576846307386	3.2278317991411147	318.0	4.649681098900447	-284.0	-4.199578698219549	-254.0	
9.890105740547295	1914.0	-0.5887426107692552	2098.0	1.8640979686471775	1251.0	10.006131207847945	-16320.0	576.0	-0.3531575720416922	1.765787860208461	2880.0	0.0	2560.48583984375	18366.0	-0.3760869565217391	728.0	-168.0	1.1898989898989898	-560.0	-0.4011976047904192	1.1096202298591524	279.0	5.567985087031702	-337.0	-3.585240688990607	-115.0	
9.719190360740873	1917.0	-0.6455314805130492	2103.0	1.8256763478384224	1265.0	9.849172286940528	-16064.0	832.0	-0.510116492949111	1.7265481299816063	2816.0	0.0	2580.01708984375	19006.0	-0.3673913043478261	732.0	-178.0	1.1696969696969697	-536.0	-0.44910179640718567	4.7544583338149655	248.0	4.3059397920307125	-271.0	-3.150206180296325	-353.0	
9.670534377242758	1912.0	-0.5725973040514709	2097.0	1.8861600936234786	1269.0	9.770692826486817	-15936.0	640.0	-0.39239730226854685	1.8050275904353157	2944.0	0.0	2599.54833984375	19646.0	-0.3695652173913044	731.0	-176.0	1.1737373737373737	-557.0	-0.407185628742515	3.6929215913188447	136.0	2.347667876174667	-140.0	-1.4361687596394241	-284.0	
9.584832106426946	1912.0	-0.6074445145925419	2100.0	1.8849545988099097	1276.0	9.692213366033108	-15808.0	768.0	-0.47087676272225626	1.8050275904353157	2944.0	0.0	2619.07958984375	20286.0	-0.3673913043478261	732.0	-167.0	1.1919191919191918	-551.0	-0.4191616766467066	1.5369619437980206	74.0	0.6758960904364226	-21.0	-0.4716433836965354	-144.0	
9.607749710216883	1904.0	-0.6586054166569373	2104.0	1.98105770799584	1274.0	9.652973635806253	-15744.0	896.0	-0.5493562231759657	1.8442673206621703	3008.0	0.0	2638.61083984375	20926.0	-0.3695652173913044	731.0	-164.0	1.197979797979798	-557.0	-0.407185628742515	0.07850999935724748	51.0	0.2836518303922082	11.0	-0.10724897832056869	-49.0	
9.510355929881072	1912.0	-0.7400599142098063	2111.0	1.8828836830482785	1282.0	9.574494175352545	-15616.0	832.0	-0.510116492949111	1.7265481299816063	2816.0	0.0	2658.14208984375	21566.0	-0.3695652173913044	731.0	-174.0	1.1777777777777778	-539.0	-0.44311377245508987	0.6913617512880272	82.0	0.6496617614984539	-15.0	-0.5848603855737168	-89.0	
9.619831297986032	1909.0	-0.7308009380558029	2110.0	1.920215604804121	1273.0	9.652973635806253	-15744.0	896.0	-0.5493562231759657	1.8050275904353157	2944.0	0.0	2677.67333984375	22206.0	-0.3739130434782609	729.0	-166.0	1.1939393939393939	-550.0	-0.4211576846307386	0.021589686022260173	34.0	0.47217382760276655	-2.0	0.1518753578926291	-45.0	
9.437211455982261	1914.0	-0.7624862267661348	2113.0	1.8578315896415583	1288.0	9.496014714898834	-15488.0	1152.0	-0.7063151440833844	1.7265481299816063	2816.0	0.0	2697.20458984375	22846.0	-0.36086956521739133	735.0	-167.0	1.1919191919191918	-553.0	-0.41516966067864275	0.4695523187542734	7.0	0.3496072541106808	3.0	0.5580421193980086	-74.0	
9.473063982260996	1915.0	-0.848318171211191	2120.0	1.8452836026888109	1285.0	9.53525444512569	-15552.0	960.0	-0.5885959534028203	1.7265481299816063	2816.0	0.0	2716.73583984375	23486.0	-0.3717391304347826	730.0	-177.0	1.1717171717171717	-538.0	-0.4451097804391218	-1.8714567429408075	-44.0	-1.2426230621994059	118.0	1.3571176092545032	78.0	
9.679952559717785	1913.0	-0.865170999572209	2121.0	1.8712803457219371	1268.0	9.809932556713672	-16000.0	1024.0	-0.627835683629675	1.8050275904353157	2944.0	0.0	2736.26708984375	24126.0	-0.3652173913043478	733.0	-171.0	1.183838383838384	-563.0	-0.3952095808383234	-6.95860291957381	-74.0	-2.406059013688685	218.0	1.8642628352793884	409.0	
9.593271965251574	1907.0	-0.9258293127899755	2126.0	1.9420961132716035	1275.0	9.652973635806253	-15744.0	1088.0	-0.6670754138565297	1.8050275904353157	2944.0	0.0	2755.79833984375	24766.0	-0.3695652173913044	731.0	-178.0	1.1696969696969697	-554.0	-0.4131736526946108	-6.309343437824522	-47.0	-3.064506775526416	260.0	1.4471238526291959	366.0	
9.544865959614958	1906.0	-0.8763218890114153	2122.0	1.954155320224107	1279.0	9.652973635806253	-15744.0	1088.0	-0.6670754138565297	1.9227467811158798	3136.0	0.0	2775.32958984375	25406.0	-0.3717391304347826	730.0	-175.0	1.1757575757575758	-547.0	-0.4271457085828344	-4.330775457118275	16.0	-2.2343528784020448	198.0	0.4691632678791676	237.0	
9.544488834043158	1899.0	-0.8292299486460117	2118.0	2.0389598177696335	1279.0	9.613733905579398	-15680.0	1024.0	-0.627835683629675	2.001226241569589	3264.0	0.0	2794.86083984375	26046.0	-0.3782608695652174	727.0	-168.0	1.1898989898989898	-550.0	-0.4211576846307386	-3.148219881976978	44.0	-1.729909383470774	160.0	0.03148219881976978	160.0	
9.543754011915578	1894.0	-0.8426123699830952	2119.0	2.099059609190409	1279.0	9.574494175352545	-15616.0	1024.0	-0.627835683629675	2.0797057020232983	3392.0	0.0	2814.39208984375	26686.0	-0.3739130434782609	729.0	-168.0	1.1898989898989898	-561.0	-0.3992015968063873	-3.230614150718131	78.0	-1.7784528504606316	165.0	-0.48480412465251455	165.0	
9.728453331371337	1902.0	-0.7590664409200041	2112.0	2.0053565195069227	1264.0	9.809932556713672	-16000.0	896.0	-0.5493562231759657	1.9227467811158798	3136.0	0.0	2833.92333984375	27326.0	-0.3739130434782609	729.0	-175.0	1.1757575757575758	-542.0	-0.43712574850299407	-4.979023779447312	118.0	-1.0477212933637128	126.0	-1.0756850473766297	279.0	
9.715910645911245	1907.0	-0.8551500182908836	2120.0	1.944029293023191	1265.0	9.731453096259962	-15872.0	1024.0	-0.627835683629675	1.8442673206621703	3008.0	0.0	2853.45458984375	27966.0	-0.3760869565217391	728.0	-166.0	1.1939393939393939	-549.0	-0.42315369261477054	-3.4288338737631396	145.0	-0.6294435278497414	92.0	-1.501833334266171	178.0	
9.776992961056935	1909.0	-0.8680944864035802	2121.0	1.9204142859513522	1260.0	9.888412017167381	-16128.0	1152.0	-0.7063151440833844	1.765787860208461	2880.0	0.0	2872.98583984375	28606.0	-0.3782608695652174	727.0	-182.0	1.1616161616161615	-540.0	-0.44111776447105794	-3.14167267514292	133.0	-1.2564304774268829	132.0	-1.322195440548951	159.0	
9.678722099426333	1902.0	-0.85560353822501	2120.0	2.0038938362144223	1268.0	9.692213366033108	-15808.0	1088.0	-0.6670754138565297	1.9227467811158798	3136.0	0.0	2892.51708984375	29246.0	-0.3695652173913044	731.0	-172.0	1.1818181818181819	-551.0	-0.4191616766467066	-1.1140261013661046	176.0	-0.4268672470123249	69.0	-1.9964643017239818	27.0	
9.571074072132308	1913.0	-0.7776233100023597	2114.0	1.8710670377417808	1277.0	9.652973635806253	-15744.0	896.0	-0.5493562231759657	1.8442673206621703	3008.0	0.0	2912.04833984375	29886.0	-0.3782608695652174	727.0	-170.0	1.185858585858586	-560.0	-0.4011976047904192	-0.4638502079743621	222.0	0.8302281202728391	-16.0	-2.702585832521017	-15.0	
9.534004038239472	1907.0	-0.7539347722553649	2112.0	1.9432223794068284	1280.0	9.652973635806253	-15744.0	960.0	-0.5885959534028203	1.8050275904353157	2944.0	0.0	2931.57958984375	30526.0	-0.3673913043478261	732.0	-167.0	1.1919191919191918	-564.0	-0.3932135728542915	-0.26280195563135983	227.0	1.0591570469748381	-32.0	-2.780641942420873	-28.0	
9.583375414849138	1908.0	-0.7059202253119691	2108.0	1.9321480458712748	1276.0	9.652973635806253	-15744.0	832.0	-0.510116492949111	1.8050275904353157	2944.0	0.0	2951.11083984375	31166.0	-0.3739130434782609	729.0	-174.0	1.1777777777777778	-552.0	-0.4171656686626747	0.07686665026713768	229.0	1.2916054057604662	-49.0	-2.814456879430428	-50.0	
9.510711467657291	1909.0	-0.6676337411664427	2105.0	1.9197560784697274	1282.0	9.574494175352545	-15616.0	704.0	-0.4316370324954016	1.8050275904353157	2944.0	0.0	2970.64208984375	31806.0	-0.3782608695652174	727.0	-180.0	1.1656565656565656	-527.0	-0.4670658682634731	1.6408436648803741	219.0	2.5259942926846053	-139.0	-2.678005394823709	-151.0	
9.389891492690325	1913.0	-0.6032665859253739	2100.0	1.8709987791881308	1292.0	9.496014714898834	-15488.0	832.0	-0.510116492949111	1.765787860208461	2880.0	0.0	2990.17333984375	32446.0	-0.3739130434782609	729.0	-169.0	1.187878787878788	-565.0	-0.39121756487025955	1.1469104080687686	156.0	2.821895126123493	-159.0	-1.7148911573126269	-118.0	
9.450251938385785	1916.0	-0.7013043434204141	2108.0	1.834477427756882	1287.0	9.53525444512569	-15552.0	896.0	-0.5493562231759657	1.6873083997547516	2752.0	0.0	3009.70458984375	33086.0	-0.3739130434782609	729.0	-173.0	1.1797979797979798	-545.0	-0.43113772455089827	-1.6326459456191682	88.0	1.6246580897160636	-69.0	-0.6528750614563559	63.0	
9.717240189778748	1908.0	-0.7330091198890708	2110.0	1.9332158046747998	1265.0	9.849172286940528	-16064.0	896.0	-0.5493562231759657	1.8050275904353157	2944.0	0.0	3029.23583984375	33726.0	-0.3847826086956522	724.0	-171.0	1.183838383838384	-550.0	-0.4211576846307386	-1.18773801469812	-16.0	1.5604075432430242	-71.0	0.9244249086640915	35.0	
9.5107265791142	1916.0	-0.7512964205525798	2112.0	1.8345822533928446	1282.0	9.574494175352545	-15616.0	896.0	-0.5493562231759657	1.7265481299816063	2816.0	0.0	3048.76708984375	34366.0	-0.3760869565217391	728.0	-167.0	1.1919191919191918	-563.0	-0.3952095808383234	-0.15802651472479684	17.0	0.669235458577205	-15.0	0.41222665297994765	-33.0	
9.594849328201015	1911.0	-0.8151633557303039	2117.0	1.8950257753873574	1275.0	9.652973635806253	-15744.0	1088.0	-0.6670754138565297	1.883507050889025	3072.0	0.0	3068.29833984375	35006.0	-0.3717391304347826	730.0	-174.0	1.1777777777777778	-549.0	-0.42315369261477054	-2.477758306674557	-9.0	0.05025360964818899	36.0	0.8308612332568597	118.0	
9.593263330133343	1903.0	-0.8780220674264686	2122.0	1.9907668704583936	1275.0	9.613733905579398	-15680.0	960.0	-0.5885959534028203	1.9227467811158798	3136.0	0.0	3087.82958984375	35646.0	-0.3804347826086957	726.0	-178.0	1.1696969696969697	-529.0	-0.46307385229540926	-1.529582316815332	24.0	0.21423165885512646	22.0	0.3194783326738568	56.0	
9.556921642029408	1899.0	-0.8050956743197603	2116.0	2.0393254885927585	1278.0	9.613733905579398	-15680.0	1088.0	-0.6670754138565297	1.9619865113427344	3200.0	0.0	3107.36083984375	36286.0	-0.3717391304347826	730.0	-173.0	1.1797979797979798	-556.0	-0.40918163672654695	-0.4900002247879758	29.0	1.419281388935784	-63.0	0.23303688437715736	-11.0	
9.617639784280644	1900.0	-0.8426590701123136	2119.0	2.0275088432862614	1273.0	9.692213366033108	-15808.0	1024.0	-0.627835683629675	1.9227467811158798	3136.0	0.0	3126.89208984375	36926.0	-0.3804347826086957	726.0	-175.0	1.1757575757575758	-542.0	-0.43712574850299407	-0.2593472744634932	67.0	2.041038467988797	-104.0	-0.34721641318692403	-26.0	
9.654218497568726	1902.0	-0.8673013478567795	2121.0	2.0035318220995286	1270.0	9.770692826486817	-15936.0	1216.0	-0.745554874310239	1.8442673206621703	3008.0	0.0	3146.42333984375	37566.0	-0.3826086956521739	725.0	-172.0	1.1818181818181819	-554.0	-0.4131736526946108	-0.3511998126448643	72.0	2.140428252230033	-110.0	-0.4223435151815362	-20.0	
9.702618026866668	1900.0	-0.8809533376127097	2122.0	2.027975683037117	1266.0	9.770692826486817	-15936.0	1088.0	-0.6670754138565297	1.9227467811158798	3136.0	0.0	3165.95458984375	38206.0	-0.3760869565217391	728.0	-179.0	1.1676767676767676	-560.0	-0.4011976047904192	0.31385296808723956	77.0	2.726867561207425	-152.0	-0.5050396703652831	-63.0	
9.715065946309826	1907.0	-0.9404817426725951	2127.0	1.9431675287833596	1265.0	9.731453096259962	-15872.0	1344.0	-0.8240343347639485	1.883507050889025	3072.0	0.0	3185.48583984375	38846.0	-0.3782608695652174	727.0	-172.0	1.1818181818181819	-547.0	-0.4271457085828344	1.1564598973315081	108.0	3.0469015244763997	-176.0	-0.9849486293915661	-118.0	
9.81344452663471	1908.0	-0.8690715764656605	2121.0	1.9328172234775935	1257.0	9.927651747394236	-16192.0	960.0	-0.5885959534028203	1.765787860208461	2880.0	0.0	3205.01708984375	39486.0	-0.3804347826086957	726.0	-167.0	1.1919191919191918	-547.0	-0.4271457085828344	0.43274001988215527	99.0	2.6720070378282457	-148.0	-0.840829301339506	-71.0	
9.753099192396157	1912.0	-0.8546964983567572	2120.0	1.8841647498319598	1262.0	9.888412017167381	-16128.0	1024.0	-0.627835683629675	1.8050275904353157	2944.0	0.0	3224.54833984375	40126.0	-0.3739130434782609	729.0	-172.0	1.1818181818181819	-563.0	-0.3952095808383234	0.48069547159562886	122.0	1.6781639827018129	-81.0	-1.1911187417881997	-75.0	
9.704201866154781	1907.0	-0.8061428145756682	2116.0	1.9444022772627787	1266.0	9.770692826486817	-15936.0	1024.0	-0.627835683629675	1.8442673206621703	3008.0	0.0	3244.07958984375	40766.0	-0.3673913043478261	732.0	-174.0	1.1777777777777778	-550.0	-0.4211576846307386	-0.3004803803288917	136.0	0.5116656249155924	1.0	-1.3962347399229469	-25.0	
9.569731575587458	1906.0	-0.8280533403589122	2118.0	1.9548866618703573	1277.0	9.613733905579398	-15680.0	960.0	-0.5885959534028203	1.8442673206621703	3008.0	0.0	3263.61083984375	41406.0	-0.3826086956521739	725.0	-168.0	1.1898989898989898	-558.0	-0.4051896207584831	-0.41178511853087996	123.0	-0.07320395672960896	40.0	-1.1974030613622197	-18.0	
9.53339420504264	1904.0	-0.7790305699339573	2114.0	1.9791099014113271	1280.0	9.652973635806253	-15744.0	1024.0	-0.627835683629675	1.883507050889025	3072.0	0.0	3283.14208984375	42046.0	-0.3739130434782609	729.0	-180.0	1.1656565656565656	-537.0	-0.44710578842315374	-0.11846622516727104	115.0	-0.02352335311917772	35.0	-1.0786632464935746	-37.0	
9.522060392078421	1910.0	-0.7651634952432684	2113.0	1.906846077402086	1281.0	9.53525444512569	-15552.0	960.0	-0.5885959534028203	1.8050275904353157	2944.0	0.0	3302.67333984375	42686.0	-0.3673913043478261	732.0	-176.0	1.1737373737373737	-546.0	-0.42914171656686634	-0.10516873852707125	106.0	1.1694761564896365	-45.0	-0.94191409208241	-37.0	
9.64348804146266	1908.0	-0.7924830414648683	2115.0	1.931883543975881	1271.0	9.692213366033108	-15808.0	1024.0	-0.627835683629675	1.883507050889025	3072.0	0.0	3322.20458984375	43326.0	-0.3869565217391304	723.0	-183.0	1.1595959595959595	-543.0	-0.43512974051896214	-0.8658475354163195	75.0	1.36847762639316	-56.0	-0.46282441437967714	13.0	
9.679941765819994	1908.0	-0.8054119428678254	2116.0	1.9321187922054248	1268.0	9.809932556713672	-16000.0	1088.0	-0.6670754138565297	1.8442673206621703	3008.0	0.0	3341.73583984375	43966.0	-0.3695652173913044	731.0	-176.0	1.1737373737373737	-562.0	-0.39720558882235535	-0.03220533900628266	50.0	1.4751570490252472	-68.0	-0.09093269946164823	-41.0	
9.594605826678194	1910.0	-0.8275920370699161	2118.0	1.9069472463298172	1275.0	9.613733905579398	-15680.0	1152.0	-0.7063151440833844	1.7265481299816063	2816.0	0.0	3361.26708984375	44606.0	-0.3673913043478261	732.0	-180.0	1.1656565656565656	-546.0	-0.42914171656686634	2.0289156066088614	43.0	1.8221970997655093	-101.0	-0.00508003059080344	-175.0	
9.570957718319795	1915.0	-0.8137171790243576	2117.0	1.8466085499712672	1277.0	9.692213366033108	-15808.0	960.0	-0.5885959534028203	1.7265481299816063	2816.0	0.0	3380.79833984375	45246.0	-0.3739130434782609	729.0	-169.0	1.187878787878788	-548.0	-0.42514970059880247	1.810850128348164	68.0	1.882568590023991	-103.0	-0.3831275126903258	-161.0	
9.667627470425817	1907.0	-0.8054041595129556	2116.0	1.9440439198561161	1269.0	9.770692826486817	-15936.0	1152.0	-0.7063151440833844	1.883507050889025	3072.0	0.0	3400.32958984375	45886.0	-0.3804347826086957	726.0	-172.0	1.1818181818181819	-553.0	-0.41516966067864275	0.595041506610238	70.0	1.5786005026836993	-77.0	-0.4013876774235169	-82.0	
9.655571788011368	1914.0	-0.8766303742046105	2122.0	1.8588737514874647	1270.0	9.770692826486817	-15936.0	1152.0	-0.7063151440833844	1.765787860208461	2880.0	0.0	3419.86083984375	46526.0	-0.3739130434782609	729.0	-176.0	1.1737373737373737	-553.0	-0.41516966067864275	1.0493232540417965	112.0	1.6025188313571936	-79.0	-1.0447137648598097	-112.0	
9.510489553930054	1918.0	-0.7995805359148223	2116.0	1.8100006564452122	1282.0	9.496014714898834	-15488.0	960.0	-0.5885959534028203	1.7265481299816063	2816.0	0.0	3439.39208984375	47166.0	-0.3782608695652174	727.0	-183.0	1.1595959595959595	-553.0	-0.41516966067864275	1.7674259451592114	102.0	1.1266651289177811	-51.0	-0.8998035370181322	-159.0	
9.595700504141108	1914.0	-0.7656870653712224	2113.0	1.8593844717370958	1275.0	9.652973635806253	-15744.0	1024.0	-0.627835683629675	1.765787860208461	2880.0	0.0	3458.92333984375	47806.0	-0.3652173913043478	733.0	-175.0	1.1757575757575758	-555.0	-0.4111776447105789	-0.3946220011382361	92.0	-0.36312289275575743	58.0	-0.7260918028023059	-19.0	
9.680189584901932	1911.0	-0.8168868842099665	2117.0	1.8958619426695698	1268.0	9.770692826486817	-15936.0	1088.0	-0.6670754138565297	1.7265481299816063	2816.0	0.0	3478.45458984375	48446.0	-0.3673913043478261	732.0	-176.0	1.1737373737373737	-543.0	-0.43512974051896214	-2.7337679116788234	96.0	-0.9325175609642578	107.0	-0.7635368455980407	133.0	
9.656280704784248	1907.0	-0.7198262167770064	2109.0	1.9447862316270599	1270.0	9.692213366033108	-15808.0	896.0	-0.5493562231759657	1.8442673206621703	3008.0	0.0	3497.98583984375	49086.0	-0.3760869565217391	728.0	-169.0	1.187878787878788	-550.0	-0.4211576846307386	-1.3952153689819315	68.0	-1.0277225347201548	106.0	-0.35106685771702484	46.0	
9.582530715247719	1908.0	-0.7912519496936806	2115.0	1.9312862816314433	1276.0	9.613733905579398	-15680.0	832.0	-0.510116492949111	1.883507050889025	3072.0	0.0	3517.51708984375	49726.0	-0.3760869565217391	728.0	-180.0	1.1656565656565656	-549.0	-0.42315369261477054	-0.30714123114677205	80.0	-1.0061970919965895	100.0	-0.5444571047987985	-25.0	
9.64361087161385	1909.0	-0.7922446064655004	2115.0	1.919838963856302	1271.0	9.770692826486817	-15936.0	1088.0	-0.6670754138565297	1.8050275904353157	2944.0	0.0	3537.04833984375	50366.0	-0.3847826086956522	724.0	-177.0	1.1717171717171717	-550.0	-0.4211576846307386	-1.3307478421208339	23.0	-1.4044134866520972	129.0	0.33269911340219693	42.0	
9.520724371872243	1906.0	-0.8514489596224512	2120.0	1.9541626336405697	1281.0	9.574494175352545	-15616.0	1152.0	-0.7063151440833844	1.8442673206621703	3008.0	0.0	3556.57958984375	51006.0	-0.3739130434782609	729.0	-168.0	1.1898989898989898	-562.0	-0.39720558882235535	-1.2601147918821018	-16.0	-1.0732356927351354	105.0	0.9251486764359313	38.0	
9.544376797789758	1903.0	-0.8892274403497631	2123.0	1.9901659514057246	1279.0	9.613733905579398	-15680.0	1088.0	-0.6670754138565297	1.9227467811158798	3136.0	0.0	3576.11083984375	51646.0	-0.3739130434782609	729.0	-181.0	1.1636363636363636	-541.0	-0.439121756487026	-1.057813292762824	3.0	-0.5060417992838347	67.0	0.6341522774143202	25.0	
9.544618140533021	1903.0	-0.8648469476692742	2121.0	1.9904121697599622	1279.0	9.652973635806253	-15744.0	1024.0	-0.627835683629675	1.9227467811158798	3136.0	0.0	3595.64208984375	52286.0	-0.3673913043478261	732.0	-175.0	1.1757575757575758	-554.0	-0.4131736526946108	-0.8528231180205168	20.0	0.2996282922760951	13.0	0.3735472425870493	12.0	
9.326520739042758	1913.0	-0.8458404209590764	2120.0	1.8679393333013183	1297.0	9.417535254445125	-15360.0	1024.0	-0.627835683629675	1.7265481299816063	2816.0	0.0	3615.17333984375	52926.0	-0.3760869565217391	728.0	-182.0	1.1616161616161615	-555.0	-0.4111776447105789	1.0876629306760186	42.0	1.3023922748145125	-62.0	0.01954162164381016	-114.0	
9.496468589096574	1909.0	-0.8746217105963618	2122.0	1.9175437699898208	1283.0	9.613733905579398	-15680.0	1024.0	-0.627835683629675	1.8050275904353157	2944.0	0.0	3634.70458984375	53566.0	-0.3695652173913044	731.0	-171.0	1.183838383838384	-561.0	-0.3992015968063873	-1.1206847749878799	11.0	1.002451350843714	-33.0	0.5131079884342896	30.0	
9.494268440272954	1896.0	-0.9386725972893655	2127.0	2.073507765658751	1283.0	9.574494175352545	-15616.0	1216.0	-0.745554874310239	2.001226241569589	3264.0	0.0	3654.23583984375	54206.0	-0.3760869565217391	728.0	-175.0	1.1757575757575758	-549.0	-0.42315369261477054	-2.4861443208802654	-94.0	0.9886314969972485	-30.0	2.1237207587981564	120.0	
9.409053172502784	1898.0	-0.9486624451512119	2128.0	2.048459328960262	1290.0	9.496014714898834	-15488.0	1216.0	-0.745554874310239	1.9619865113427344	3200.0	0.0	3673.76708984375	54846.0	-0.3804347826086957	726.0	-171.0	1.183838383838384	-553.0	-0.41516966067864275	-3.5840204589695595	-108.0	1.4913091746377556	-59.0	2.3476272768330415	192.0	
9.615823237367502	1897.0	-0.989657331193351	2131.0	2.062165273519572	1273.0	9.731453096259962	-15872.0	1216.0	-0.745554874310239	2.001226241569589	3264.0	0.0	3693.29833984375	55486.0	-0.3782608695652174	727.0	-177.0	1.1717171717171717	-550.0	-0.4211576846307386	-4.068057900703382	-83.0	1.0454546823695592	-26.0	1.9722395143682507	223.0	
9.590586972161871	1893.0	-1.0266893735030806	2134.0	2.1097353615287555	1275.0	9.652973635806253	-15744.0	1344.0	-0.8240343347639485	2.001226241569589	3264.0	0.0	3712.82958984375	56126.0	-0.3804347826086957	726.0	-177.0	1.1717171717171717	-540.0	-0.44111776447105794	-1.466221287375451	17.0	1.8397460846187579	-87.0	0.42530860070645415	53.0	
9.63983551862035	1893.0	-0.9789132615590527	2130.0	2.110705608112781	1271.0	9.731453096259962	-15872.0	1344.0	-0.8240343347639485	2.0797057020232983	3392.0	0.0	3732.36083984375	56766.0	-0.3782608695652174	727.0	-171.0	1.183838383838384	-563.0	-0.3952095808383234	0.28902925075922636	79.0	3.344504675644641	-193.0	-0.5352096841425733	-61.0	
9.568389079042609	1899.0	-0.8784833707154647	2122.0	2.0387062859989333	1277.0	9.652973635806253	-15744.0	1152.0	-0.7063151440833844	1.883507050889025	3072.0	0.0	3751.89208984375	57406.0	-0.3869565217391304	723.0	-170.0	1.185858585858586	-554.0	-0.4131736526946108	0.9596325456449112	148.0	3.9245155188092955	-232.0	-1.591345374886107	-105.0	
9.665920800986516	1899.0	-0.8804531175493648	2122.0	2.039661905750034	1269.0	9.809932556713672	-16000.0	1216.0	-0.745554874310239	2.040465971796444	3328.0	0.0	3771.42333984375	58046.0	-0.3826086956521739	725.0	-176.0	1.1737373737373737	-548.0	-0.42514970059880247	-0.732293382432697	170.0	3.890740052592363	-221.0	-1.9090268760616047	5.0	
9.898797736012977	1914.0	-0.9425059729905834	2127.0	1.860647254979621	1250.0	9.927651747394236	-16192.0	1152.0	-0.7063151440833844	1.7265481299816063	2816.0	0.0	3790.95458984375	58686.0	-0.3760869565217391	728.0	-174.0	1.1777777777777778	-560.0	-0.4011976047904192	-0.8096832217958202	143.0	3.4149329137068243	-190.0	-1.4976065898352737	10.0	
9.899276103940386	1912.0	-0.869841364947852	2121.0	1.885475070281491	1250.0	9.966891477621092	-16256.0	1024.0	-0.627835683629675	1.8442673206621703	3008.0	0.0	3810.48583984375	59326.0	-0.3739130434782609	729.0	-178.0	1.1696969696969697	-557.0	-0.407185628742515	1.7845938347490875	125.0	3.1934356527328416	-188.0	-1.2497851018455899	-159.0	
9.740420724107528	1910.0	-0.8793076426817443	2122.0	1.9078882392479923	1263.0	9.809932556713672	-16000.0	896.0	-0.5493562231759657	1.8050275904353157	2944.0	0.0	3830.01708984375	59966.0	-0.3695652173913044	731.0	-179.0	1.1676767676767676	-549.0	-0.42315369261477054	2.007934763223388	132.0	2.6124345368153246	-150.0	-1.358482389457329	-174.0	
9.8014987216941	1910.0	-0.8683484881126875	2121.0	1.9086086107695486	1258.0	9.849172286940528	-16064.0	1152.0	-0.7063151440833844	1.883507050889025	3072.0	0.0	3849.54833984375	60606.0	-0.3804347826086957	726.0	-168.0	1.1898989898989898	-550.0	-0.4211576846307386	1.0242106063395768	155.0	2.8148341635567076	-158.0	-1.6984550338200497	-110.0	
9.789313732789784	1913.0	-0.9039577037810801	2124.0	1.8719860904105685	1259.0	9.927651747394236	-16192.0	1152.0	-0.7063151440833844	1.8442673206621703	3008.0	0.0	3869.07958984375	61246.0	-0.3760869565217391	728.0	-177.0	1.1717171717171717	-549.0	-0.42315369261477054	1.0708649065171603	128.0	2.4653260862922695	-136.0	-1.288275188989126	-113.0	
9.801867212147668	1913.0	-0.867633183114584	2121.0	1.8724748704108123	1258.0	9.966891477621092	-16256.0	960.0	-0.5885959534028203	1.8442673206621703	3008.0	0.0	3888.61083984375	61886.0	-0.3652173913043478	733.0	-175.0	1.1757575757575758	-548.0	-0.42514970059880247	1.0705300660789199	119.0	2.2949565647862826	-125.0	-1.1513897113071772	-113.0	
9.788820253405468	1908.0	-0.8929596324376745	2123.0	1.932332100185581	1259.0	9.966891477621092	-16256.0	1152.0	-0.7063151440833844	1.7265481299816063	2816.0	0.0	3908.14208984375	62526.0	-0.3782608695652174	727.0	-170.0	1.185858585858586	-557.0	-0.407185628742515	1.731212140362548	79.0	1.759870875463782	-94.0	-0.5496315130386066	-156.0	
9.728099952374675	1906.0	-0.8434444253042445	2119.0	1.956316434788776	1264.0	9.809932556713672	-16000.0	1152.0	-0.7063151440833844	1.8442673206621703	3008.0	0.0	3927.67333984375	63166.0	-0.3717391304347826	730.0	-173.0	1.1797979797979798	-551.0	-0.4191616766467066	2.1103198207750684	86.0	1.4079084535813797	-72.0	-0.659886468169728	-181.0	
9.679097066218574	1908.0	-0.8907436672495369	2123.0	1.9312570279655934	1268.0	9.770692826486817	-15936.0	1088.0	-0.6670754138565297	1.8442673206621703	3008.0	0.0	3947.20458984375	63806.0	-0.3782608695652174	727.0	-175.0	1.1757575757575758	-538.0	-0.4451097804391218	1.9850811492149176	87.0	1.1773533701709626	-56.0	-0.6738432069294116	-173.0	
9.618995233502845	1913.0	-0.8639399078010214	2121.0	1.8706830833774997	1273.0	9.692213366033108	-15808.0	1216.0	-0.745554874310239	1.8050275904353157	2944.0	0.0	3966.73583984375	64446.0	-0.3717391304347826	730.0	-178.0	1.1696969696969697	-560.0	-0.4011976047904192	2.3309916452119497	100.0	0.6664341212085616	-23.0	-0.8750209430680892	-196.0	
9.570593545425343	1914.0	-0.8383361067042144	2119.0	1.8584069117366084	1277.0	9.613733905579398	-15680.0	960.0	-0.5885959534028203	1.8050275904353157	2944.0	0.0	3986.26708984375	65086.0	-0.3717391304347826	730.0	-176.0	1.1737373737373737	-555.0	-0.4111776447105789	1.4224945649526266	95.0	0.29184108420390137	6.0	-0.7898903448890701	-137.0	
9.570722851915209	1918.0	-0.8739531057274768	2122.0	1.809859263726937	1277.0	9.613733905579398	-15680.0	1216.0	-0.745554874310239	1.648068669527897	2688.0	0.0	4005.79833984375	190.0	-0.3760869565217391	728.0	-179.0	1.1676767676767676	-543.0	-0.43512974051896214	1.0200621580869504	114.0	0.24145429259421355	12.0	-1.0748394048508316	-111.0	
9.558998960701839	1911.0	-0.7412832226261241	2111.0	1.8954060730434072	1278.0	9.574494175352545	-15616.0	832.0	-0.510116492949111	1.765787860208461	2880.0	0.0	4025.32958984375	830.0	-0.3826086956521739	725.0	-171.0	1.183838383838384	-549.0	-0.42315369261477054	0.89591909887676	127.0	0.3029809060067689	9.0	-1.271316605437437	-103.0	
9.63215422849844	1914.0	-0.7786159667741795	2114.0	1.8596197199666396	1272.0	9.770692826486817	-15936.0	960.0	-0.5885959534028203	1.6873083997547516	2752.0	0.0	4044.86083984375	1470.0	-0.3760869565217391	728.0	-182.0	1.1616161616161615	-540.0	-0.44111776447105794	0.6371054371446239	157.0	0.9689304448549572	-33.0	-1.7250022330786707	-86.0	
9.731021970648525	1918.0	-0.6943002492288969	2107.0	1.813258783479256	1264.0	9.809932556713672	-16000.0	768.0	-0.47087676272225626	1.8050275904353157	2944.0	0.0	4064.39208984375	2110.0	-0.3760869565217391	728.0	-183.0	1.1595959595959595	-537.0	-0.44710578842315374	1.9477744558567027	153.0	1.519952082245966	-76.0	-1.6772724213646508	-171.0	
9.597646357544114	1921.0	-0.6543058033134475	2104.0	1.7761803934941136	1275.0	9.731453096259962	-15872.0	704.0	-0.4316370324954016	1.6873083997547516	2752.0	0.0	4083.92333984375	2750.0	-0.3739130434782609	729.0	-175.0	1.1757575757575758	-559.0	-0.40319361277445115	3.475995844637882	146.0	2.2938870395931463	-135.0	-1.5860907569254663	-270.0	
9.633858739158185	1921.0	-0.6916151973968934	2107.0	1.7761694233694196	1272.0	9.731453096259962	-15872.0	896.0	-0.5493562231759657	1.6088289393010422	2624.0	0.0	4103.45458984375	3390.0	-0.3826086956521739	725.0	-176.0	1.1737373737373737	-534.0	-0.45309381237524954	2.7673329131165065	142.0	1.9659639258478399	-110.0	-1.518167625709112	-224.0	
9.59703004800861	1915.0	-0.6435461669694096	2103.0	1.848570983388705	1275.0	9.652973635806253	-15744.0	960.0	-0.5885959534028203	1.6873083997547516	2752.0	0.0	4122.98583984375	4030.0	-0.3673913043478261	732.0	-175.0	1.1757575757575758	-547.0	-0.4271457085828344	3.063065418163167	100.0	1.739919567720602	-98.0	-0.8823416807976014	-243.0	
9.536320540875606	1918.0	-0.6537900165403632	2104.0	1.8117168715084122	1280.0	9.574494175352545	-15616.0	832.0	-0.510116492949111	1.6873083997547516	2752.0	0.0	4142.51708984375	4670.0	-0.3673913043478261	732.0	-171.0	1.183838383838384	-559.0	-0.40319361277445115	4.079489308539358	97.0	2.0421639635965336	-123.0	-0.8468785432755076	-309.0	
9.682249633337895	1915.0	-0.6574599417893168	2104.0	1.8492840414937985	1268.0	9.809932556713672	-16000.0	768.0	-0.47087676272225626	1.5695892090741874	2560.0	0.0	4162.04833984375	5310.0	-0.3630434782608696	734.0	-178.0	1.1696969696969697	-556.0	-0.40918163672654695	3.016979155404172	57.0	2.6165177006786937	-158.0	-0.22788842273274898	-239.0	
9.743452619855216	1917.0	-0.6582141635617688	2104.0	1.8257921435990787	1263.0	9.770692826486817	-15936.0	768.0	-0.47087676272225626	1.765787860208461	2880.0	0.0	4181.57958984375	5950.0	-0.3630434782608696	734.0	-178.0	1.1696969696969697	-542.0	-0.43712574850299407	2.94235627800652	48.0	2.691198686515097	-163.0	-0.09026006468120588	-234.0	
9.731375349645186	1914.0	-0.6099222648446565	2100.0	1.8622988681974022	1264.0	9.849172286940528	-16064.0	704.0	-0.4316370324954016	1.6873083997547516	2752.0	0.0	4201.11083984375	6590.0	-0.3673913043478261	732.0	-174.0	1.1777777777777778	-548.0	-0.42514970059880247	3.091690271261372	12.0	1.7293686675163409	-101.0	0.45577511249651176	-244.0	
9.780270517107004	1918.0	-0.6465241372848689	2103.0	1.814229030063281	1260.0	9.770692826486817	-15936.0	704.0	-0.4316370324954016	1.6873083997547516	2752.0	0.0	4220.64208984375	7230.0	-0.3565217391304348	737.0	-178.0	1.1696969696969697	-544.0	-0.4331337325349302	2.3433013295473484	30.0	0.8328868683217826	-37.0	0.18949474335851893	-196.0	
9.585084243068001	1917.0	-0.6428230786164365	2103.0	1.8243623706806598	1276.0	9.652973635806253	-15744.0	960.0	-0.5885959534028203	1.7265481299816063	2816.0	0.0	4240.17333984375	7870.0	-0.358695652173913	736.0	-176.0	1.1737373737373737	-534.0	-0.45309381237524954	2.487923738115499	15.0	-0.28075710021292516	36.0	0.41618540140211496	-206.0	
9.475615351301718	1923.0	-0.6879374887930702	2107.0	1.7505273810347246	1285.0	9.53525444512569	-15552.0	960.0	-0.5885959534028203	1.648068669527897	2688.0	0.0	4259.70458984375	8510.0	-0.358695652173913	736.0	-173.0	1.1797979797979798	-555.0	-0.4111776447105789	3.5117007882086737	39.0	-0.3673962299393882	38.0	0.04092861949433913	-273.0	
9.560345774805805	1920.0	-0.7147568149513251	2109.0	1.787251070321436	1278.0	9.652973635806253	-15744.0	896.0	-0.5493562231759657	1.6873083997547516	2752.0	0.0	4279.23583984375	9150.0	-0.35434782608695653	738.0	-176.0	1.1737373737373737	-557.0	-0.407185628742515	2.3390491143539665	-23.0	-0.39846082335843747	43.0	0.9956209157005669	-196.0	
9.584845059104296	1918.0	-0.6791553826378022	2106.0	1.8119484630297247	1276.0	9.652973635806253	-15744.0	832.0	-0.510116492949111	1.7265481299816063	2816.0	0.0	4298.76708984375	9790.0	-0.36086956521739133	735.0	-174.0	1.1777777777777778	-543.0	-0.43512974051896214	2.164506738951705	-45.0	0.22998845297259823	1.0	1.3319670999108633	-184.0	
9.633854421599068	1919.0	-0.66771157471514	2105.0	1.8005048019628147	1272.0	9.652973635806253	-15744.0	640.0	-0.39239730226854685	1.7265481299816063	2816.0	0.0	4318.29833984375	10430.0	-0.36086956521739133	735.0	-176.0	1.1737373737373737	-533.0	-0.45508982035928147	2.9560642427130324	-62.0	0.854209017801409	-45.0	1.582606657953098	-235.0	
9.658608001318173	1923.0	-0.6794405177663884	2106.0	1.752442277245156	1270.0	9.731453096259962	-15872.0	704.0	-0.4316370324954016	1.648068669527897	2688.0	0.0	4337.82958984375	11070.0	-0.34782608695652173	741.0	-177.0	1.1717171717171717	-556.0	-0.40918163672654695	1.7355607552983254	-73.0	-0.1170112170524684	25.0	1.7621120730553819	-156.0	
9.730776310346146	1916.0	-0.6947771192276324	2107.0	1.8373479437184135	1264.0	9.809932556713672	-16000.0	832.0	-0.510116492949111	1.6873083997547516	2752.0	0.0	4357.36083984375	11710.0	-0.35434782608695653	738.0	-175.0	1.1757575757575758	-549.0	-0.42315369261477054	-0.22517847024319917	-88.0	-1.5039121208006687	126.0	2.009856347440075	-29.0	
9.731138324461039	1916.0	-0.6582063802068989	2104.0	1.8377172712497698	1264.0	9.849172286940528	-16064.0	704.0	-0.4316370324954016	1.6873083997547516	2752.0	0.0	4376.89208984375	12350.0	-0.3630434782608696	734.0	-168.0	1.1898989898989898	-548.0	-0.42514970059880247	-0.3214212864586564	-133.0	-2.604050316512654	198.0	2.695229421990062	-23.0	
9.74320264199372	1913.0	-0.6347874108787508	2102.0	1.874216682431631	1263.0	9.849172286940528	-16064.0	640.0	-0.39239730226854685	1.7265481299816063	2816.0	0.0	4396.42333984375	12990.0	-0.36086956521739133	735.0	-179.0	1.1676767676767676	-539.0	-0.44311377245508987	-0.442904989887213	-144.0	-4.1764999595163745	303.0	2.863744639252485	-16.0	
9.632391253682586	1912.0	-0.730331851411937	2110.0	1.8842013169142722	1272.0	9.770692826486817	-15936.0	832.0	-0.510116492949111	1.8050275904353157	2944.0	0.0	4415.95458984375	13630.0	-0.3565217391304348	737.0	-176.0	1.1737373737373737	-545.0	-0.43113772455089827	-2.1541772275618203	-204.0	-7.392248137502612	523.0	3.793404890146341	94.0	
9.459150736121796	1900.0	-0.8394582315072259	2119.0	2.0259559611907236	1286.0	9.574494175352545	-15616.0	1088.0	-0.6670754138565297	1.9227467811158798	3136.0	0.0	4435.48583984375	14270.0	-0.35434782608695653	738.0	-182.0	1.1616161616161615	-559.0	-0.40319361277445115	-5.180849511433537	-306.0	-10.796868366790152	760.0	5.375002411464146	290.0	
9.408064054954592	1887.0	-0.914714491123524	2125.0	2.1813190378069844	1290.0	9.574494175352545	-15616.0	1152.0	-0.7063151440833844	2.040465971796444	3328.0	0.0	4455.01708984375	14910.0	-0.34782608695652173	741.0	-168.0	1.1898989898989898	-562.0	-0.39720558882235535	-6.943751030035079	-318.0	-10.771425823812377	766.0	5.575140932353584	405.0	
9.345768549753917	1882.0	-0.9878170523906424	2131.0	2.2402060209977286	1295.0	9.417535254445125	-15360.0	1216.0	-0.745554874310239	2.2366646229307174	3648.0	0.0	4474.54833984375	15550.0	-0.358695652173913	736.0	-167.0	1.1919191919191918	-547.0	-0.4271457085828344	-4.135889339067292	-190.0	-7.36574389426068	531.0	3.600294254607403	223.0	
9.344663078393213	1873.0	-0.9899629673849525	2131.0	2.3486072420739372	1295.0	9.37829552421827	-15296.0	1216.0	-0.745554874310239	2.2366646229307174	3648.0	0.0	4494.07958984375	16190.0	-0.3565217391304348	737.0	-172.0	1.1818181818181819	-566.0	-0.3892215568862276	-1.374658462374357	-29.0	-3.51695030946055	268.0	1.124012744319561	44.0	
9.35746653561259	1877.0	-0.9770651994014744	2130.0	2.3006714832416284	1294.0	9.496014714898834	-15488.0	1280.0	-0.7847946045370937	2.1974248927038627	3584.0	0.0	4513.61083984375	16830.0	-0.3565217391304348	737.0	-177.0	1.1717171717171717	-556.0	-0.40918163672654695	0.6552634563834853	74.0	-0.01236288224582244	29.0	-0.46282639882239	-87.0	
9.370884143587915	1886.0	-0.9629752564211572	2129.0	2.192512823811426	1293.0	9.37829552421827	-15296.0	1152.0	-0.7063151440833844	2.118945432250153	3456.0	0.0	4533.14208984375	17470.0	-0.35434782608695653	738.0	-174.0	1.1777777777777778	-550.0	-0.4211576846307386	0.39170098641496875	130.0	2.109015023970004	-109.0	-1.3119018007386747	-69.0	
9.554605139393272	1888.0	-0.9052404300347618	2124.0	2.170830996491175	1278.0	9.652973635806253	-15744.0	1152.0	-0.7063151440833844	2.158185162477008	3520.0	0.0	4552.67333984375	18110.0	-0.36086956521739133	735.0	-169.0	1.187878787878788	-565.0	-0.39121756487025955	0.46217321700309183	203.0	4.127531297861527	-241.0	-2.4228726827403735	-73.0	
9.652005396067757	1883.0	-0.8596413665045228	2120.0	2.2325019535486437	1270.0	9.692213366033108	-15808.0	1088.0	-0.6670754138565297	2.118945432250153	3456.0	0.0	4572.20458984375	18750.0	-0.3630434782608696	734.0	-177.0	1.1717171717171717	-562.0	-0.39720558882235535	2.6580878998052264	287.0	5.52504867234805	-341.0	-3.7223983694923493	-216.0	
9.630059639589545	1894.0	-0.7468139277408017	2111.0	2.1008806498895716	1272.0	9.692213366033108	-15808.0	1024.0	-0.627835683629675	2.040465971796444	3328.0	0.0	4591.73583984375	19390.0	-0.36086956521739133	735.0	-174.0	1.1777777777777778	-550.0	-0.4211576846307386	4.0750357361341125	337.0	5.246952301416367	-327.0	-4.497024121619896	-309.0	
9.630423812483997	1895.0	-0.722195000060945	2109.0	2.0890822881242297	1272.0	9.731453096259962	-15872.0	960.0	-0.5885959534028203	2.001226241569589	3264.0	0.0	4611.26708984375	20030.0	-0.36086956521739133	735.0	-166.0	1.1939393939393939	-563.0	-0.3952095808383234	3.1424180574430958	284.0	4.7998590259056275	-295.0	-3.681614294642872	-248.0	
9.668579888721519	1901.0	-0.6361713207457391	2102.0	2.0180349290532513	1269.0	9.731453096259962	-15872.0	640.0	-0.39239730226854685	1.883507050889025	3072.0	0.0	4630.79833984375	20670.0	-0.35434782608695653	738.0	-166.0	1.1939393939393939	-563.0	-0.3952095808383234	1.8657432856537555	256.0	4.092071174587297	-243.0	-3.242992033616994	-165.0	
9.705156443230042	1902.0	-0.6488617871493284	2103.0	2.006225597163216	1266.0	9.809932556713672	-16000.0	768.0	-0.47087676272225626	1.8442673206621703	3008.0	0.0	4650.32958984375	21310.0	-0.35434782608695653	738.0	-174.0	1.1777777777777778	-538.0	-0.4451097804391218	1.4514724356846478	212.0	3.434466199991104	-199.0	-2.569647804204755	-138.0	
9.59567459878641	1902.0	-0.6222653292807018	2101.0	2.005396743297466	1275.0	9.692213366033108	-15808.0	768.0	-0.47087676272225626	1.9227467811158798	3136.0	0.0	4669.86083984375	21950.0	-0.3565217391304348	737.0	-170.0	1.185858585858586	-559.0	-0.40319361277445115	1.244077539634964	193.0	2.357881679529878	-127.0	-2.2786004712138404	-125.0	
9.620191153321366	1908.0	-0.6822783876941927	2106.0	1.9327526216321749	1273.0	9.692213366033108	-15808.0	896.0	-0.5493562231759657	1.765787860208461	2880.0	0.0	4689.39208984375	22590.0	-0.34782608695652173	741.0	-181.0	1.1636363636363636	-550.0	-0.4211576846307386	0.7336489266856541	164.0	1.521192211796641	-70.0	-1.8324315463010772	-92.0	
9.498388537144884	1904.0	-0.6198187124480661	2101.0	1.9803519633072084	1283.0	9.53525444512569	-15552.0	768.0	-0.47087676272225626	1.883507050889025	3072.0	0.0	4708.92333984375	23230.0	-0.35	740.0	-174.0	1.1777777777777778	-546.0	-0.42914171656686634	0.7769644419493376	126.0	0.6704718750649286	-15.0	-1.2549179333928777	-95.0	
9.450484646010814	1912.0	-0.6291166053764182	2102.0	1.8833944032979095	1287.0	9.496014714898834	-15488.0	768.0	-0.47087676272225626	1.765787860208461	2880.0	0.0	4728.45458984375	23870.0	-0.35434782608695653	738.0	-170.0	1.185858585858586	-562.0	-0.39720558882235535	-1.9131618756159556	123.0	0.1962094067928976	29.0	-1.182389293791369	80.0	
9.584101601858485	1909.0	-0.6447305586113787	2103.0	1.9207190116372899	1276.0	9.652973635806253	-15744.0	640.0	-0.39239730226854685	1.8050275904353157	2944.0	0.0	4747.98583984375	24510.0	-0.3630434782608696	734.0	-180.0	1.1656565656565656	-541.0	-0.439121756487026	-4.143678918884787	107.0	-0.5578306721873304	89.0	-0.916738115754118	225.0	
9.47242392615035	1898.0	-0.7060886101175093	2108.0	2.0515187748470747	1285.0	9.574494175352545	-15616.0	896.0	-0.5493562231759657	2.001226241569589	3264.0	0.0	4767.51708984375	25150.0	-0.3630434782608696	734.0	-178.0	1.1696969696969697	-548.0	-0.42514970059880247	-3.356819262163213	100.0	-1.7862699517820548	167.0	-0.8181428339943375	173.0	
9.4234080873169	1894.0	-0.6816769840175414	2106.0	2.099465503804077	1289.0	9.53525444512569	-15552.0	768.0	-0.47087676272225626	2.001226241569589	3264.0	0.0	4787.04833984375	25790.0	-0.3673913043478261	732.0	-175.0	1.1757575757575758	-539.0	-0.44311377245508987	-3.023820397458272	82.0	-2.525044919269643	214.0	-0.5477085640862538	151.0	
9.47106847692815	1885.0	-0.6848077724288015	2106.0	2.208344534755836	1285.0	9.53525444512569	-15552.0	832.0	-0.510116492949111	2.158185162477008	3520.0	0.0	4806.57958984375	26430.0	-0.3521739130434783	739.0	-169.0	1.187878787878788	-562.0	-0.39720558882235535	-3.276739685435629	87.0	-1.6498271980881836	157.0	-0.6212249985829061	168.0	
9.483996923078275	1891.0	-0.6836233807868324	2106.0	2.136196506507251	1284.0	9.574494175352545	-15616.0	768.0	-0.47087676272225626	2.001226241569589	3264.0	0.0	4826.11083984375	27070.0	-0.36086956521739133	735.0	-172.0	1.1818181818181819	-541.0	-0.439121756487026	-2.3756409458644945	130.0	0.09772397148214236	38.0	-1.28422838141588	110.0	
9.508140669600547	1892.0	-0.7204481215166731	2109.0	2.124021503794091	1282.0	9.613733905579398	-15680.0	832.0	-0.510116492949111	2.001226241569589	3264.0	0.0	4845.64208984375	27710.0	-0.3565217391304348	737.0	-171.0	1.183838383838384	-561.0	-0.3992015968063873	-2.862297538467299	151.0	0.864011115636582	-10.0	-1.5987534504708403	142.0	
9.617628990382853	1895.0	-0.78290001340793	2114.0	2.088347289769749	1273.0	9.613733905579398	-15680.0	960.0	-0.5885959534028203	2.001226241569589	3264.0	0.0	4865.17333984375	28350.0	-0.36086956521739133	735.0	-184.0	1.1575757575757575	-549.0	-0.42315369261477054	-3.211358932156371	175.0	1.62254672900366	-58.0	-1.960281847940794	165.0	
9.666401327693482	1898.0	-0.8197403208475101	2117.0	2.052322031755206	1269.0	9.731453096259962	-15872.0	1088.0	-0.6670754138565297	1.9227467811158798	3136.0	0.0	4884.70458984375	28990.0	-0.36086956521739133	735.0	-174.0	1.1777777777777778	-546.0	-0.42914171656686634	-1.4783274272205005	139.0	2.4845243467001503	-125.0	-1.4300836458798862	53.0	
9.692861576851888	1910.0	-0.7564203058623492	2112.0	1.9086415211436298	1267.0	9.809932556713672	-16000.0	896.0	-0.5493562231759657	1.8442673206621703	3008.0	0.0	4904.23583984375	29630.0	-0.36086956521739133	735.0	-170.0	1.185858585858586	-562.0	-0.39720558882235535	0.04876205861518812	149.0	3.403812823548664	-193.0	-1.597445795491095	-46.0	
9.705294384838139	1910.0	-0.7322860315360977	2110.0	1.9090071919667548	1266.0	9.809932556713672	-16000.0	960.0	-0.5885959534028203	1.8050275904353157	2944.0	0.0	4923.76708984375	30270.0	-0.358695652173913	736.0	-181.0	1.1636363636363636	-549.0	-0.42315369261477054	-0.6023617648173066	167.0	3.025299003306119	-164.0	-1.8646988158119033	-4.0	
9.716632515361475	1906.0	-0.7700567289085398	2113.0	1.956935637382601	1265.0	9.809932556713672	-16000.0	1088.0	-0.6670754138565297	1.8050275904353157	2944.0	0.0	4943.29833984375	30910.0	-0.3739130434782609	729.0	-168.0	1.1898989898989898	-547.0	-0.4271457085828344	-1.9855280466640417	193.0	1.6981045071968586	-68.0	-2.24630441535085	85.0	
9.704443208898043	1907.0	-0.7817623218951791	2114.0	1.944648495617016	1266.0	9.770692826486817	-15936.0	960.0	-0.5885959534028203	1.8442673206621703	3008.0	0.0	4962.82958984375	31550.0	-0.3652173913043478	733.0	-169.0	1.187878787878788	-561.0	-0.3992015968063873	-2.8223944510500067	198.0	0.9647895353865044	-15.0	-2.3139813786834162	139.0	
9.679816776889245	1906.0	-0.7936985665263163	2115.0	1.956331061621701	1268.0	9.770692826486817	-15936.0	1024.0	-0.627835683629675	1.8442673206621703	3008.0	0.0	4982.36083984375	32190.0	-0.3673913043478261	732.0	-170.0	1.185858585858586	-563.0	-0.3952095808383234	-2.7679806312675703	187.0	0.09973760467734291	42.0	-2.1472251366531037	135.0	
9.582769899211424	1907.0	-0.754919645672315	2112.0	1.9437001892823784	1276.0	9.652973635806253	-15744.0	960.0	-0.5885959534028203	1.8442673206621703	3008.0	0.0	5001.89208984375	32830.0	-0.3673913043478261	732.0	-175.0	1.1757575757575758	-542.0	-0.43712574850299407	-1.6419546668418796	183.0	0.6036403836541806	3.0	-2.09764889439622	62.0	
9.569716464130552	1899.0	-0.7443906609727751	2111.0	2.04006048694724	1277.0	9.652973635806253	-15744.0	832.0	-0.510116492949111	1.9227467811158798	3136.0	0.0	5021.42333984375	33470.0	-0.3695652173913044	731.0	-170.0	1.185858585858586	-559.0	-0.40319361277445115	-1.4375587392093017	163.0	0.7871421791844883	-11.0	-1.7955103441668427	49.0	
9.667006843331198	1899.0	-0.7707409004871644	2113.0	2.040769888344103	1269.0	9.770692826486817	-15936.0	960.0	-0.5885959534028203	1.9619865113427344	3200.0	0.0	5040.95458984375	34110.0	-0.3652173913043478	733.0	-176.0	1.1737373737373737	-546.0	-0.42914171656686634	-1.9950763453980682	141.0	1.4872240428226424	-56.0	-1.455334407648681	86.0	
9.654205544891376	1896.0	-0.7955904798115192	2115.0	2.076537957879714	1270.0	9.731453096259962	-15872.0	960.0	-0.5885959534028203	2.001226241569589	3264.0	0.0	5060.48583984375	34750.0	-0.358695652173913	736.0	-180.0	1.1656565656565656	-542.0	-0.43712574850299407	-1.4089310335354062	114.0	1.3700324586111896	-52.0	-1.050549472934608	48.0	
9.775870219459765	1892.0	-0.7746259106708764	2113.0	2.1261570214011414	1260.0	9.927651747394236	-16192.0	832.0	-0.510116492949111	2.001226241569589	3264.0	0.0	5080.01708984375	35390.0	-0.3826086956521739	725.0	-174.0	1.1777777777777778	-538.0	-0.4451097804391218	-2.2951530896275	121.0	1.8707546775439312	-81.0	-1.148151130700683	106.0	
9.788059525923194	1891.0	-0.7629203176842373	2112.0	2.138444163166726	1259.0	9.888412017167381	-16128.0	768.0	-0.47087676272225626	2.040465971796444	3328.0	0.0	5099.54833984375	36030.0	-0.3739130434782609	729.0	-178.0	1.1696969696969697	-556.0	-0.40918163672654695	-0.38949643179074306	153.0	2.612161368410036	-138.0	-1.6538997124881762	-18.0	
9.777092044632985	1899.0	-0.7363861266545684	2110.0	2.0422142880954466	1260.0	9.927651747394236	-16192.0	1088.0	-0.6670754138565297	2.001226241569589	3264.0	0.0	5119.07958984375	36670.0	-0.3673913043478261	732.0	-172.0	1.1818181818181819	-548.0	-0.42514970059880247	0.9916009021410057	158.0	2.6690038565447027	-148.0	-1.7437563132039196	-108.0	
9.850126641057955	1902.0	-0.7859091171428683	2114.0	2.00630482584156	1254.0	9.966891477621092	-16256.0	1024.0	-0.627835683629675	1.9227467811158798	3136.0	0.0	5138.61083984375	37310.0	-0.3891304347826087	722.0	-189.0	1.1474747474747475	-519.0	-0.4830339321357286	0.5789505156648221	107.0	2.066997557548826	-108.0	-0.963964410099614	-81.0	
9.71578349820094	1904.0	-0.8314848306084979	2118.0	1.9804092517361649	1265.0	9.809932556713672	-16000.0	896.0	-0.5493562231759657	1.8442673206621703	3008.0	0.0	5158.14208984375	37950.0	-0.36086956521739133	735.0	-177.0	1.1717171717171717	-561.0	-0.3992015968063873	0.8663967303421255	53.0	0.829731793878721	-29.0	-0.1455460965809878	-100.0	
9.787706146926531	1895.0	-0.8472983020684777	2119.0	2.08940407844858	1259.0	9.927651747394236	-16192.0	960.0	-0.5885959534028203	2.001226241569589	3264.0	0.0	5177.67333984375	38590.0	-0.3782608695652174	727.0	-178.0	1.1696969696969697	-546.0	-0.42914171656686634	-0.876991878786388	60.0	0.025794963823337312	33.0	-0.2345760888166989	13.0	
9.800388932774279	1899.0	-0.846590780425244	2119.0	2.0413452104391525	1258.0	9.927651747394236	-16192.0	1344.0	-0.8240343347639485	1.9227467811158798	3136.0	0.0	5197.20458984375	39230.0	-0.3804347826086957	726.0	-194.0	1.1373737373737374	-527.0	-0.4670658682634731	-0.5967395273527755	120.0	-0.1970887586657727	49.0	-1.1499261408481454	-6.0	
9.691872459303697	1899.0	-0.7224723518346613	2109.0	2.0415012299903523	1267.0	9.809932556713672	-16000.0	832.0	-0.510116492949111	2.001226241569589	3264.0	0.0	5216.73583984375	39870.0	-0.3782608695652174	727.0	-181.0	1.1636363636363636	-542.0	-0.43712574850299407	1.838898857818973	172.0	0.12979340690677077	18.0	-1.965157049414692	-165.0	
9.691510445188804	1899.0	-0.7590430908553949	2112.0	2.0411319024589964	1267.0	9.770692826486817	-15936.0	960.0	-0.5885959534028203	1.883507050889025	3072.0	0.0	5236.26708984375	40510.0	-0.3673913043478261	732.0	-177.0	1.1717171717171717	-545.0	-0.43113772455089827	2.618593242045424	186.0	0.03906627678639166	21.0	-2.185881749910949	-216.0	
9.582272102267991	1900.0	-0.7200179516471559	2109.0	2.028381577650786	1276.0	9.692213366033108	-15808.0	832.0	-0.510116492949111	1.9227467811158798	3136.0	0.0	5255.79833984375	41150.0	-0.3673913043478261	732.0	-172.0	1.1818181818181819	-560.0	-0.4011976047904192	0.975724544618516	106.0	-1.2445846007249421	111.0	-0.9527230249138658	-109.0	
9.740644796614324	1902.0	-0.7593126592742416	2112.0	2.00547597197581	1263.0	9.849172286940528	-16064.0	896.0	-0.5493562231759657	1.8442673206621703	3008.0	0.0	5275.32958984375	41790.0	-0.358695652173913	736.0	-176.0	1.1737373737373737	-562.0	-0.39720558882235535	-0.3099053405365527	101.0	-0.9632440370875693	98.0	-0.8638210986858893	-25.0	
9.801112961004067	1899.0	-0.773449302383777	2113.0	2.042083865501865	1258.0	9.888412017167381	-16128.0	1024.0	-0.627835683629675	1.9227467811158798	3136.0	0.0	5294.86083984375	42430.0	-0.3717391304347826	730.0	-186.0	1.1535353535353536	-543.0	-0.43512974051896214	2.5588835425836636	107.0	-0.9943440120092827	87.0	-0.9837637403688024	-212.0	
9.643231587262491	1901.0	-0.7332008547592201	2110.0	2.0168111506985262	1271.0	9.692213366033108	-15808.0	896.0	-0.5493562231759657	1.9227467811158798	3136.0	0.0	5314.39208984375	43070.0	-0.3673913043478261	732.0	-174.0	1.1777777777777778	-566.0	-0.3892215568862276	3.5981082412241965	121.0	-1.2230744819978894	98.0	-1.2070837440092	-280.0	
9.570569798850203	1903.0	-0.7068661819545705	2108.0	1.9922514940002811	1277.0	9.692213366033108	-15808.0	768.0	-0.47087676272225626	1.9227467811158798	3136.0	0.0	5333.92333984375	43710.0	-0.3695652173913044	731.0	-183.0	1.1595959595959595	-538.0	-0.4451097804391218	1.9888605362033935	105.0	-1.2407447120176316	106.0	-0.9476452593544293	-175.0	
9.691503968850128	1896.0	-0.7231876568327646	2109.0	2.0776349703490884	1267.0	9.731453096259962	-15872.0	960.0	-0.5885959534028203	1.9619865113427344	3200.0	0.0	5353.45458984375	44350.0	-0.3695652173913044	731.0	-178.0	1.1696969696969697	-552.0	-0.4171656686626747	1.1327416907573202	81.0	-1.2707221195714882	111.0	-0.5740650594931246	-119.0	
9.569584998861128	1894.0	-0.6968218506086361	2107.0	2.1007758242536085	1277.0	9.731453096259962	-15872.0	896.0	-0.5493562231759657	2.001226241569589	3264.0	0.0	5372.98583984375	44990.0	-0.3760869565217391	728.0	-170.0	1.185858585858586	-558.0	-0.4051896207584831	2.5847480718219282	103.0	-1.5383077782528454	123.0	-0.9231858837600444	-214.0	
9.557156508433996	1896.0	-0.744859747616641	2111.0	2.076074774837089	1278.0	9.613733905579398	-15680.0	832.0	-0.510116492949111	2.040465971796444	3328.0	0.0	5392.51708984375	45630.0	-0.36086956521739133	735.0	-188.0	1.1494949494949496	-550.0	-0.4211576846307386	1.590123449758331	73.0	-1.6972279076013244	137.0	-0.4569658732808533	-149.0	
9.520579953925472	1895.0	-0.7321692812130518	2110.0	2.087884106727124	1281.0	9.652973635806253	-15744.0	960.0	-0.5885959534028203	2.040465971796444	3328.0	0.0	5412.04833984375	46270.0	-0.3630434782608696	734.0	-176.0	1.1737373737373737	-544.0	-0.4331337325349302	2.3641047093463325	58.0	-1.2654698548656644	104.0	-0.23656880374745576	-199.0	
9.459616151371856	1892.0	-0.695082755419234	2107.0	2.1237899122727786	1286.0	9.574494175352545	-15616.0	896.0	-0.5493562231759657	2.040465971796444	3328.0	0.0	5431.57958984375	46910.0	-0.358695652173913	736.0	-171.0	1.183838383838384	-564.0	-0.3932135728542915	2.7112518618970025	57.0	-0.3307194218221424	40.0	-0.22483114979767727	-221.0	
9.520573477586797	1892.0	-0.6963138471904216	2107.0	2.124387174617216	1281.0	9.692213366033108	-15808.0	768.0	-0.47087676272225626	2.0797057020232983	3392.0	0.0	5451.11083984375	47550.0	-0.3565217391304348	737.0	-177.0	1.1717171717171717	-555.0	-0.4111776447105789	2.130977437886386	53.0	-0.097863233261412	27.0	-0.1581919036564304	-183.0	
9.532521441306965	1891.0	-0.7089887468842714	2108.0	2.1364280980285635	1280.0	9.692213366033108	-15808.0	640.0	-0.39239730226854685	2.001226241569589	3264.0	0.0	5470.64208984375	48190.0	-0.3630434782608696	734.0	-172.0	1.1818181818181819	-555.0	-0.4111776447105789	1.819226523085369	74.0	-0.2582922529176589	40.0	-0.47446602948940886	-163.0	
9.569466486269055	1895.0	-0.7209639082897573	2109.0	2.088485025779792	1277.0	9.692213366033108	-15808.0	832.0	-0.510116492949111	2.001226241569589	3264.0	0.0	5490.17333984375	48830.0	-0.3630434782608696	734.0	-178.0	1.1696969696969697	-544.0	-0.4331337325349302	1.3270320922344998	58.0	-0.6085819545377692	65.0	-0.22619807757633742	-131.0	
9.508752661576935	1896.0	-0.7073041351789574	2108.0	2.0759662924928945	1282.0	9.574494175352545	-15616.0	960.0	-0.5885959534028203	1.9227467811158798	3136.0	0.0	5509.70458984375	49470.0	-0.3565217391304348	737.0	-176.0	1.1737373737373737	-565.0	-0.39121756487025955	1.2019001689780766	48.0	-0.9957615203205106	91.0	-0.07285550359092145	-123.0	
9.471686945243214	1892.0	-0.707519220113716	2108.0	2.1237862555645473	1285.0	9.496014714898834	-15488.0	832.0	-0.510116492949111	2.0797057020232983	3392.0	0.0	5529.23583984375	50110.0	-0.3630434782608696	734.0	-174.0	1.1777777777777778	-549.0	-0.42315369261477054	0.5886733716964045	36.0	-1.1103063529391024	101.0	0.11578627008531733	-83.0	
9.446086507143134	1887.0	-0.7691701901033025	2113.0	2.1831547053390725	1287.0	9.496014714898834	-15488.0	960.0	-0.5885959534028203	2.0797057020232983	3392.0	0.0	5548.76708984375	50750.0	-0.3739130434782609	729.0	-179.0	1.1676767676767676	-525.0	-0.471057884231537	0.03030874983194984	51.0	-1.4671163011715656	128.0	-0.1067669658253157	-47.0	
9.409632782785799	1887.0	-0.7562412887003455	2112.0	2.1829194571095285	1290.0	9.45677498467198	-15424.0	1024.0	-0.627835683629675	2.118945432250153	3456.0	0.0	5568.29833984375	51390.0	-0.35434782608695653	738.0	-178.0	1.1696969696969697	-551.0	-0.4191616766467066	0.44597873805228133	108.0	-0.47186487889173867	62.0	-0.9778438177987738	-74.0	
9.349647303882582	1890.0	-0.693343660229832	2107.0	2.1468040002919486	1295.0	9.37829552421827	-15296.0	768.0	-0.47087676272225626	1.9619865113427344	3200.0	0.0	5587.82958984375	52030.0	-0.358695652173913	736.0	-174.0	1.1777777777777778	-550.0	-0.4211576846307386	0.9729819264358871	147.0	0.6396197160476524	-13.0	-1.5762697432187316	-108.0	
9.48435893719317	1891.0	-0.6470526417660989	2103.0	2.136565834038607	1284.0	9.53525444512569	-15552.0	640.0	-0.39239730226854685	2.0797057020232983	3392.0	0.0	5607.36083984375	52670.0	-0.35434782608695653	738.0	-173.0	1.1797979797979798	-570.0	-0.3812375249500998	0.7038268177795961	152.0	1.42601242785961	-64.0	-1.6496238195085946	-90.0	
9.508498366156322	1890.0	-0.6599737598141862	2104.0	2.1487262099188422	1282.0	9.613733905579398	-15680.0	768.0	-0.47087676272225626	2.040465971796444	3328.0	0.0	5626.89208984375	53310.0	-0.3521739130434783	739.0	-176.0	1.1737373737373737	-568.0	-0.38522954091816375	1.2485297176501753	144.0	2.0578968545421934	-109.0	-1.5333978447050192	-125.0	
9.496910257771493	1890.0	-0.598776309758726	2099.0	2.1492223033355486	1283.0	9.53525444512569	-15552.0	768.0	-0.47087676272225626	2.118945432250153	3456.0	0.0	5646.42333984375	53950.0	-0.36086956521739133	735.0	-173.0	1.1797979797979798	-558.0	-0.4051896207584831	0.910658781256527	142.0	2.005233422936539	-104.0	-1.4996008843905122	-103.0	
9.509599519957913	1897.0	-0.6339242221381226	2102.0	2.0646603674360287	1282.0	9.652973635806253	-15744.0	768.0	-0.47087676272225626	2.001226241569589	3264.0	0.0	5665.95458984375	54590.0	-0.358695652173913	736.0	-172.0	1.1818181818181819	-569.0	-0.38323353293413176	0.17570147470628533	147.0	2.2543308252931302	-117.0	-1.5682969387014354	-55.0	
9.534833626383982	1900.0	-0.5849403684875163	2098.0	2.0292579687235426	1280.0	9.574494175352545	-15616.0	640.0	-0.39239730226854685	1.9619865113427344	3200.0	0.0	5685.48583984375	55230.0	-0.35	740.0	-175.0	1.1757575757575758	-565.0	-0.39121756487025955	0.15271563179577358	121.0	2.629918246916679	-143.0	-1.172629817914916	-53.0	
9.51007788788532	1895.0	-0.5612596140953912	2096.0	2.089488182737899	1282.0	9.574494175352545	-15616.0	512.0	-0.3139178418148375	2.001226241569589	3264.0	0.0	5705.01708984375	55870.0	-0.358695652173913	736.0	-173.0	1.1797979797979798	-558.0	-0.4051896207584831	0.1504294017434911	111.0	2.2491811246350557	-118.0	-1.0205157008615415	-53.0	
9.608215125466943	1896.0	-0.5142299405689454	2092.0	2.078891659077895	1274.0	9.731453096259962	-15872.0	512.0	-0.3139178418148375	2.001226241569589	3264.0	0.0	5724.54833984375	56510.0	-0.3565217391304348	737.0	-170.0	1.185858585858586	-559.0	-0.40319361277445115	-0.6640043440489296	130.0	2.437364678688432	-126.0	-1.3013447474340356	0.0	
9.584562699549428	1899.0	-0.4764514598416335	2089.0	2.0428883413127403	1276.0	9.692213366033108	-15808.0	576.0	-0.3531575720416922	2.001226241569589	3264.0	0.0	5744.07958984375	57150.0	-0.358695652173913	736.0	-180.0	1.1656565656565656	-551.0	-0.4191616766467066	-0.2489990606465254	132.0	2.529637070986656	-134.0	-1.33591305121863	-27.0	
9.621738293356993	1898.0	-0.40428707186224677	2083.0	2.056029933901694	1273.0	9.692213366033108	-15808.0	448.0	-0.27467811158798283	2.001226241569589	3264.0	0.0	5763.61083984375	57790.0	-0.3565217391304348	737.0	-177.0	1.1717171717171717	-544.0	-0.4331337325349302	-0.44583211748450435	94.0	2.2203687060576263	-114.0	-0.7559979525894136	-14.0	
9.754499755705451	1890.0	-0.4454736927745353	2086.0	2.1533312244847305	1262.0	9.888412017167381	-16128.0	384.0	-0.23543838136112813	2.001226241569589	3264.0	0.0	5783.14208984375	58430.0	-0.35434782608695653	738.0	-180.0	1.1656565656565656	-553.0	-0.41516966067864275	-1.152030422412959	7.0	2.4114949001522916	-127.0	0.574257946809681	33.0	
9.767788057190913	1895.0	-0.3957667507709558	2082.0	2.093720213064199	1261.0	9.849172286940528	-16064.0	448.0	-0.27467811158798283	2.001226241569589	3264.0	0.0	5802.67333984375	59070.0	-0.35434782608695653	738.0	-178.0	1.1696969696969697	-565.0	-0.39121756487025955	1.1965161045524468	-21.0	2.021106788869417	-113.0	0.9766279948480118	-120.0	
9.718289532870939	1891.0	-0.4201161100319659	2084.0	2.1411745053127267	1265.0	9.809932556713672	-16000.0	384.0	-0.23543838136112813	2.040465971796444	3328.0	0.0	5822.20458984375	59710.0	-0.3673913043478261	732.0	-169.0	1.187878787878788	-548.0	-0.42514970059880247	1.2711949729185208	-98.0	2.178960085641023	-127.0	2.1469838677613096	-124.0	
9.80339276438771	1893.0	-0.470123753873871	2088.0	2.117429075647306	1258.0	9.888412017167381	-16128.0	512.0	-0.3139178418148375	2.040465971796444	3328.0	0.0	5841.73583984375	60350.0	-0.358695652173913	736.0	-175.0	1.1757575757575758	-565.0	-0.39121756487025955	0.6979858399921126	-72.0	2.0397703830613603	-114.0	1.7572786967331588	-87.0	
9.826810323900636	1893.0	-0.5681381613043022	2096.0	2.1166831071681314	1256.0	9.888412017167381	-16128.0	704.0	-0.4316370324954016	2.118945432250153	3456.0	0.0	5861.26708984375	60990.0	-0.35434782608695653	738.0	-178.0	1.1696969696969697	-561.0	-0.3992015968063873	1.093488037251312	-101.0	1.2449756571744925	-64.0	2.194388313543837	-113.0	
9.754997552648884	1897.0	-0.48037538679969427	2089.0	2.0686498361163226	1262.0	9.809932556713672	-16000.0	448.0	-0.27467811158798283	1.9619865113427344	3200.0	0.0	5880.79833984375	61630.0	-0.3652173913043478	733.0	-176.0	1.1737373737373737	-554.0	-0.4131736526946108	2.2127140262769873	-120.0	0.8406760142664443	-43.0	2.4721694376839984	-186.0	
