Device	Device	Device	Device	Device	Device	Device	Device	Device	Device	Device	Device	Device	Device	Device	Device	Device	Device	Device	Device	Device	Device	Device	Device	Device	Device	Device	
Low Noise Accelerometer X	Low Noise Accelerometer X	Low Noise Accelerometer Z	Low Noise Accelerometer Z	Low Noise Accelerometer Y	Low Noise Accelerometer Y	Wide Range Accelerometer X	Wide Range Accelerometer X	Wide Range Accelerometer Z	Wide Range Accelerometer Z	Wide Range Accelerometer Y	Wide Range Accelerometer Y	Event_Marker	Timestamp	Timestamp	Magnetometer Z	Magnetometer Z	Magnetometer X	Magnetometer X	Magnetometer Y	Magnetometer Y	Gyroscope Y	Gyroscope Y	Gyroscope Z	Gyroscope Z	Gyroscope X	Gyroscope X	
UNCAL	CAL	CAL	UNCAL	UNCAL	CAL	UNCAL	CAL	CAL	UNCAL	UNCAL	CAL	CAL	UNCAL	CAL	CAL	UNCAL	CAL	UNCAL	UNCAL	CAL	CAL	UNCAL	CAL	UNCAL	UNCAL	CAL	
no units	m/(s^2)	m/(s^2)	no units	no units	m/(s^2)	no units	m/(s^2)	m/(s^2)	no units	no units	m/(s^2)	no units	no units	ms	local_flux	no units	local_flux	no units	no units	local_flux	deg/s	no units	deg/s	no units	no units	deg/s	
2003.0	9.807970742809607	-0.11451303440257532	2061.0	1259.0	0.7957297578069616	-16128.0	9.888412017167381	-0.03923973022685469	64.0	1024.0	0.627835683629675	0.0	3581.0	109.283447265625	-0.391304347826087	721.0	1.1898989898989898	-168.0	-494.0	-0.532934131736527	3.615064500114916	214.0	-1.1826691945967487	99.0	-282.0	-2.6217019757996285	
2002.0	9.746890586443477	-0.11352037763075554	2061.0	1264.0	0.8071770755821029	-16000.0	9.809932556713672	-0.03923973022685469	64.0	896.0	0.5493562231759657	0.0	4221.0	128.814697265625	-0.3826086956521739	725.0	1.1535353535353536	-186.0	-480.0	-0.5608782435129741	3.4608495447956824	266.0	-0.46563818405226964	54.0	-272.0	-3.411034350961265	
2001.0	9.648994691605118	-0.1361695584767122	2063.0	1272.0	0.8180198175963441	-15936.0	9.770692826486817	0.0	0.0	1088.0	0.6670754138565297	0.0	4861.0	148.345947265625	-0.3760869565217391	728.0	1.1676767676767676	-179.0	-492.0	-0.5369261477045909	2.161530537426883	261.0	-0.018427316279435807	30.0	-187.0	-3.321995533511151	
2002.0	9.796018461530323	-0.07793451202697207	2058.0	1260.0	0.8080242129890092	-16000.0	9.809932556713672	0.0	0.0	1024.0	0.627835683629675	0.0	5501.0	167.877197265625	-0.3739130434782609	729.0	1.1636363636363636	-181.0	-496.0	-0.5289421157684632	1.8962675267887414	227.0	0.5640582247915025	-9.0	-169.0	-2.802232637245074	
2003.0	9.795899948938251	-0.10207656970809328	2060.0	1260.0	0.795733414515193	-16000.0	9.809932556713672	0.07847946045370938	-128.0	1088.0	0.6670754138565297	0.0	6141.0	187.408447265625	-0.3760869565217391	728.0	1.1656565656565656	-180.0	-487.0	-0.5469061876247505	2.3997150440089876	233.0	0.3527584227295306	3.0	-202.0	-2.8985218652689877	
2009.0	9.94341719824777	-0.054839594601758745	2056.0	1248.0	0.7253918001328454	-16256.0	9.966891477621092	0.0	0.0	832.0	0.510116492949111	0.0	6781.0	206.939697265625	-0.3717391304347826	730.0	1.1818181818181819	-172.0	-501.0	-0.5189620758483035	2.6049471773200366	197.0	0.3765431405591747	-1.0	-215.0	-2.353045669491832	
2001.0	9.833194055337886	-0.00577012404758534	2052.0	1257.0	0.821165805577963	-16256.0	9.966891477621092	0.11771919068056406	-192.0	896.0	0.5493562231759657	0.0	7421.0	226.470947265625	-0.3760869565217391	728.0	1.1717171717171717	-177.0	-492.0	-0.5369261477045909	4.257528907448702	218.0	0.19933659880082943	4.0	-323.0	-2.688963121774107	
1999.0	9.73517533034834	-0.028657739892909817	2054.0	1265.0	0.844053127711783	-16128.0	9.888412017167381	0.07847946045370938	-128.0	1024.0	0.627835683629675	0.0	8061.0	246.002197265625	-0.3652173913043478	733.0	1.1737373737373737	-176.0	-481.0	-0.5588822355289422	3.3410412340870406	200.0	-1.172114285547368	99.0	-264.0	-2.4060339864853573	
2000.0	9.650199246541874	-0.0023152837333903775	2052.0	1272.0	0.8314185986642292	-15936.0	9.770692826486817	0.07847946045370938	-128.0	1088.0	0.6670754138565297	0.0	8701.0	265.533447265625	-0.3673913043478261	732.0	1.1616161616161615	-182.0	-499.0	-0.5229540918163673	1.2029261277867074	128.0	-2.7462641753077914	211.0	-125.0	-1.2895958012018214	
1997.0	9.576802636002007	0.010636967734175856	2051.0	1278.0	0.8669587333867591	-15808.0	9.692213366033108	0.11771919068056406	-192.0	1088.0	0.6670754138565297	0.0	9341.0	285.064697265625	-0.3652173913043478	733.0	1.185858585858586	-170.0	-505.0	-0.5109780439121757	0.4928690340726612	74.0	-3.9740737237063617	294.0	-79.0	-0.46120245459928183	
1991.0	9.563994861223513	0.021642822432451136	2050.0	1279.0	0.939229870812463	-15680.0	9.613733905579398	0.07847946045370938	-128.0	1280.0	0.7847946045370937	0.0	9981.0	304.595947265625	-0.3630434782608696	734.0	1.1777777777777778	-174.0	-487.0	-0.5469061876247505	0.9801787173293082	43.0	-3.2922171095922077	245.0	-110.0	0.0054073383019920904	
1990.0	9.466219637756787	0.011183887926738995	2051.0	1287.0	0.950195722003823	-15616.0	9.574494175352545	0.15695892090741875	-256.0	1280.0	0.7847946045370937	0.0	10621.0	324.127197265625	-0.3630434782608696	734.0	1.185858585858586	-170.0	-499.0	-0.5229540918163673	2.4777015866133056	68.0	-2.0319102384877543	155.0	-207.0	-0.38979602727297724	
1994.0	9.441724671017411	-0.048321167068537396	2056.0	1289.0	0.901162950702139	-15424.0	9.45677498467198	0.0	0.0	1216.0	0.745554874310239	0.0	11261.0	343.658447265625	-0.36086956521739133	735.0	1.1696969696969697	-178.0	-507.0	-0.5069860279441119	0.8420919014311306	82.0	-1.1599295067266184	105.0	-100.0	-0.5863676870751479	
1990.0	9.64824691680019	-0.07784111176853531	2058.0	1272.0	0.9511257447973043	-15808.0	9.692213366033108	0.03923973022685469	-64.0	1216.0	0.745554874310239	0.0	11901.0	363.189697265625	-0.358695652173913	736.0	1.1717171717171717	-177.0	-487.0	-0.5469061876247505	-1.5097110810013297	58.0	-0.3511746146880518	61.0	54.0	-0.1978306458439791	
1991.0	9.74614281163855	-0.055191930922578625	2056.0	1264.0	0.9402830027830631	-16064.0	9.849172286940528	0.0	0.0	1216.0	0.745554874310239	0.0	12541.0	382.720947265625	-0.3630434782608696	734.0	1.1898989898989898	-168.0	-507.0	-0.5069860279441119	-0.49460518995823044	101.0	0.518876439748521	0.0	-12.0	-0.8619741001916725	
1990.0	9.636176122928834	-0.0654046470740533	2057.0	1273.0	0.9511294015055355	-15872.0	9.731453096259962	0.07847946045370938	-128.0	1344.0	0.8240343347639485	0.0	13181.0	402.252197265625	-0.36086956521739133	735.0	1.1676767676767676	-179.0	-490.0	-0.5409181636726548	1.3204600051076751	154.0	1.7291390742664952	-87.0	-130.0	-1.6862084023324457	
1995.0	9.808315486688034	0.017672195345171976	2050.0	1259.0	0.893440599711898	-16000.0	9.809932556713672	0.0	0.0	1152.0	0.7063151440833844	0.0	13821.0	421.783447265625	-0.3630434782608696	734.0	1.1656565656565656	-180.0	-491.0	-0.5389221556886228	0.9087504491308279	152.0	1.9664723817982237	-101.0	-103.0	-1.651673055822107	
1992.0	9.881578473178921	0.06424056558262153	2046.0	1253.0	0.9307834915924346	-16064.0	9.849172286940528	0.23543838136112813	-384.0	1280.0	0.7847946045370937	0.0	14461.0	441.314697265625	-0.36086956521739133	735.0	1.1656565656565656	-180.0	-500.0	-0.5209580838323354	-0.49541897147540026	161.0	1.3500376787334751	-53.0	-12.0	-1.774513490893611	
1990.0	9.96655239820583	0.04984992076397887	2047.0	1246.0	0.9555857099366858	-16448.0	10.084610668301655	0.11771919068056406	-192.0	1280.0	0.7847946045370937	0.0	15101.0	460.845947265625	-0.3565217391304348	737.0	1.1777777777777778	-174.0	-506.0	-0.5089820359281437	-1.422862972197988	114.0	-0.023300727033606833	41.0	48.0	-1.0504101535479824	
1993.0	9.881459960586849	0.0400985079015003	2048.0	1253.0	0.9184926931186183	-16192.0	9.927651747394236	0.15695892090741875	-256.0	1344.0	0.8240343347639485	0.0	15741.0	480.377197265625	-0.358695652173913	736.0	1.1757575757575758	-175.0	-491.0	-0.5389221556886228	-1.2802154391466114	92.0	-1.4409158743279455	134.0	38.0	-0.7172358684222222	
1992.0	9.782960708890334	-0.04350190464567888	2055.0	1261.0	0.9287198892472656	-16192.0	9.927651747394236	0.07847946045370938	-128.0	1280.0	0.7847946045370937	0.0	16381.0	499.908447265625	-0.3652173913043478	733.0	1.185858585858586	-170.0	-502.0	-0.5169660678642716	-2.193055825634556	49.0	-2.8278297353178394	229.0	97.0	-0.0541150691200803	
1985.0	9.795378405419678	0.06429504906670966	2046.0	1260.0	1.0142593851472732	-16128.0	9.888412017167381	0.15695892090741875	-256.0	1216.0	0.745554874310239	0.0	17021.0	519.439697265625	-0.358695652173913	736.0	1.1717171717171717	-177.0	-493.0	-0.5349301397205589	-2.716535194458092	30.0	-3.2827146265489677	261.0	131.0	0.24009310859857336	
1983.0	9.672735407200891	0.01751937724937122	2050.0	1270.0	1.0366615839890807	-15872.0	9.731453096259962	0.07847946045370938	-128.0	1280.0	0.7847946045370937	0.0	17661.0	538.970947265625	-0.358695652173913	736.0	1.1676767676767676	-179.0	-489.0	-0.5429141716566867	-3.0725748313005363	70.0	-2.9787271033461367	244.0	154.0	-0.3647115140444091	
1980.0	9.745274365461992	-0.009053730554646255	2052.0	1264.0	1.0732658208069046	-16000.0	9.809932556713672	0.15695892090741875	-256.0	1408.0	0.8632740649908032	0.0	18301.0	558.502197265625	-0.3673913043478261	732.0	1.187878787878788	-169.0	-510.0	-0.500998003992016	-3.0981945493943686	60.0	-2.623207531201897	220.0	156.0	-0.21236406211061906	
1975.0	9.659199286633495	-0.020712623412067088	2053.0	1271.0	1.1325294449454668	-16000.0	9.809932556713672	0.07847946045370938	-128.0	1600.0	0.9809932556713672	0.0	18941.0	578.033447265625	-0.3630434782608696	734.0	1.1737373737373737	-176.0	-504.0	-0.5129740518962077	-1.4736616775237943	39.0	-1.6396054071220096	146.0	51.0	0.09078224415166379	
1972.0	9.79329892796769	0.012434408713950407	2050.0	1260.0	1.170346489993322	-16064.0	9.849172286940528	0.15695892090741875	-256.0	1664.0	1.020232985898222	0.0	19581.0	597.564697265625	-0.3630434782608696	734.0	1.183838383838384	-171.0	-501.0	-0.5189620758483035	-1.0150795525646759	46.0	-0.18300629682161665	47.0	22.0	-0.020267455424923586	
1977.0	9.83024613170934	-0.011492564032412195	2052.0	1257.0	1.1102357284478532	-16128.0	9.888412017167381	0.11771919068056406	-192.0	1536.0	0.9417535254445125	0.0	20221.0	617.095947265625	-0.3630434782608696	734.0	1.1777777777777778	-174.0	-511.0	-0.4990019960079841	-0.999882752961734	125.0	1.0034271272854909	-29.0	21.0	-1.2219403359684817	
1975.0	9.854383401892939	-0.012461870739622793	2052.0	1255.0	1.1345637936247859	-16192.0	9.927651747394236	0.11771919068056406	-192.0	1600.0	0.9809932556713672	0.0	20861.0	636.627197265625	-0.3565217391304348	737.0	1.1757575757575758	-175.0	-509.0	-0.502994011976048	-0.7885998019983047	166.0	1.2685373633960448	-46.0	7.0	-1.8476273099648077	
1975.0	9.890957797621903	-0.013200525802335328	2052.0	1252.0	1.1349221510314484	-16192.0	9.927651747394236	0.11771919068056406	-192.0	1536.0	0.9417535254445125	0.0	21501.0	656.158447265625	-0.3695652173913044	731.0	1.1737373737373737	-176.0	-505.0	-0.5109780439121757	0.15343321743186897	175.0	1.988057345317356	-98.0	-54.0	-1.9939297694366762	
1978.0	9.830127619117267	-0.03563462171353343	2054.0	1257.0	1.0979449299740371	-16256.0	9.966891477621092	0.03923973022685469	-64.0	1536.0	0.9417535254445125	0.0	22141.0	675.689697265625	-0.3652173913043478	733.0	1.183838383838384	-171.0	-503.0	-0.5149700598802396	0.274982606371391	150.0	1.48462826243185	-66.0	-62.0	-1.6149171264439421	
1974.0	9.817444833269521	-0.03634214335676708	2054.0	1258.0	1.1460037979834645	-16128.0	9.888412017167381	0.03923973022685469	-64.0	1536.0	0.9417535254445125	0.0	22781.0	695.220947265625	-0.3695652173913044	731.0	1.1616161616161615	-182.0	-491.0	-0.5389221556886228	-1.4199970905630328	119.0	0.3393617226546798	17.0	48.0	-1.1264844397407576	
1971.0	9.93874965250257	-0.06390012457773461	2056.0	1248.0	1.1830858446768384	-16320.0	10.006131207847945	0.03923973022685469	-64.0	1664.0	1.020232985898222	0.0	23421.0	714.752197265625	-0.3652173913043478	733.0	1.1737373737373737	-176.0	-501.0	-0.5189620758483035	-2.987140531349515	100.0	-0.11784666790845738	54.0	150.0	-0.8218396213024746	
1978.0	9.976183859289861	-0.06296973464487263	2056.0	1245.0	1.0991321412464496	-16448.0	10.084610668301655	0.0	0.0	1664.0	1.020232985898222	0.0	24061.0	734.283447265625	-0.3673913043478261	732.0	1.1919191919191918	-167.0	-514.0	-0.4930139720558883	-1.6830953437669587	126.0	0.22699938247761944	26.0	65.0	-1.2303173355357147	
1976.0	9.890839285029829	-0.03734258348345659	2054.0	1252.0	1.1226313525576321	-16448.0	10.084610668301655	0.03923973022685469	-64.0	1600.0	0.9809932556713672	0.0	24701.0	753.814697265625	-0.3652173913043478	733.0	1.1757575757575758	-175.0	-504.0	-0.5129740518962077	0.37280482328700987	163.0	0.7211108902272487	-15.0	-69.0	-1.8136139797918058	
1979.0	9.879378324355303	1.8967888961779478E-4	2051.0	1253.0	1.0867474872613647	-16320.0	10.006131207847945	0.07847946045370938	-128.0	1536.0	0.9417535254445125	0.0	25341.0	773.345947265625	-0.3630434782608696	734.0	1.1818181818181819	-172.0	-501.0	-0.5189620758483035	0.6969875704210774	189.0	-0.23016247461091982	48.0	-91.0	-2.212293069620561	
1982.0	9.843293090451537	0.013833885290678222	2050.0	1256.0	1.0503784986730846	-16256.0	9.966891477621092	0.19619865113427343	-320.0	1472.0	0.9025137952176578	0.0	25981.0	792.877197265625	-0.3630434782608696	734.0	1.1797979797979798	-173.0	-514.0	-0.4930139720558883	-0.7143147464018661	189.0	-0.16192084085629482	50.0	1.0	-2.198180046452331	
1982.0	9.916200539166205	-0.012023917515235877	2052.0	1250.0	1.0508489951321722	-16320.0	10.006131207847945	0.11771919068056406	-192.0	1408.0	0.8632740649908032	0.0	26621.0	812.408447265625	-0.358695652173913	736.0	1.1737373737373737	-176.0	-507.0	-0.5069860279441119	-0.9125430271739471	139.0	-0.7932350571382917	91.0	14.0	-1.435741489880352	
1979.0	9.80586751878248	-0.034903750005690626	2054.0	1259.0	1.0856614449166833	-16064.0	9.849172286940528	0.07847946045370938	-128.0	1600.0	0.9809932556713672	0.0	27261.0	831.939697265625	-0.3673913043478261	732.0	1.1737373737373737	-176.0	-497.0	-0.5269461077844312	-0.34239263916290774	97.0	-1.2032964411492357	114.0	-23.0	-0.802659723798485	
1976.0	9.805378356957277	-0.04780930134403852	2055.0	1259.0	1.1216720760983008	-16064.0	9.849172286940528	-0.03923973022685469	64.0	1600.0	0.9809932556713672	0.0	27901.0	851.470947265625	-0.3717391304347826	730.0	1.185858585858586	-170.0	-509.0	-0.502994011976048	-0.08209372420286144	102.0	-1.1883864130391462	112.0	-40.0	-0.8813083403245113	
1974.0	9.865728008754948	-0.08608800213469517	2058.0	1254.0	1.1459891711505394	-16192.0	9.927651747394236	-0.07847946045370938	128.0	1600.0	0.9809932556713672	0.0	28541.0	871.002197265625	-0.3695652173913044	731.0	1.1636363636363636	-181.0	-493.0	-0.5349301397205589	-0.5865244003179588	151.0	-0.23891043091054606	53.0	-7.0	-1.6215111818523338	
1979.0	9.939370279597194	-0.09856338360352586	2059.0	1248.0	1.086359876188852	-16320.0	10.006131207847945	0.0	0.0	1472.0	0.9025137952176578	0.0	29181.0	890.533447265625	-0.3630434782608696	734.0	1.1737373737373737	-176.0	-496.0	-0.5289421157684632	1.541911111300456	214.0	1.7652204821642878	-88.0	-145.0	-2.600970441911484	
1980.0	9.96375536886273	-0.11100763165287758	2060.0	1246.0	1.0744310918299296	-16512.0	10.123850398528509	0.03923973022685469	-64.0	1472.0	0.9025137952176578	0.0	29821.0	910.064697265625	-0.36086956521739133	735.0	1.1737373737373737	-176.0	-509.0	-0.502994011976048	1.3527543116663345	209.0	1.190636324146854	-49.0	-133.0	-2.5230332465387164	
1982.0	9.915355839564786	-0.09735564189694744	2059.0	1250.0	1.0499872308923408	-16256.0	9.966891477621092	-0.03923973022685469	64.0	1280.0	0.7847946045370937	0.0	30461.0	929.595947265625	-0.35434782608695653	738.0	1.1676767676767676	-179.0	-513.0	-0.49500998003992025	0.6932100493409001	219.0	-0.15167859358089356	44.0	-91.0	-2.6685290586683146	
1976.0	9.86537031219917	-0.14656236383718213	2063.0	1254.0	1.1212844650257883	-16192.0	9.927651747394236	0.03923973022685469	-64.0	1536.0	0.9417535254445125	0.0	31101.0	949.127197265625	-0.3673913043478261	732.0	1.1797979797979798	-173.0	-502.0	-0.5169660678642716	-0.09398636744045541	202.0	-0.8568571157024019	94.0	-40.0	-2.402101961420653	
1970.0	9.75491014410514	-0.14577700864525123	2063.0	1263.0	1.1924768735232734	-16128.0	9.888412017167381	-0.07847946045370938	128.0	1664.0	1.020232985898222	0.0	31741.0	968.658447265625	-0.3565217391304348	737.0	1.1797979797979798	-173.0	-518.0	-0.4850299401197605	0.8245457812660681	192.0	-1.2417131821531346	115.0	-100.0	-2.259196028154866	
1962.0	9.631530164979218	-0.19398329045879636	2067.0	1273.0	1.2871465530825532	-15808.0	9.692213366033108	-0.07847946045370938	128.0	1856.0	1.137952176578786	0.0	32381.0	988.189697265625	-0.3521739130434783	739.0	1.1717171717171717	-177.0	-508.0	-0.5049900199600799	-0.16708570631908598	185.0	-2.2863994631116067	189.0	-36.0	-2.1428158349520183	
1957.0	9.568389960177122	-0.3524175761076263	2080.0	1278.0	1.3451717720334657	-15744.0	9.652973635806253	-0.23543838136112813	384.0	1920.0	1.1771919068056407	0.0	33021.0	1007.720947265625	-0.36086956521739133	735.0	1.1737373737373737	-176.0	-496.0	-0.5289421157684632	-2.9914223239588567	149.0	-4.405579848671557	342.0	147.0	-1.5670439516653547	
1959.0	9.604365316607046	-0.4380110855533149	2087.0	1275.0	1.3205792049611393	-15808.0	9.692213366033108	-0.3139178418148375	512.0	1792.0	1.0987124463519313	0.0	33661.0	1027.252197265625	-0.36086956521739133	735.0	1.183838383838384	-171.0	-509.0	-0.502994011976048	-4.763532453584914	119.0	-5.574854752810631	427.0	262.0	-1.0930490861105389	
1960.0	9.616076255143069	-0.49897010060940716	2092.0	1274.0	1.3080385314248544	-15808.0	9.692213366033108	-0.3531575720416922	576.0	1984.0	1.2164316370324952	0.0	34301.0	1046.783447265625	-0.358695652173913	736.0	1.1595959595959595	-183.0	-510.0	-0.500998003992016	-4.205807388588677	194.0	-5.448105010923506	419.0	225.0	-2.239310747406889	
1959.0	9.56767024950645	-0.44946267683084684	2088.0	1278.0	1.320097738377358	-15552.0	9.53525444512569	-0.39239730226854685	640.0	1856.0	1.137952176578786	0.0	34941.0	1066.314697265625	-0.35434782608695653	738.0	1.1777777777777778	-174.0	-502.0	-0.5169660678642716	-3.46228600394069	334.0	-4.170305185538957	336.0	176.0	-4.3760235277932935	
1961.0	9.495249803837424	-0.3987475113457081	2084.0	1284.0	1.2957843000333504	-15488.0	9.496014714898834	-0.27467811158798283	448.0	1856.0	1.137952176578786	0.0	35581.0	1085.845947265625	-0.358695652173913	736.0	1.185858585858586	-170.0	-524.0	-0.4730538922155689	-3.687777351896713	452.0	-3.4381462543084558	293.0	190.0	-6.168445420397383	
1976.0	9.607298128778686	-0.348625966182351	2080.0	1275.0	1.1166831071681316	-15808.0	9.692213366033108	-0.23543838136112813	384.0	1472.0	0.9025137952176578	0.0	36221.0	1105.377197265625	-0.3652173913043478	733.0	1.1757575757575758	-175.0	-520.0	-0.48103792415169666	-3.145564559217368	535.0	-1.6712670295702572	176.0	155.0	-7.436224962772846	
1979.0	9.548157349476888	-0.20039661333012593	2068.0	1280.0	1.081429414590383	-15680.0	9.613733905579398	-0.15695892090741875	256.0	1600.0	0.9809932556713672	0.0	36861.0	1124.908447265625	-0.3739130434782609	729.0	1.1898989898989898	-168.0	-511.0	-0.4990019960079841	-2.1534729730460667	583.0	0.043007855475502454	59.0	91.0	-8.176183901448248	
1977.0	9.646891467577989	-0.0565602740798275	2056.0	1272.0	1.1079515047060655	-15872.0	9.731453096259962	0.03923973022685469	-64.0	1536.0	0.9417535254445125	0.0	37501.0	1144.439697265625	-0.3695652173913044	731.0	1.1898989898989898	-168.0	-525.0	-0.471057884231537	-2.371733309282759	611.0	1.6644383927112447	-47.0	106.0	-8.599856811393865	
1976.0	9.72088279985778	0.03924595151733565	2048.0	1266.0	1.1216976730559194	-15936.0	9.770692826486817	0.03923973022685469	-64.0	1536.0	0.9417535254445125	0.0	38141.0	1163.970947265625	-0.358695652173913	736.0	1.1696969696969697	-178.0	-515.0	-0.4910179640718563	-1.408662855193143	622.0	2.983411049143319	-139.0	44.0	-8.7767878961629	
1984.0	9.660908114852354	0.04238452328346551	2048.0	1271.0	1.0247437697548518	-15872.0	9.731453096259962	0.11771919068056406	-192.0	1408.0	0.8632740649908032	0.0	38781.0	1183.502197265625	-0.3673913043478261	732.0	1.1515151515151516	-187.0	-504.0	-0.5129740518962077	-0.08184506373296638	572.0	4.4498516772084695	-245.0	-41.0	-8.02959980031324	
1984.0	9.795979603498276	0.1371980921088089	2040.0	1260.0	1.0270426203295646	-16064.0	9.849172286940528	0.27467811158798283	-448.0	1344.0	0.8240343347639485	0.0	39421.0	1203.033447265625	-0.3565217391304348	737.0	1.1717171717171717	-177.0	-517.0	-0.48702594810379246	0.9778533328273877	473.0	6.084983974204601	-363.0	-108.0	-6.5344933622256125	
1985.0	9.869613239222288	0.17252995600348514	2037.0	1254.0	1.0160840825546673	-16128.0	9.888412017167381	0.19619865113427343	-320.0	1472.0	0.9025137952176578	0.0	40061.0	1222.564697265625	-0.3652173913043478	733.0	1.1636363636363636	-181.0	-514.0	-0.4930139720558883	4.994265823817082	405.0	7.653128315802809	-489.0	-368.0	-5.540436954816118	
1988.0	9.650414683930437	0.16548694503761927	2038.0	1272.0	0.977677088578837	-15808.0	9.692213366033108	0.11771919068056406	-192.0	1472.0	0.9025137952176578	0.0	40701.0	1242.095947265625	-0.3630434782608696	734.0	1.1696969696969697	-178.0	-506.0	-0.5089820359281437	5.453643091661909	371.0	7.030756104885636	-451.0	-398.0	-5.027920461334871	
1990.0	9.893041592633006	0.014756491868670452	2050.0	1252.0	0.9544996675920044	-16320.0	10.006131207847945	0.03923973022685469	-64.0	1216.0	0.745554874310239	0.0	41341.0	1261.627197265625	-0.3652173913043478	733.0	1.1737373737373737	-176.0	-520.0	-0.48103792415169666	-2.1302876601927876	264.0	5.184657050969109	-297.0	96.0	-3.32470472796081	
1986.0	10.039330540430631	0.05960911698132715	2046.0	1240.0	1.0046038544054445	-16640.0	10.20232985898222	0.11771919068056406	-192.0	1408.0	0.8632740649908032	0.0	41981.0	1281.158447265625	-0.3652173913043478	733.0	1.1737373737373737	-176.0	-512.0	-0.4970059880239522	-2.8874316236634283	141.0	4.337937667341335	-242.0	146.0	-1.4464108548660275	
1991.0	9.831483068339466	-0.056915459402241214	2056.0	1257.0	0.9411191700652757	-16192.0	9.927651747394236	0.0	0.0	1280.0	0.7847946045370937	0.0	42621.0	1300.689697265625	-0.36086956521739133	735.0	1.183838383838384	-171.0	-505.0	-0.5109780439121757	-0.24784069043532975	98.0	3.6632948263792655	-211.0	-26.0	-0.8188143687610461	
1985.0	9.92767445251808	-0.12126704793357063	2061.0	1249.0	1.0137267246482544	-16320.0	10.006131207847945	-0.07847946045370938	128.0	1408.0	0.8632740649908032	0.0	43261.0	1320.220947265625	-0.3630434782608696	734.0	1.1717171717171717	-177.0	-522.0	-0.4770459081836328	-2.1505511855991086	77.0	1.8489148279351793	-82.0	97.0	-0.48039562882841963	
1984.0	9.927430950995259	-0.13369572927318293	2062.0	1249.0	1.0256481955907144	-16256.0	9.966891477621092	0.03923973022685469	-64.0	1472.0	0.9025137952176578	0.0	43901.0	1339.752197265625	-0.36086956521739133	735.0	1.1616161616161615	-182.0	-514.0	-0.4930139720558883	-2.836744234977261	82.0	0.8352479231500143	-11.0	141.0	-0.5495793257110639	
1979.0	9.81745562716731	-0.09610120006115071	2059.0	1258.0	1.0851653514999768	-16064.0	9.849172286940528	0.07847946045370938	-128.0	1536.0	0.9417535254445125	0.0	44541.0	1359.283447265625	-0.3717391304347826	730.0	1.1696969696969697	-178.0	-498.0	-0.5249500998003993	-0.974925820064288	95.0	1.508176805369894	-64.0	20.0	-0.7659161410389009	
1979.0	9.793072696681335	-0.09560876335267567	2059.0	1260.0	1.084926446562202	-16128.0	9.888412017167381	-0.03923973022685469	64.0	1408.0	0.8632740649908032	0.0	45181.0	1378.814697265625	-0.36086956521739133	735.0	1.1717171717171717	-177.0	-522.0	-0.4770459081836328	-0.5492481636166108	130.0	1.6347749498796684	-73.0	-8.0	-1.3024923092383587	
1981.0	9.86610513432675	-0.1331799425000987	2062.0	1254.0	1.0611846736050132	-16192.0	9.927651747394236	-0.07847946045370938	128.0	1344.0	0.8240343347639485	0.0	45821.0	1398.345947265625	-0.3565217391304348	737.0	1.1555555555555554	-185.0	-508.0	-0.5049900199600799	-1.9150515691101937	114.0	1.4052584478871948	-52.0	81.0	-1.0454882675788602	
1975.0	9.889992426648853	-0.11072249652429139	2060.0	1252.0	1.1339372776144983	-16448.0	10.084610668301655	-0.03923973022685469	64.0	1664.0	1.020232985898222	0.0	46461.0	1417.877197265625	-0.36086956521739133	735.0	1.1676767676767676	-179.0	-502.0	-0.5169660678642716	-1.1311978515598602	119.0	1.5936241142107634	-68.0	30.0	-1.1293724321307894	
1977.0	9.865975827836884	-0.09756294347683632	2059.0	1254.0	1.1097323216146844	-16192.0	9.927651747394236	-0.03923973022685469	64.0	1536.0	0.9417535254445125	0.0	47101.0	1437.408447265625	-0.3565217391304348	737.0	1.1757575757575758	-175.0	-523.0	-0.47504990019960086	-0.4524883248924343	154.0	2.467228931707666	-128.0	-14.0	-1.6684789190324447	
1977.0	9.86561381372199	-0.13413368249756985	2062.0	1254.0	1.109362994083328	-16192.0	9.927651747394236	0.0	0.0	1536.0	0.9417535254445125	0.0	47741.0	1456.939697265625	-0.3652173913043478	733.0	1.1616161616161615	-182.0	-517.0	-0.48702594810379246	-0.33079019190227277	167.0	2.556622509387455	-134.0	-22.0	-1.8674145315410537	
1978.0	9.853665850001825	-0.12145878280372002	2061.0	1255.0	1.0973220706719806	-16256.0	9.966891477621092	-0.07847946045370938	128.0	1536.0	0.9417535254445125	0.0	48381.0	1476.470947265625	-0.3652173913043478	733.0	1.1818181818181819	-172.0	-506.0	-0.5089820359281437	-0.24763813261237272	159.0	1.5414704547843485	-67.0	-28.0	-1.746573048331671	
1981.0	9.939133254413049	-0.14684749896576832	2063.0	1248.0	1.0617782792412196	-16320.0	10.006131207847945	-0.11771919068056406	192.0	1472.0	0.9025137952176578	0.0	49021.0	1496.002197265625	-0.358695652173913	736.0	1.1757575757575758	-175.0	-522.0	-0.4770459081836328	-1.483344457430006	144.0	0.5238973660932915	6.0	52.0	-1.506079102954217	
1981.0	9.939133254413049	-0.14684749896576832	2063.0	1248.0	1.0617782792412196	-16320.0	10.006131207847945	-0.07847946045370938	128.0	1472.0	0.9025137952176578	0.0	49661.0	1515.533447265625	-0.3652173913043478	733.0	1.1616161616161615	-182.0	-511.0	-0.4990019960079841	-1.8396424392025088	118.0	-0.20175446852780965	55.0	75.0	-1.1070788607790778	
1983.0	9.719570526226743	-0.17850943761149096	2066.0	1266.0	1.0351696470307306	-16064.0	9.849172286940528	-0.03923973022685469	64.0	1344.0	0.8240343347639485	0.0	50301.0	1535.064697265625	-0.3673913043478261	732.0	1.1656565656565656	-180.0	-500.0	-0.5209580838323354	-0.9281639674161088	143.0	-0.7597293721251397	89.0	15.0	-1.4964217823790709	
1982.0	9.840034963417493	-0.3153027658959235	2077.0	1256.0	1.0470545508908782	-16128.0	9.888412017167381	-0.19619865113427343	320.0	1408.0	0.8632740649908032	0.0	50941.0	1554.595947265625	-0.3565217391304348	737.0	1.1656565656565656	-180.0	-513.0	-0.49500998003992025	-1.965522458465136	132.0	-1.833651521214824	165.0	82.0	-1.3187478172404437	
1974.0	9.778939695594456	-0.23064742973796665	2070.0	1261.0	1.1436756937429018	-15936.0	9.770692826486817	-0.19619865113427343	320.0	1600.0	0.9809932556713672	0.0	51581.0	1574.127197265625	-0.3652173913043478	733.0	1.1535353535353536	-186.0	-507.0	-0.5069860279441119	-3.0789078124343106	74.0	-2.0163326279031204	180.0	155.0	-0.4254846861342121	
1970.0	9.839888386691163	-0.18407127614564733	2066.0	1256.0	1.1929437132741296	-16192.0	9.927651747394236	-0.11771919068056406	192.0	1856.0	1.137952176578786	0.0	52221.0	1593.658447265625	-0.3695652173913044	731.0	1.1575757575757575	-184.0	-510.0	-0.500998003992016	-2.268252649463498	123.0	-1.548191717626174	147.0	102.0	-1.1788383860528937	
1966.0	9.803426027215597	-0.1233351293791834	2061.0	1259.0	1.2413792222313758	-16128.0	9.888412017167381	-0.03923973022685469	64.0	1664.0	1.020232985898222	0.0	52861.0	1613.189697265625	-0.3652173913043478	733.0	1.1737373737373737	-176.0	-525.0	-0.471057884231537	-1.5700156177959859	219.0	-0.8637233045394704	102.0	56.0	-2.6458968019969453	
1965.0	9.74270788496436	-0.0857717335866301	2058.0	1264.0	1.2531958675378732	-15936.0	9.770692826486817	0.07847946045370938	-128.0	1856.0	1.137952176578786	0.0	53501.0	1632.720947265625	-0.3673913043478261	732.0	1.1616161616161615	-182.0	-521.0	-0.4790419161676647	0.09548842483470486	312.0	-0.18843175548033497	53.0	-53.0	-4.077000511624773	
1968.0	9.706501979688964	-0.08431777352581418	2058.0	1267.0	1.2167037697724745	-15936.0	9.770692826486817	0.0	0.0	1728.0	1.0594727161250765	0.0	54141.0	1652.252197265625	-0.3782608695652174	727.0	1.1777777777777778	-174.0	-508.0	-0.5049900199600799	1.3490510338241954	320.0	0.9735650181805404	-30.0	-134.0	-4.2112091415169495	
1968.0	9.766976620417381	-0.1343098506579798	2062.0	1262.0	1.2168085954084369	-16064.0	9.849172286940528	-0.07847946045370938	128.0	1664.0	1.020232985898222	0.0	54781.0	1671.783447265625	-0.3717391304347826	730.0	1.1777777777777778	-174.0	-521.0	-0.4790419161676647	0.6076472309436389	300.0	1.732639602390844	-78.0	-85.0	-3.8996125939824404	
1968.0	9.889373958333788	-0.08801104883937691	2058.0	1252.0	1.2184955568057871	-16192.0	9.927651747394236	-0.03923973022685469	64.0	1792.0	1.0987124463519313	0.0	55421.0	1691.314697265625	-0.3760869565217391	728.0	1.1555555555555554	-185.0	-508.0	-0.5049900199600799	-0.6876181296635737	259.0	2.0377271656796534	-94.0	0.0	-3.2630857958896766	
1971.0	9.937301596042996	-0.2101830806606687	2068.0	1248.0	1.1816085345514133	-16320.0	10.006131207847945	-0.07847946045370938	128.0	1664.0	1.020232985898222	0.0	56061.0	1710.845947265625	-0.3739130434782609	729.0	1.1696969696969697	-178.0	-499.0	-0.5229540918163673	1.1404547637882152	291.0	2.6945786640581963	-145.0	-119.0	-3.7680585400333193	
1975.0	9.82806972946086	-0.20701337547505988	2068.0	1257.0	1.1323551418531106	-16192.0	9.927651747394236	-0.07847946045370938	128.0	1664.0	1.020232985898222	0.0	56701.0	1730.377197265625	-0.36086956521739133	735.0	1.1636363636363636	-181.0	-515.0	-0.4910179640718563	1.887035226000173	294.0	2.1946666465015	-115.0	-168.0	-3.8211517210812946	
1971.0	9.888897749185936	-0.1726274682229851	2065.0	1252.0	1.1815000522072197	-16256.0	9.966891477621092	-0.11771919068056406	192.0	1536.0	0.9417535254445125	0.0	57341.0	1749.908447265625	-0.3695652173913044	731.0	1.1494949494949496	-188.0	-503.0	-0.5149700598802396	0.6652450537893512	337.0	1.9160578408535898	-89.0	-89.0	-4.462926214796449	
1973.0	9.865243164488865	-0.12289717615479648	2061.0	1254.0	1.1576644237387619	-16192.0	9.927651747394236	-0.03923973022685469	64.0	1664.0	1.020232985898222	0.0	57981.0	1769.439697265625	-0.3717391304347826	730.0	1.1696969696969697	-178.0	-514.0	-0.4930139720558883	1.05770595423593	373.0	1.805696176630037	-82.0	-115.0	-5.014379340911181	
1972.0	9.925715646437723	-0.16093744194608536	2064.0	1249.0	1.169936938671422	-16320.0	10.006131207847945	-0.03923973022685469	64.0	1536.0	0.9417535254445125	0.0	58621.0	1788.970947265625	-0.3630434782608696	734.0	1.1474747474747475	-189.0	-498.0	-0.5249500998003993	1.5216282819654676	352.0	1.8355940359614513	-87.0	-145.0	-4.699626929207487	
1976.0	9.79306622034266	-0.059753329330045485	2056.0	1260.0	1.1214295144522943	-16128.0	9.888412017167381	0.0	0.0	1472.0	0.9025137952176578	0.0	59261.0	1808.502197265625	-0.36086956521739133	735.0	1.1454545454545455	-190.0	-508.0	-0.5049900199600799	2.331475701219094	386.0	1.9948156149534237	-100.0	-198.0	-5.224835669559719	
1980.0	9.878777126276704	-0.07271336415248147	2057.0	1253.0	1.0739642520790733	-16384.0	10.0453709380748	0.0	0.0	1536.0	0.9417535254445125	0.0	59901.0	1828.033447265625	-0.3673913043478261	732.0	1.1636363636363636	-181.0	-511.0	-0.4990019960079841	1.7948466568518484	390.0	2.1095609752580593	-105.0	-163.0	-5.2803058810171875	
1982.0	9.87878144383582	-0.0966169868342349	2059.0	1253.0	1.0496288734856782	-16256.0	9.966891477621092	-0.03923973022685469	64.0	1344.0	0.8240343347639485	0.0	60541.0	1847.564697265625	-0.3695652173913044	731.0	1.1757575757575758	-175.0	-522.0	-0.4770459081836328	1.6509008999143124	372.0	1.2540563159555282	-48.0	-154.0	-5.00510216489268	
1982.0	9.903647059808321	-0.0483484381817319	2055.0	1251.0	1.0503602151319282	-16384.0	10.0453709380748	0.0	0.0	1408.0	0.8632740649908032	0.0	61181.0	1867.095947265625	-0.35434782608695653	738.0	1.1595959595959595	-183.0	-511.0	-0.4990019960079841	1.3704996756427785	336.0	0.2921508606003565	16.0	-136.0	-4.454769635539698	
1987.0	9.818920953863351	-0.045432734705230376	2055.0	1258.0	0.9893011472518219	-16192.0	9.927651747394236	0.07847946045370938	-128.0	1280.0	0.7847946045370937	0.0	61821.0	1886.627197265625	-0.3652173913043478	733.0	1.1717171717171717	-177.0	-504.0	-0.5129740518962077	0.8162719629409052	298.0	-0.4570104524724493	67.0	-100.0	-3.871280590351843	
1984.0	9.855730215996905	0.014064536935176258	2050.0	1255.0	1.0264087909028146	-16256.0	9.966891477621092	0.11771919068056406	-192.0	1344.0	0.8240343347639485	0.0	62461.0	1906.158447265625	-0.3695652173913044	731.0	1.1535353535353536	-186.0	-490.0	-0.5409181636726548	0.48801407783809964	288.0	-1.2048650450138307	118.0	-79.0	-3.715906756747963	
1984.0	9.80696435502495	0.015049410352126313	2050.0	1259.0	1.0259309810272645	-16064.0	9.849172286940528	0.11771919068056406	-192.0	1408.0	0.8632740649908032	0.0	63101.0	1925.689697265625	-0.358695652173913	736.0	1.1555555555555554	-185.0	-521.0	-0.4790419161676647	1.5630111213206095	265.0	-1.4885797834031131	131.0	-149.0	-3.376846841251229	
1981.0	9.733205730370193	-0.008569077201040942	2052.0	1265.0	1.0611017882184384	-15936.0	9.770692826486817	0.15695892090741875	-256.0	1472.0	0.9025137952176578	0.0	63741.0	1945.220947265625	-0.3695652173913044	731.0	1.1696969696969697	-178.0	-516.0	-0.4890219560878244	1.9883658090686944	232.0	-0.8935828541283409	88.0	-176.0	-2.879199247444299	
1983.0	9.67261473582926	0.005329130909126734	2051.0	1270.0	1.036538474811962	-15872.0	9.731453096259962	0.07847946045370938	-128.0	1408.0	0.8632740649908032	0.0	64381.0	1964.752197265625	-0.3652173913043478	733.0	1.1737373737373737	-176.0	-518.0	-0.4850299401197605	1.8434291933893445	205.0	-0.4501460087465881	58.0	-166.0	-2.467103493454806	
1982.0	9.684321356806166	-0.031726261465212124	2054.0	1269.0	1.048333179869072	-15936.0	9.770692826486817	0.11771919068056406	-192.0	1280.0	0.7847946045370937	0.0	65021.0	1984.283447265625	-0.3652173913043478	733.0	1.1616161616161615	-182.0	-500.0	-0.5209580838323354	0.6817562710568652	216.0	0.19212108053753757	21.0	-90.0	-2.6227871444596187	
1985.0	9.794654377189891	-0.008846428974757375	2052.0	1260.0	1.0135207300845608	-16192.0	9.927651747394236	0.11771919068056406	-192.0	1344.0	0.8240343347639485	0.0	125.0	2003.814697265625	-0.3630434782608696	734.0	1.1757575757575758	-175.0	-508.0	-0.5049900199600799	1.0433141745617642	208.0	0.9267074214559281	-30.0	-113.0	-2.504729719692386	
1982.0	9.660421111806713	0.01752716060424095	2050.0	1271.0	1.048586711639772	-15808.0	9.692213366033108	0.03923973022685469	-64.0	1344.0	0.8240343347639485	0.0	765.0	2023.345947265625	-0.3565217391304348	737.0	1.1757575757575758	-175.0	-526.0	-0.46906187624750506	2.3514130089059075	198.0	1.1294301673579803	-50.0	-198.0	-2.3657194532829755	
1982.0	9.721257766650023	0.004105822492808886	2051.0	1266.0	1.0490608648070907	-16000.0	9.809932556713672	0.07847946045370938	-128.0	1344.0	0.8240343347639485	0.0	1405.0	2042.877197265625	-0.3521739130434783	739.0	1.1555555555555554	-185.0	-511.0	-0.4990019960079841	0.7843606591546641	164.0	0.4531949090998563	1.0	-96.0	-1.8329386636257674	
1981.0	9.733567744485086	0.028001661819692575	2049.0	1265.0	1.0614711157497947	-15936.0	9.770692826486817	0.03923973022685469	-64.0	1280.0	0.7847946045370937	0.0	2045.0	2062.408447265625	-0.3673913043478261	732.0	1.1656565656565656	-180.0	-505.0	-0.5109780439121757	0.9117642169363125	142.0	0.580868628541262	-9.0	-104.0	-1.4996119387473101	
1986.0	9.563260039095935	0.008260401095367714	2051.0	1279.0	0.999329662233238	-15744.0	9.652973635806253	0.07847946045370938	-128.0	1280.0	0.7847946045370937	0.0	2685.0	2081.939697265625	-0.35434782608695653	738.0	1.1636363636363636	-181.0	-522.0	-0.4770459081836328	1.8946158775461226	164.0	0.9756212958248482	-39.0	-168.0	-1.844041215809682	
1990.0	9.624950028658896	0.03236354200214028	2049.0	1274.0	0.951994822453598	-15680.0	9.613733905579398	0.15695892090741875	-256.0	1216.0	0.745554874310239	0.0	3325.0	2101.470947265625	-0.3630434782608696	734.0	1.1535353535353536	-186.0	-519.0	-0.4830339321357286	0.5784490216373097	194.0	1.8051176394764887	-87.0	-82.0	-2.287153311509149	
1987.0	9.61239007296234	0.031894455358274454	2049.0	1275.0	0.9880091103434469	-15680.0	9.613733905579398	0.07847946045370938	-128.0	1344.0	0.8240343347639485	0.0	3965.0	2121.002197265625	-0.3673913043478261	732.0	1.1454545454545455	-190.0	-488.0	-0.5449101796407186	1.8759292216344576	203.0	2.7697635650966053	-157.0	-166.0	-2.437010242786687	
1988.0	9.56410905625647	0.06968850279532579	2046.0	1279.0	0.9758560478796744	-15744.0	9.652973635806253	0.03923973022685469	-64.0	1408.0	0.8632740649908032	0.0	4605.0	2140.533447265625	-0.35	740.0	1.1717171717171717	-177.0	-518.0	-0.4850299401197605	1.9387154467629377	226.0	3.2591461592049558	-189.0	-170.0	-2.7874479909695307	
1983.0	9.685530229302035	0.07822439059635625	2045.0	1269.0	1.037396582343562	-15936.0	9.770692826486817	0.15695892090741875	-256.0	1344.0	0.8240343347639485	0.0	5245.0	2160.064697265625	-0.36086956521739133	735.0	1.1595959595959595	-183.0	-495.0	-0.530938123752495	-0.09339100487605215	168.0	3.2903330783957383	-184.0	-37.0	-1.8849976488866007	
1986.0	9.697848842255329	0.054312984559733046	2047.0	1268.0	1.0011360760994756	-15872.0	9.731453096259962	0.23543838136112813	-384.0	1344.0	0.8240343347639485	0.0	5885.0	2179.595947265625	-0.3565217391304348	737.0	1.1535353535353536	-186.0	-504.0	-0.5129740518962077	-0.07754873939219058	144.0	2.9747796212992683	-164.0	-38.0	-1.5201370601345954	
1984.0	9.721382755580771	-0.0076075538487000716	2052.0	1266.0	1.0248485953908144	-16000.0	9.809932556713672	0.07847946045370938	-128.0	1344.0	0.8240343347639485	0.0	6525.0	2199.127197265625	-0.34782608695652173	741.0	1.1676767676767676	-179.0	-519.0	-0.4830339321357286	-1.51765086305512	87.0	2.3656712543568914	-119.0	56.0	-0.6388158868067113	
1979.0	9.806350204269004	0.013857235355287406	2050.0	1259.0	1.0861538816251584	-16128.0	9.888412017167381	0.03923973022685469	-64.0	1536.0	0.9417535254445125	0.0	7165.0	2218.658447265625	-0.3565217391304348	737.0	1.1636363636363636	-181.0	-493.0	-0.5349301397205589	-2.328972854326722	59.0	2.1502324806989344	-102.0	109.0	-0.20484715358601036	
1974.0	9.744899398669748	0.026086398469880562	2049.0	1264.0	1.1459026290557333	-16064.0	9.849172286940528	0.07847946045370938	-128.0	1536.0	0.9417535254445125	0.0	7805.0	2238.189697265625	-0.3673913043478261	732.0	1.1636363636363636	-181.0	-503.0	-0.5149700598802396	-1.077675970849754	86.0	1.8396880131522306	-86.0	27.0	-0.6280065102534796	
1971.0	9.793658783303025	0.060956959075560646	2046.0	1260.0	1.1828835068213757	-16128.0	9.888412017167381	0.15695892090741875	-256.0	1728.0	1.0594727161250765	0.0	8445.0	2257.720947265625	-0.36086956521739133	735.0	1.1555555555555554	-185.0	-515.0	-0.4910179640718563	-0.9385866283324358	88.0	1.9661566586841814	-95.0	18.0	-0.6598156546292232	
1972.0	9.744533066995738	0.013419282130900462	2050.0	1264.0	1.169868680117772	-16064.0	9.849172286940528	0.07847946045370938	-128.0	1728.0	1.0594727161250765	0.0	9085.0	2277.252197265625	-0.3652173913043478	733.0	1.1515151515151516	-187.0	-508.0	-0.5049900199600799	-1.4753370165304667	61.0	1.597283532738182	-69.0	53.0	-0.24380176291454325	
1972.0	9.695043177793995	-0.05873732249361652	2056.0	1268.0	1.1686522151795093	-15872.0	9.731453096259962	0.0	0.0	1728.0	1.0594727161250765	0.0	9725.0	2296.783447265625	-0.358695652173913	736.0	1.1676767676767676	-179.0	-512.0	-0.4970059880239522	-2.550781353906326	8.0	0.6803708727318774	-5.0	123.0	0.5730363306493294	
1968.0	9.828899317605373	-0.0380189717072113	2054.0	1257.0	1.2183907311698245	-16128.0	9.888412017167381	0.03923973022685469	-64.0	1728.0	1.0594727161250765	0.0	10365.0	2316.314697265625	-0.3739130434782609	729.0	1.1616161616161615	-182.0	-503.0	-0.5149700598802396	-4.43400820572523	-49.0	0.26702152809854107	29.0	246.0	1.4587887512587734	
1968.0	9.853161576719717	-0.05070165475593086	2055.0	1255.0	1.218506526930481	-16128.0	9.888412017167381	0.0	0.0	1664.0	1.020232985898222	0.0	11005.0	2335.845947265625	-0.358695652173913	736.0	1.1494949494949496	-188.0	-503.0	-0.5149700598802396	-3.3087127604157134	-10.0	1.3518574857040146	-47.0	173.0	0.8543799032695565	
1971.0	9.706870470142531	-0.08360246852771083	2058.0	1267.0	1.1805700294137382	-15936.0	9.770692826486817	0.03923973022685469	-64.0	1792.0	1.0987124463519313	0.0	11645.0	2355.377197265625	-0.3695652173913044	731.0	1.1676767676767676	-179.0	-508.0	-0.5049900199600799	-0.2583779820028709	85.0	2.4117416655307653	-128.0	-26.0	-0.6209903646666634	
1970.0	9.71893910523433	-0.08408712188131612	2058.0	1266.0	1.1927340620022044	-16000.0	9.809932556713672	-0.03923973022685469	64.0	1728.0	1.0594727161250765	0.0	12285.0	2374.908447265625	-0.36086956521739133	735.0	1.1717171717171717	-177.0	-521.0	-0.4790419161676647	-0.567523483581853	121.0	2.7400169043394658	-147.0	-6.0	-1.1654274267611398	
1971.0	9.817076342815952	-0.03705744835487046	2054.0	1258.0	1.1821375383422008	-16128.0	9.888412017167381	0.03923973022685469	-64.0	1664.0	1.020232985898222	0.0	12925.0	2394.439697265625	-0.3652173913043478	733.0	1.1515151515151516	-187.0	-499.0	-0.5229540918163673	-0.6368013860118532	138.0	3.7446860990480997	-213.0	-1.0	-1.4232897808166876	
1973.0	9.842066947719202	-5.02276043876343E-4	2051.0	1256.0	1.1586566105721745	-16192.0	9.927651747394236	0.11771919068056406	-192.0	1600.0	0.9809932556713672	0.0	13565.0	2413.970947265625	-0.3717391304347826	730.0	1.1595959595959595	-183.0	-498.0	-0.5249500998003993	0.4916712954681261	185.0	5.268950449863852	-318.0	-74.0	-2.1494034049698905	
1977.0	9.878891321309661	-0.024667683789606792	2053.0	1253.0	1.1105904291462845	-16256.0	9.966891477621092	0.11771919068056406	-192.0	1536.0	0.9417535254445125	0.0	14205.0	2433.502197265625	-0.3630434782608696	734.0	1.1454545454545455	-190.0	-493.0	-0.5349301397205589	0.642264240650635	241.0	5.832267756876322	-354.0	-84.0	-3.0026203610376854	
1977.0	9.878287964451504	-0.08561891549082934	2058.0	1253.0	1.1099748832606906	-16192.0	9.927651747394236	0.03923973022685469	-64.0	1600.0	0.9809932556713672	0.0	14845.0	2453.033447265625	-0.3630434782608696	734.0	1.1393939393939394	-193.0	-508.0	-0.5049900199600799	0.4216296397634332	222.0	4.966499772345551	-296.0	-70.0	-2.711440630998395	
1981.0	9.891332764414145	-0.04834065482686217	2055.0	1252.0	1.0622853427826195	-16192.0	9.927651747394236	0.07847946045370938	-128.0	1344.0	0.8240343347639485	0.0	15485.0	2472.564697265625	-0.3695652173913044	731.0	1.1656565656565656	-180.0	-505.0	-0.5109780439121757	0.5099074722621475	184.0	4.007702532097398	-234.0	-76.0	-2.134376641262546	
1982.0	9.939980112794023	-0.07346758592493347	2057.0	1248.0	1.0504723541843533	-16384.0	10.0453709380748	-0.03923973022685469	64.0	1408.0	0.8632740649908032	0.0	16125.0	2492.095947265625	-0.3652173913043478	733.0	1.1656565656565656	-180.0	-514.0	-0.4930139720558883	-0.5668900933009023	168.0	3.5181911636757444	-197.0	-6.0	-1.8802626580023525	
1986.0	9.903655694926556	-0.09615568354523878	2059.0	1251.0	1.001689457945138	-16256.0	9.966891477621092	0.0	0.0	1344.0	0.8240343347639485	0.0	16765.0	2511.627197265625	-0.3695652173913044	731.0	1.1474747474747475	-189.0	-504.0	-0.5129740518962077	-1.3441494283503916	173.0	1.071582112553215	-30.0	43.0	-1.9485356920282833	
1988.0	9.866844274013445	-0.14370114384476873	2063.0	1254.0	0.9767495035908431	-16192.0	9.927651747394236	-0.03923973022685469	64.0	1408.0	0.8632740649908032	0.0	17405.0	2531.158447265625	-0.3760869565217391	728.0	1.1636363636363636	-181.0	-503.0	-0.5149700598802396	-1.47541164613035	166.0	0.11693916789756026	34.0	51.0	-1.8407591915234873	
1992.0	9.880371759462609	-0.05766189781982353	2056.0	1253.0	0.9295523998212469	-16256.0	9.966891477621092	0.07847946045370938	-128.0	1216.0	0.745554874310239	0.0	18045.0	2550.689697265625	-0.35434782608695653	738.0	1.1575757575757575	-184.0	-517.0	-0.48702594810379246	-0.7161016059094985	168.0	0.8749031215350124	-20.0	2.0	-1.8787705428762664	
2000.0	9.796738172200996	0.01911058869624843	2050.0	1260.0	0.8330982466451168	-15936.0	9.770692826486817	0.11771919068056406	-192.0	1088.0	0.6670754138565297	0.0	18685.0	2570.220947265625	-0.3717391304347826	730.0	1.1414141414141414	-192.0	-493.0	-0.5349301397205589	1.365365398420134	216.0	2.5583349887213296	-140.0	-133.0	-2.629623235733251	
2003.0	9.76077360966886	0.04494504143755332	2048.0	1263.0	0.7968523672339555	-15872.0	9.731453096259962	0.07847946045370938	-128.0	960.0	0.5885959534028203	0.0	19325.0	2589.752197265625	-0.3652173913043478	733.0	1.1656565656565656	-180.0	-509.0	-0.502994011976048	0.5253012533239463	184.0	2.4773957426266517	-132.0	-78.0	-2.134530579073164	
2003.0	9.80929812789755	0.01957967534011426	2050.0	1259.0	0.7970839587552679	-16128.0	9.888412017167381	0.11771919068056406	-192.0	960.0	0.5885959534028203	0.0	19965.0	2609.283447265625	-0.36086956521739133	735.0	1.1656565656565656	-180.0	-508.0	-0.5049900199600799	0.4207781094650766	81.0	2.736851535191699	-153.0	-70.0	-0.5669454236802022	
1999.0	9.699324962849161	0.04522239321126975	2048.0	1268.0	0.8444334253678331	-16000.0	9.809932556713672	0.11771919068056406	-192.0	1152.0	0.7063151440833844	0.0	20605.0	2628.814697265625	-0.36086956521739133	735.0	1.1515151515151516	-187.0	-501.0	-0.5189620758483035	0.6248628113494281	-4.0	3.4355539044790016	-204.0	-82.0	0.723789394700194	
2000.0	9.710432544527027	-0.07668785354604502	2058.0	1267.0	0.8312772059459541	-16000.0	9.809932556713672	-0.07847946045370938	128.0	960.0	0.5885959534028203	0.0	21245.0	2648.345947265625	-0.3695652173913044	731.0	1.1636363636363636	-181.0	-502.0	-0.5169660678642716	-1.5291072363402822	-79.0	3.299962783402335	-188.0	59.0	1.8860135058234793	
2001.0	9.905618818566028	-0.0803889122144775	2058.0	1251.0	0.8211438653285755	-16064.0	9.849172286940528	-0.03923973022685469	64.0	1088.0	0.6670754138565297	0.0	21885.0	2667.877197265625	-0.3652173913043478	733.0	1.1656565656565656	-180.0	-513.0	-0.49500998003992025	-2.0671902193984613	-102.0	2.8586533473940174	-157.0	94.0	2.24120422158562	
1994.0	9.856113817907382	-0.06888283745285742	2057.0	1255.0	0.9051012254671955	-16256.0	9.966891477621092	0.03923973022685469	-64.0	1216.0	0.745554874310239	0.0	22525.0	2687.408447265625	-0.3673913043478261	732.0	1.1434343434343435	-191.0	-504.0	-0.5129740518962077	0.6414697630621319	-24.0	3.2573132190301837	-193.0	-83.0	1.0278058346887704	
1988.0	9.842944029013994	-0.09444772177531564	2059.0	1256.0	0.9770030353615432	-16192.0	9.927651747394236	0.0	0.0	1152.0	0.7063151440833844	0.0	23165.0	2706.939697265625	-0.3739130434782609	729.0	1.1575757575757575	-184.0	-499.0	-0.5229540918163673	1.5700270280987494	25.0	3.23748802306332	-194.0	-144.0	0.27327311374943075	
1985.0	9.74516448798815	-0.08100303359927438	2058.0	1264.0	1.0123042651462981	-16000.0	9.809932556713672	-0.11771919068056406	192.0	1280.0	0.7847946045370937	0.0	23805.0	2726.470947265625	-0.358695652173913	736.0	1.1494949494949496	-188.0	-512.0	-0.4970059880239522	0.9008383999454952	35.0	2.465559495625974	-139.0	-101.0	0.1278737452781116	
1985.0	9.818071936702816	-0.10686083640518848	2060.0	1258.0	1.0127747616053855	-16128.0	9.888412017167381	-0.03923973022685469	64.0	1344.0	0.8240343347639485	0.0	24445.0	2746.002197265625	-0.3630434782608696	734.0	1.1393939393939394	-193.0	-514.0	-0.4930139720558883	-0.21459726330720497	-11.0	2.260336463195696	-122.0	-28.0	0.8386478737737565	
1985.0	9.829539373716017	-0.18024853280089304	2066.0	1257.0	1.0121555590115607	-16192.0	9.927651747394236	-0.11771919068056406	192.0	1472.0	0.9025137952176578	0.0	25085.0	2765.533447265625	-0.3717391304347826	730.0	1.1595959595959595	-183.0	-503.0	-0.5149700598802396	-0.9062077400567865	-36.0	1.7835182994659002	-88.0	17.0	1.2257921154233817	
1982.0	9.9509648643207	-0.19561626768161605	2067.0	1247.0	1.0493607148820532	-16384.0	10.0453709380748	-0.11771919068056406	192.0	1344.0	0.8240343347639485	0.0	25725.0	2785.064697265625	-0.3695652173913044	731.0	1.1393939393939394	-193.0	-488.0	-0.5449101796407186	-1.267623666403859	-30.0	1.0327128431511763	-36.0	40.0	1.1381515218351412	
1983.0	9.816257548569231	-0.2658109088271027	2073.0	1258.0	1.0352635025419992	-16192.0	9.927651747394236	-0.19619865113427343	320.0	1472.0	0.9025137952176578	0.0	26365.0	2804.595947265625	-0.3673913043478261	732.0	1.1494949494949496	-188.0	-501.0	-0.5189620758483035	-0.7989704399765737	57.0	0.10849459911389564	27.0	8.0	-0.1897289267789415	
1981.0	9.803217066165708	-0.3269927921728233	2078.0	1259.0	1.0586176644266756	-16192.0	9.927651747394236	-0.19619865113427343	320.0	1472.0	0.9025137952176578	0.0	27005.0	2824.127197265625	-0.3695652173913044	731.0	1.1393939393939394	-193.0	-494.0	-0.532934131736527	-1.9912331388069258	75.0	-0.6671385640966108	85.0	85.0	-0.4515705583457711	
1982.0	9.779077637202551	-0.3140716741247359	2077.0	1261.0	1.0464572885464407	-15936.0	9.770692826486817	-0.27467811158798283	448.0	1408.0	0.8632740649908032	0.0	27645.0	2843.658447265625	-0.3782608695652174	727.0	1.1555555555555554	-185.0	-489.0	-0.5429141716566867	-1.8256693626731253	114.0	-0.40006300345593754	68.0	74.0	-1.046382089643231	
1986.0	9.718973645707262	-0.2753161033353437	2074.0	1266.0	0.9980510332550443	-16000.0	9.809932556713672	-0.15695892090741875	256.0	1344.0	0.8240343347639485	0.0	28285.0	2863.189697265625	-0.3673913043478261	732.0	1.1434343434343435	-191.0	-499.0	-0.5229540918163673	-1.6470754639921403	176.0	-0.014954417670404424	44.0	62.0	-1.9911338080977214	
1983.0	9.829414384785268	-0.16853515645938408	2065.0	1257.0	1.036367828427837	-16256.0	9.966891477621092	-0.07847946045370938	128.0	1344.0	0.8240343347639485	0.0	28925.0	2882.720947265625	-0.3695652173913044	731.0	1.1595959595959595	-183.0	-499.0	-0.5229540918163673	-1.7288196234424227	223.0	0.19923817669838256	32.0	67.0	-2.705145263841622	
1983.0	9.60996801041148	-0.16410322608310882	2065.0	1275.0	1.0342176839878618	-15808.0	9.692213366033108	-0.03923973022685469	64.0	1344.0	0.8240343347639485	0.0	29565.0	2902.252197265625	-0.3652173913043478	733.0	1.1454545454545455	-190.0	-506.0	-0.5089820359281437	-0.06291704955810663	303.0	0.7166682052538582	-7.0	-42.0	-3.9385343276032785	
1984.0	9.635318470650066	-0.07902550341050454	2058.0	1273.0	1.0232737730458894	-15744.0	9.652973635806253	0.0	0.0	1408.0	0.8632740649908032	0.0	30205.0	2921.783447265625	-0.3652173913043478	733.0	1.1393939393939394	-193.0	-511.0	-0.4990019960079841	-1.558564895948963	274.0	1.1179652885219757	-28.0	56.0	-3.4825132103561	
1989.0	9.68397445414818	-0.1519596798720827	2064.0	1269.0	0.962790027260833	-15872.0	9.731453096259962	-0.11771919068056406	192.0	1216.0	0.745554874310239	0.0	30845.0	2941.314697265625	-0.3782608695652174	727.0	1.1656565656565656	-180.0	-504.0	-0.5129740518962077	-2.890938048833992	235.0	0.8121596305181804	-3.0	143.0	-2.876033585291128	
1986.0	9.768704877652265	-0.17877900603033767	2066.0	1262.0	0.9995137165475444	-16000.0	9.809932556713672	-0.07847946045370938	128.0	1408.0	0.8632740649908032	0.0	31485.0	2960.845947265625	-0.3739130434782609	729.0	1.1393939393939394	-193.0	-514.0	-0.4930139720558883	-3.922571543505922	194.0	-0.1454793951565586	64.0	210.0	-2.242143105857717	
1982.0	9.841965705363593	-0.12025882445201136	2061.0	1256.0	1.0490242977247781	-16128.0	9.888412017167381	0.03923973022685469	-64.0	1472.0	0.9025137952176578	0.0	32125.0	2980.377197265625	-0.3760869565217391	728.0	1.1454545454545455	-190.0	-492.0	-0.5369261477045909	-3.658976901120319	199.0	0.1990363327834829	40.0	193.0	-2.3208246796579988	
1985.0	9.732973022745162	-0.08075681524503686	2058.0	1265.0	1.0121848126774107	-16128.0	9.888412017167381	0.03923973022685469	-64.0	1408.0	0.8632740649908032	0.0	32765.0	2999.908447265625	-0.3760869565217391	728.0	1.1555555555555554	-185.0	-503.0	-0.5149700598802396	-1.835198551257426	282.0	1.2020559260760397	-32.0	74.0	-3.601419877605297	
1988.0	9.806369633285028	-0.09370906671260311	2059.0	1259.0	0.9766446779548806	-16128.0	9.888412017167381	0.07847946045370938	-128.0	1280.0	0.7847946045370937	0.0	33405.0	3019.439697265625	-0.3760869565217391	728.0	1.1616161616161615	-182.0	-518.0	-0.4850299401197605	-2.064142070536608	298.0	1.5725518215289498	-55.0	89.0	-3.842476450017068	
1991.0	9.880490272054683	-0.033519840138702295	2054.0	1253.0	0.9418431982950632	-16192.0	9.927651747394236	0.03923973022685469	-64.0	1280.0	0.7847946045370937	0.0	34045.0	3038.970947265625	-0.3673913043478261	732.0	1.1434343434343435	-191.0	-501.0	-0.5189620758483035	-2.024348455211453	255.0	1.8284800612992211	-74.0	87.0	-3.1888819907330572	
1989.0	9.928407115866099	-0.09593281525561047	2059.0	1249.0	0.965794622524177	-16320.0	10.006131207847945	0.0	0.0	1216.0	0.745554874310239	0.0	34685.0	3058.502197265625	-0.3804347826086957	726.0	1.1474747474747475	-189.0	-494.0	-0.532934131736527	-1.7567990857337468	237.0	2.218698159788894	-102.0	70.0	-2.917793225872701	
1994.0	9.976942427992581	-0.18105723805743315	2066.0	1245.0	0.9051877675620019	-16384.0	10.0453709380748	-0.03923973022685469	64.0	1216.0	0.745554874310239	0.0	35325.0	3078.033447265625	-0.3739130434782609	729.0	1.1434343434343435	-191.0	-489.0	-0.5429141716566867	-1.9643437875755017	218.0	1.1271315620626698	-29.0	83.0	-2.626744394823865	
1990.0	9.927926589159133	-0.1566456119574652	2064.0	1249.0	0.9531344965190044	-16384.0	10.0453709380748	-0.07847946045370938	128.0	1216.0	0.745554874310239	0.0	35965.0	3097.564697265625	-0.3739130434782609	729.0	1.1373737373737374	-194.0	-508.0	-0.5049900199600799	-1.915588291991805	192.0	1.0029731628388665	-22.0	80.0	-2.2317946874222874	
1991.0	9.939637527695155	-0.21760462701355748	2069.0	1248.0	0.9405938229827193	-16320.0	10.006131207847945	-0.11771919068056406	192.0	1216.0	0.745554874310239	0.0	36605.0	3117.095947265625	-0.3804347826086957	726.0	1.1090909090909091	-208.0	-476.0	-0.5688622754491018	-0.8941063623265889	242.0	1.0822363014697454	-30.0	13.0	-3.002465780483198	
1990.0	9.87916072818718	-0.15566073854051515	2064.0	1253.0	0.9526566866434544	-16320.0	10.006131207847945	-0.03923973022685469	64.0	1280.0	0.7847946045370937	0.0	37245.0	3136.627197265625	-0.3760869565217391	728.0	1.1353535353535353	-195.0	-486.0	-0.5489021956087825	-0.7540741946143537	279.0	0.3003968696497212	23.0	3.0	-3.566603744745872	
1993.0	9.866975739282866	-0.1912699542089078	2067.0	1254.0	0.9160341662844743	-16320.0	10.006131207847945	-0.11771919068056406	192.0	1088.0	0.6670754138565297	0.0	37885.0	3156.158447265625	-0.3760869565217391	728.0	1.1454545454545455	-190.0	-501.0	-0.5189620758483035	-1.1141105542958127	293.0	-0.1907651206346973	58.0	26.0	-3.77593113780305	
1992.0	9.782719366147072	-0.06788239732616788	2057.0	1261.0	0.928473670893028	-16128.0	9.888412017167381	-0.07847946045370938	128.0	1216.0	0.745554874310239	0.0	38525.0	3175.689697265625	-0.3869565217391304	723.0	1.1515151515151516	-187.0	-502.0	-0.5169660678642716	-0.6393610716703778	268.0	-0.6737994187963648	87.0	-5.0	-3.400450495747175	
1991.0	9.806858795110227	-0.08080351537425523	2058.0	1259.0	0.940634046773263	-16064.0	9.849172286940528	0.0	0.0	1280.0	0.7847946045370937	0.0	39165.0	3195.220947265625	-0.3826086956521739	725.0	1.1535353535353536	-186.0	-516.0	-0.4890219560878244	-1.019221695360374	260.0	-0.4123479795696175	71.0	20.0	-3.2749788857079936	
1994.0	9.685071290390653	-0.10200651951426573	2060.0	1269.0	0.9030595633714142	-15936.0	9.770692826486817	-0.03923973022685469	64.0	1280.0	0.7847946045370937	0.0	39805.0	3214.752197265625	-0.3826086956521739	725.0	1.1373737373737374	-194.0	-500.0	-0.5209580838323354	-0.4017131591826029	256.0	-0.1129324475567394	48.0	-20.0	-3.2203174691686307	
1996.0	9.661416705693577	-0.0522762274460771	2056.0	1271.0	0.8792239349029567	-15872.0	9.731453096259962	0.07847946045370938	-128.0	1216.0	0.745554874310239	0.0	40445.0	3234.283447265625	-0.3869565217391304	723.0	1.1555555555555554	-185.0	-494.0	-0.532934131736527	4.2746473317586834E-4	239.0	-0.06130861781571592	42.0	-46.0	-2.96578374232794	
1991.0	9.79478800123887	-0.0683670506797732	2057.0	1260.0	0.9406377034814943	-16000.0	9.809932556713672	0.03923973022685469	-64.0	1280.0	0.7847946045370937	0.0	41085.0	3253.814697265625	-0.3717391304347826	730.0	1.1454545454545455	-190.0	-508.0	-0.5049900199600799	-1.2179003264628168	186.0	0.08119867293267623	36.0	34.0	-2.1475168142258667	
1991.0	9.818929588981584	-0.09323998006873725	2059.0	1258.0	0.9406303900650319	-16192.0	9.927651747394236	0.0	0.0	1216.0	0.745554874310239	0.0	41725.0	3273.345947265625	-0.3847826086956522	724.0	1.1333333333333333	-196.0	-499.0	-0.5229540918163673	-1.8885057448313642	193.0	0.6568689963686147	1.0	78.0	-2.2472746383691766	
1995.0	9.806746758856828	-0.14080100707800663	2063.0	1259.0	0.8918401804093542	-16064.0	9.849172286940528	-0.07847946045370938	128.0	1216.0	0.745554874310239	0.0	42365.0	3292.877197265625	-0.3891304347826087	722.0	1.1575757575757575	-184.0	-502.0	-0.5169660678642716	-0.7778598238205248	178.0	0.9902326699286154	-27.0	6.0	-2.0302442154500078	
1992.0	9.843073335503858	-0.130064720798578	2062.0	1256.0	0.9284553873518718	-16064.0	9.849172286940528	-0.07847946045370938	128.0	1216.0	0.745554874310239	0.0	43005.0	3312.408447265625	-0.3869565217391304	723.0	1.1595959595959595	-183.0	-514.0	-0.4930139720558883	-1.0731936688262786	145.0	1.6503820248311807	-71.0	26.0	-1.5253897363155395	
1992.0	9.964505302447215	-0.1812878897019312	2066.0	1246.0	0.9291574753322719	-16512.0	10.123850398528509	-0.03923973022685469	64.0	1216.0	0.745554874310239	0.0	43645.0	3331.939697265625	-0.3891304347826087	722.0	1.1454545454545455	-190.0	-500.0	-0.5209580838323354	-0.644792107901473	187.0	2.1558617344255753	-105.0	-2.0	-2.168457021886765	
1996.0	9.952925829180614	-0.167897685009978	2065.0	1247.0	0.880982811562188	-16320.0	10.006131207847945	-0.07847946045370938	128.0	1152.0	0.7063151440833844	0.0	44285.0	3351.470947265625	-0.3891304347826087	722.0	1.1515151515151516	-187.0	-502.0	-0.5169660678642716	1.3480965944651935	220.0	2.4270378238195054	-131.0	-132.0	-2.690287049594842	
1998.0	9.868313918268601	-0.11693630117060183	2061.0	1254.0	0.856549920749293	-16256.0	9.966891477621092	-0.03923973022685469	64.0	1088.0	0.6670754138565297	0.0	44925.0	3371.002197265625	-0.3804347826086957	726.0	1.1414141414141414	-192.0	-508.0	-0.5049900199600799	1.9910074378122193	247.0	2.6685821521021276	-149.0	-174.0	-3.1073625458610117	
2002.0	9.783585653544073	-0.10206878635322356	2060.0	1261.0	0.8076585421658842	-16000.0	9.809932556713672	-0.03923973022685469	64.0	1088.0	0.6670754138565297	0.0	45565.0	3390.533447265625	-0.3760869565217391	728.0	1.1414141414141414	-192.0	-502.0	-0.5169660678642716	1.2390104811829812	238.0	2.535535810134909	-137.0	-125.0	-2.9629604470171533	
1999.0	9.868678091163053	-0.09231737349074502	2059.0	1254.0	0.8447515589839518	-16192.0	9.927651747394236	0.07847946045370938	-128.0	1088.0	0.6670754138565297	0.0	46205.0	3410.064697265625	-0.3782608695652174	727.0	1.1494949494949496	-188.0	-494.0	-0.532934131736527	0.5882226887174399	165.0	2.3415174453770407	-124.0	-82.0	-1.8461864093966802	
2002.0	9.905741648717218	-0.0801504772151097	2058.0	1251.0	0.8090992852089968	-16192.0	9.927651747394236	0.0	0.0	1024.0	0.627835683629675	0.0	46845.0	3429.595947265625	-0.3847826086956522	724.0	1.1515151515151516	-187.0	-504.0	-0.5129740518962077	1.174399315117079	146.0	2.3491306318109126	-128.0	-120.0	-1.5630747916302585	
2001.0	9.844299478236193	-0.11572855946402344	2061.0	1256.0	0.8201772754527817	-16064.0	9.849172286940528	-0.03923973022685469	64.0	1024.0	0.627835683629675	0.0	47485.0	3449.127197265625	-0.3804347826086957	726.0	1.1393939393939394	-193.0	-511.0	-0.4990019960079841	0.6824810099476186	124.0	1.935201506736804	-99.0	-88.0	-1.22355484812229	
1999.0	9.905614501006912	-0.056485289532724026	2056.0	1251.0	0.8454792439219706	-16320.0	10.006131207847945	0.03923973022685469	-64.0	1024.0	0.627835683629675	0.0	48125.0	3468.658447265625	-0.3869565217391304	723.0	1.1313131313131313	-197.0	-503.0	-0.5149700598802396	0.8171359552010763	103.0	1.2683761959785085	-56.0	-97.0	-0.9055097625938359	
1993.0	9.855628973641299	-0.10569201147295873	2060.0	1255.0	0.9167764780554181	-16256.0	9.966891477621092	-0.07847946045370938	128.0	1152.0	0.7063151440833844	0.0	48765.0	3488.189697265625	-0.3782608695652174	727.0	1.1575757575757575	-184.0	-510.0	-0.500998003992016	1.6815588717678582	67.0	1.2162962277973017	-58.0	-153.0	-0.3666254746492375	
1993.0	9.831728728641846	-0.05643858940350566	2056.0	1257.0	0.9170300098261182	-16256.0	9.966891477621092	0.15695892090741875	-256.0	1152.0	0.7063151440833844	0.0	49405.0	3507.720947265625	-0.3804347826086957	726.0	1.1414141414141414	-192.0	-493.0	-0.5349301397205589	1.5414052314375566	61.0	0.9225506560877036	-38.0	-144.0	-0.2739691853942235	
1995.0	9.831371032086068	-0.11691295110599262	2061.0	1257.0	0.8923253037013669	-16128.0	9.888412017167381	-0.03923973022685469	64.0	1152.0	0.7063151440833844	0.0	50045.0	3527.252197265625	-0.3869565217391304	723.0	1.1333333333333333	-196.0	-497.0	-0.5269461077844312	0.3765483060418013	24.0	0.5163475761999221	-7.0	-68.0	0.3004170264452854	
1996.0	9.855756121351604	-0.12935719915534438	2062.0	1255.0	0.8803965193424442	-16128.0	9.888412017167381	-0.07847946045370938	128.0	1024.0	0.627835683629675	0.0	50685.0	3546.783447265625	-0.3739130434782609	729.0	1.1555555555555554	-185.0	-516.0	-0.4890219560878244	0.4994224612072277	-7.0	0.054153610715402686	22.0	-76.0	0.7706711746274715	
1993.0	9.757373223467603	-0.17686374268052568	2066.0	1263.0	0.9150822032416055	-16000.0	9.809932556713672	-0.15695892090741875	256.0	1216.0	0.745554874310239	0.0	51325.0	3566.314697265625	-0.3760869565217391	728.0	1.1393939393939394	-193.0	-499.0	-0.5229540918163673	0.9416953264162424	5.0	-0.04429071921563755	27.0	-105.0	0.5837389402719593	
1992.0	9.69605172435821	-0.2002515785891949	2068.0	1268.0	0.9262833026625092	-15872.0	9.731453096259962	-0.23543838136112813	384.0	1280.0	0.7847946045370937	0.0	51965.0	3585.845947265625	-0.3782608695652174	727.0	1.1454545454545455	-190.0	-517.0	-0.48702594810379246	0.5573875007695883	9.0	-0.04509444197083666	29.0	-80.0	0.5267455166272852	
1992.0	9.69605172435821	-0.2002515785891949	2068.0	1268.0	0.9262833026625092	-15872.0	9.731453096259962	0.03923973022685469	-64.0	1280.0	0.7847946045370937	0.0	52605.0	3605.377197265625	-0.3760869565217391	728.0	1.1434343434343435	-191.0	-512.0	-0.4970059880239522	0.07964581661986017	35.0	0.15389890722154034	19.0	-49.0	0.13608567111136796	
1990.0	9.733104488014584	-0.12832562560917596	2062.0	1265.0	0.9514694753710418	-15872.0	9.731453096259962	0.0	0.0	1216.0	0.745554874310239	0.0	53245.0	3624.908447265625	-0.3739130434782609	729.0	1.1393939393939394	-193.0	-507.0	-0.5069860279441119	0.5098567900008815	80.0	0.8859653329879055	-30.0	-77.0	-0.5526270850102749	
1990.0	9.684459298414263	-0.11515050585198139	2061.0	1269.0	0.9511147746726105	-15872.0	9.731453096259962	0.0	0.0	1280.0	0.7847946045370937	0.0	53885.0	3644.439697265625	-0.3891304347826087	722.0	1.1373737373737374	-194.0	-503.0	-0.5149700598802396	1.5688930767444356	89.0	1.02762674507542	-44.0	-146.0	-0.7000995771552772	
1991.0	9.659957855336213	-0.13880012682462756	2063.0	1271.0	0.9385850712610192	-15808.0	9.692213366033108	-0.07847946045370938	128.0	1216.0	0.745554874310239	0.0	54525.0	3663.970947265625	-0.3782608695652174	727.0	1.1474747474747475	-189.0	-514.0	-0.4930139720558883	0.3718043450766926	75.0	0.8175694393189423	-25.0	-68.0	-0.47520093318460727	
1994.0	9.40430557568703	-0.1329142363875364	2063.0	1292.0	0.8999428290556453	-15488.0	9.496014714898834	-0.11771919068056406	192.0	1152.0	0.7063151440833844	0.0	55165.0	3683.502197265625	-0.3804347826086957	726.0	1.1454545454545455	-190.0	-492.0	-0.5369261477045909	-2.9776910234976905	103.0	0.8728259887784016	-12.0	150.0	-0.8675614928068482	
1988.0	10.025816007658818	-0.09814099708887837	2059.0	1241.0	0.9787948223948558	-16512.0	10.123850398528509	0.0	0.0	1280.0	0.7847946045370937	0.0	55805.0	3703.033447265625	-0.3891304347826087	722.0	1.1575757575757575	-184.0	-502.0	-0.5169660678642716	-4.355279004609145	14.0	1.4243067530080253	-46.0	241.0	0.4998265543046466	
1988.0	9.76931255206954	-0.14173139701086857	2063.0	1262.0	0.9757938838397431	-16064.0	9.849172286940528	-0.03923973022685469	64.0	1216.0	0.745554874310239	0.0	56445.0	3722.564697265625	-0.3739130434782609	729.0	1.1494949494949496	-188.0	-514.0	-0.4930139720558883	0.764386718141338	80.0	1.7827927786250117	-91.0	-93.0	-0.5551723842916796	
1989.0	9.867449789651157	-0.09470172348442289	2059.0	1254.0	0.9651973601797394	-16256.0	9.966891477621092	0.03923973022685469	-64.0	1344.0	0.8240343347639485	0.0	57085.0	3742.095947265625	-0.3869565217391304	723.0	1.1333333333333333	-196.0	-498.0	-0.5249500998003993	0.42718546262417045	96.0	2.07086839003133	-108.0	-71.0	-0.7951463793410707	
1995.0	9.940611533786436	-0.1678899016551083	2065.0	1248.0	0.8929079392128793	-16320.0	10.006131207847945	-0.03923973022685469	64.0	1280.0	0.7847946045370937	0.0	57725.0	3761.627197265625	-0.3760869565217391	728.0	1.1555555555555554	-185.0	-510.0	-0.500998003992016	-0.024430162132941417	70.0	1.022015580903187	-37.0	-42.0	-0.39519296073608506	
1991.0	9.9772979657688	-0.10863106501406944	2060.0	1245.0	0.9420601629834507	-16384.0	10.0453709380748	0.0	0.0	1280.0	0.7847946045370937	0.0	58365.0	3781.158447265625	-0.3847826086956522	724.0	1.1353535353535353	-195.0	-489.0	-0.5429141716566867	-1.2131356033833844	40.0	-0.12789427455432512	44.0	35.0	0.07296785793497453	
1991.0	9.964985829154182	-0.12057509300007643	2061.0	1246.0	0.9418176013374444	-16448.0	10.084610668301655	0.0	0.0	1280.0	0.7847946045370937	0.0	59005.0	3800.689697265625	-0.3804347826086957	726.0	1.1414141414141414	-192.0	-509.0	-0.502994011976048	-0.5541102831882105	36.0	-0.28114342315283647	51.0	-8.0	0.12721410663416347	
1988.0	9.855135494256983	-0.09469394012955316	2059.0	1255.0	0.9771224878304307	-16256.0	9.966891477621092	0.03923973022685469	-64.0	1280.0	0.7847946045370937	0.0	59645.0	3820.220947265625	-0.3804347826086957	726.0	1.1555555555555554	-185.0	-500.0	-0.5209580838323354	1.5455772406669552	79.0	0.07863814094436444	19.0	-145.0	-0.5477751640416507	
1993.0	9.79491299016962	-0.08008042702128215	2058.0	1260.0	0.916425434065218	-16192.0	9.927651747394236	0.0	0.0	1152.0	0.7063151440833844	0.0	60285.0	3839.752197265625	-0.3869565217391304	723.0	1.1595959595959595	-183.0	-515.0	-0.4910179640718563	1.5394497987191107	121.0	0.1046159417024135	19.0	-145.0	-1.1864971595841491	
1995.0	9.819058895471448	-0.12885697909199964	2062.0	1258.0	0.8920827420553605	-16192.0	9.927651747394236	-0.07847946045370938	128.0	1216.0	0.745554874310239	0.0	60925.0	3859.283447265625	-0.3760869565217391	728.0	1.1434343434343435	-191.0	-494.0	-0.532934131736527	0.5326458553138573	94.0	0.3081886781313705	9.0	-79.0	-0.7657827323173972	
1993.0	9.843316837026679	-0.11763603945896572	2061.0	1256.0	0.9165339164094118	-16256.0	9.966891477621092	-0.07847946045370938	128.0	1088.0	0.6670754138565297	0.0	61565.0	3878.814697265625	-0.3869565217391304	723.0	1.1232323232323231	-201.0	-494.0	-0.532934131736527	0.6059675811756189	53.0	0.8778426701569616	-31.0	-83.0	-0.14294180508932275	
1992.0	9.928413592204775	-0.13178824927824062	2062.0	1249.0	0.9292915546340844	-16320.0	10.006131207847945	-0.03923973022685469	64.0	1152.0	0.7063151440833844	0.0	62205.0	3898.345947265625	-0.3826086956521739	725.0	1.1535353535353536	-186.0	-516.0	-0.4890219560878244	1.211380058412729	35.0	1.2895230075909576	-62.0	-122.0	0.12476832869343925	
1997.0	9.843566814888174	-0.14106279214198358	2063.0	1256.0	0.8681093775768592	-16256.0	9.966891477621092	-0.03923973022685469	64.0	1088.0	0.6670754138565297	0.0	62845.0	3917.877197265625	-0.3760869565217391	728.0	1.1474747474747475	-189.0	-506.0	-0.5089820359281437	2.383874097841121	95.0	1.2744043310836777	-64.0	-199.0	-0.799504140217955	
1996.0	9.84404734159514	-0.08034999544012886	2058.0	1256.0	0.8807695035820318	-16192.0	9.927651747394236	0.0	0.0	1152.0	0.7063151440833844	0.0	63485.0	3937.408447265625	-0.3782608695652174	727.0	1.1575757575757575	-184.0	-510.0	-0.500998003992016	1.132609461855279	100.0	0.5399464686964228	-9.0	-118.0	-0.8630371212345225	
1998.0	9.795044455439042	-0.12764923738542125	2062.0	1260.0	0.8557100967588492	-16064.0	9.849172286940528	0.0	0.0	1088.0	0.6670754138565297	0.0	64125.0	3956.939697265625	-0.3891304347826087	722.0	1.1292929292929292	-198.0	-478.0	-0.564870259481038	0.11508710655343715	52.0	-0.6478208036334432	73.0	-52.0	-0.12282387486781575	
1999.0	9.697876906389586	-0.10106056287166432	2060.0	1268.0	0.842956115242408	-15936.0	9.770692826486817	-0.11771919068056406	192.0	1152.0	0.7063151440833844	0.0	64765.0	3976.470947265625	-0.3760869565217391	728.0	1.1494949494949496	-188.0	-497.0	-0.5269461077844312	-0.16407155215175623	-11.0	-1.8961036645316072	155.0	-34.0	0.838142616662202	
1995.0	9.648499053441244	-0.11321967579242989	2061.0	1272.0	0.8905335166680542	-15808.0	9.692213366033108	-0.03923973022685469	64.0	1216.0	0.745554874310239	0.0	65405.0	3996.002197265625	-0.3826086956521739	725.0	1.1575757575757575	-184.0	-501.0	-0.5189620758483035	-1.2578568199297842	-66.0	-3.142791608278714	241.0	37.0	1.6855823704806667	
1990.0	9.611189835584701	-0.1258634420668008	2062.0	1275.0	0.9502749506821667	-15744.0	9.652973635806253	0.07847946045370938	-128.0	1280.0	0.7847946045370937	0.0	509.0	4015.533447265625	-0.3934782608695652	720.0	1.1515151515151516	-187.0	-492.0	-0.5369261477045909	-2.505205871994744	-94.0	-3.9875530634229945	302.0	118.0	2.123911374309301	
1981.0	9.659091567939212	-0.10461373779757191	2060.0	1271.0	1.059400199988163	-15872.0	9.731453096259962	0.03923973022685469	-64.0	1408.0	0.8632740649908032	0.0	1149.0	4035.064697265625	-0.3847826086956522	724.0	1.1393939393939394	-193.0	-504.0	-0.5129740518962077	-2.43143094322693	-72.0	-3.9493187605507316	300.0	113.0	1.7885728645653494	
1983.0	9.634833626383983	-0.11583467743060583	2061.0	1273.0	1.0349490256341116	-15808.0	9.692213366033108	-0.07847946045370938	128.0	1408.0	0.8632740649908032	0.0	1789.0	4054.595947265625	-0.391304347826087	721.0	1.1555555555555554	-185.0	-503.0	-0.5149700598802396	-1.3761848534690686	-60.0	-2.6061681558459036	206.0	45.0	1.5955108979643486	
1987.0	9.623012810374123	-0.12682496541914168	2062.0	1274.0	0.9865281435097905	-15680.0	9.613733905579398	-0.07847946045370938	128.0	1344.0	0.8240343347639485	0.0	2429.0	4074.127197265625	-0.3782608695652174	727.0	1.1575757575757575	-184.0	-518.0	-0.4850299401197605	-1.287772014566662	-49.0	-1.2712968406411775	117.0	40.0	1.4273263893471877	
1981.0	9.804665122625282	-0.18070983608988916	2066.0	1259.0	1.0600949745521007	-16128.0	9.888412017167381	-0.03923973022685469	64.0	1536.0	0.9417535254445125	0.0	3069.0	4093.658447265625	-0.3826086956521739	725.0	1.1494949494949496	-188.0	-517.0	-0.48702594810379246	-2.3900003492602524	-65.0	-1.234300596346938	119.0	112.0	1.6816946802986863	
1980.0	9.852946139331154	-0.21850388352694053	2069.0	1255.0	1.0722480370158731	-16192.0	9.927651747394236	-0.07847946045370938	128.0	1600.0	0.9809932556713672	0.0	3709.0	4113.189697265625	-0.3891304347826087	722.0	1.1535353535353536	-186.0	-511.0	-0.4990019960079841	-2.276866627016438	-44.0	-0.34484131687643776	60.0	105.0	1.3611717080952594	
1982.0	9.76761020018935	-0.24068397772903133	2071.0	1262.0	1.0470764911402655	-16000.0	9.809932556713672	-0.15695892090741875	256.0	1408.0	0.8632740649908032	0.0	4349.0	4132.720947265625	-0.3891304347826087	722.0	1.1474747474747475	-189.0	-506.0	-0.5089820359281437	-0.6506312197806576	11.0	0.43000548846875764	3.0	-1.0	0.5084074528822173	
1979.0	9.840631843936976	-0.21849610017207077	2069.0	1256.0	1.0841731646665644	-16256.0	9.966891477621092	-0.11771919068056406	192.0	1408.0	0.8632740649908032	0.0	4989.0	4152.252197265625	-0.3826086956521739	725.0	1.1454545454545455	-190.0	-508.0	-0.5049900199600799	-1.0506275908019802	40.0	0.7753378964056912	-17.0	25.0	0.0713427778091605	
1982.0	9.829170883262448	-0.18096383779899639	2066.0	1257.0	1.048289299370297	-16192.0	9.927651747394236	-0.15695892090741875	256.0	1344.0	0.8240343347639485	0.0	5629.0	4171.783447265625	-0.3869565217391304	723.0	1.1575757575757575	-184.0	-509.0	-0.502994011976048	-0.7209618058595569	89.0	0.7222330287127537	-13.0	3.0	-0.6772010283292371	
1981.0	9.853551654968868	-0.1695044631665947	2065.0	1255.0	1.0606958936047695	-16000.0	9.809932556713672	-0.07847946045370938	128.0	1344.0	0.8240343347639485	0.0	6269.0	4191.314697265625	-0.3826086956521739	725.0	1.1575757575757575	-184.0	-517.0	-0.48702594810379246	-0.014948406789990301	105.0	0.9676859076560872	-32.0	-43.0	-0.9276071699244955	
1983.0	9.78101053792821	-0.1309795440217005	2062.0	1261.0	1.0362593460836431	-16128.0	9.888412017167381	0.0	0.0	1344.0	0.8240343347639485	0.0	6909.0	4210.845947265625	-0.3804347826086957	726.0	1.1474747474747475	-189.0	-501.0	-0.5189620758483035	0.988177063991851	87.0	1.246737894502488	-56.0	-108.0	-0.6638741660771809	
1985.0	9.683603804915053	-0.14072317352930935	2063.0	1269.0	1.011091456916267	-16000.0	9.809932556713672	-0.03923973022685469	64.0	1408.0	0.8632740649908032	0.0	7549.0	4230.377197265625	-0.391304347826087	721.0	1.1575757575757575	-184.0	-505.0	-0.5109780439121757	-0.2381591010578307	93.0	1.4856661191852738	-66.0	-28.0	-0.7428655572783951	
1984.0	9.854523502280593	-0.10783792646726881	2060.0	1255.0	1.0251776991316268	-16128.0	9.888412017167381	-0.03923973022685469	64.0	1280.0	0.7847946045370937	0.0	8189.0	4249.908447265625	-0.3847826086956522	724.0	1.1494949494949496	-188.0	-516.0	-0.4890219560878244	-1.0923696143782053	59.0	1.4944497527697322	-64.0	28.0	-0.21721318598549555	
1987.0	9.867083457977149	-0.10736883982340295	2060.0	1254.0	0.9891634112417782	-16192.0	9.927651747394236	0.0	0.0	1280.0	0.7847946045370937	0.0	8829.0	4269.439697265625	-0.3804347826086957	726.0	1.1494949494949496	-188.0	-518.0	-0.4850299401197605	0.4427359451581347	74.0	1.7565519710661965	-88.0	-72.0	-0.46070112371013655	
1986.0	9.842698368711615	-0.0949245917740512	2059.0	1256.0	1.0010921956007006	-16192.0	9.927651747394236	0.0	0.0	1344.0	0.8240343347639485	0.0	9469.0	4288.970947265625	-0.3934782608695652	720.0	1.1595959595959595	-183.0	-509.0	-0.502994011976048	0.34735567309957194	58.0	1.1837414552685042	-50.0	-66.0	-0.21640131338498814	
1984.0	9.842452708409235	-0.09540146177278679	2059.0	1256.0	1.0251813558398581	-16192.0	9.927651747394236	0.0	0.0	1536.0	0.9417535254445125	0.0	10109.0	4308.502197265625	-0.39565217391304347	719.0	1.1474747474747475	-189.0	-503.0	-0.5149700598802396	-0.048204177175027944	34.0	1.1666866528950908	-48.0	-40.0	0.152573296524602	
1982.0	9.854760527464737	-0.05955381110502633	2056.0	1255.0	1.0497592960792594	-16320.0	10.006131207847945	0.11771919068056406	-192.0	1344.0	0.8240343347639485	0.0	10749.0	4328.033447265625	-0.3804347826086957	726.0	1.1474747474747475	-189.0	-499.0	-0.5229540918163673	0.30341459618918193	51.0	1.2874887253252691	-57.0	-63.0	-0.10949802428888802	
1982.0	9.817703446249247	-0.10757614140329183	2060.0	1258.0	1.0489085019641218	-16064.0	9.849172286940528	0.03923973022685469	-64.0	1408.0	0.8632740649908032	0.0	11389.0	4347.564697265625	-0.3934782608695652	720.0	1.1595959595959595	-183.0	-503.0	-0.5149700598802396	0.13394697908586592	48.0	1.1775185464336182	-49.0	-52.0	-0.06217597169199935	
1983.0	9.793081331799568	-0.14341600871618254	2063.0	1260.0	1.036255689375412	-16128.0	9.888412017167381	0.03923973022685469	-64.0	1216.0	0.745554874310239	0.0	12029.0	4367.095947265625	-0.4	717.0	1.1393939393939394	-193.0	-489.0	-0.5429141716566867	0.08674255102832697	11.0	0.49862430400545976	-5.0	-49.0	0.5010337151741274	
1979.0	9.682022124406497	-0.2274855079072276	2070.0	1269.0	1.0824971733939082	-15872.0	9.731453096259962	-0.15695892090741875	256.0	1472.0	0.9025137952176578	0.0	12669.0	4386.627197265625	-0.3804347826086957	726.0	1.1434343434343435	-191.0	-503.0	-0.5149700598802396	-0.5297838879960244	-2.0	0.03887317522625046	28.0	-9.0	0.7049176107430781	
1981.0	9.74334578229545	-0.2160494833394351	2069.0	1264.0	1.0591283846763069	-16064.0	9.849172286940528	-0.11771919068056406	192.0	1408.0	0.8632740649908032	0.0	13309.0	4406.158447265625	-0.391304347826087	721.0	1.1555555555555554	-185.0	-503.0	-0.5149700598802396	-0.357356445646823	30.0	0.8859201157421634	-28.0	-20.0	0.21650132111046066	
1983.0	9.756024250584076	-0.191438339014448	2067.0	1263.0	1.0354048952602743	-16000.0	9.809932556713672	-0.19619865113427343	320.0	1408.0	0.8632740649908032	0.0	13949.0	4425.689697265625	-0.3782608695652174	727.0	1.1535353535353536	-186.0	-518.0	-0.4850299401197605	0.31787517152456735	95.0	1.867972968799088	-94.0	-64.0	-0.7788441509547894	
1983.0	9.744194799455984	-0.15462138163947697	2064.0	1264.0	1.0356547703227432	-16000.0	9.809932556713672	0.07847946045370938	-128.0	1280.0	0.7847946045370937	0.0	14589.0	4445.220947265625	-0.3782608695652174	727.0	1.1434343434343435	-191.0	-517.0	-0.48702594810379246	-0.016530788853124465	160.0	1.645933778662724	-75.0	-43.0	-1.7640932472445487	
1987.0	9.805764117647314	-0.14270848707294892	2063.0	1259.0	0.9881968213659843	-16128.0	9.888412017167381	-0.11771919068056406	192.0	1408.0	0.8632740649908032	0.0	15229.0	4464.752197265625	-0.391304347826087	721.0	1.1535353535353536	-186.0	-510.0	-0.500998003992016	-0.7086974312826461	146.0	1.2807938655102586	-48.0	2.0	-1.544243824166261	
1986.0	9.78234439935483	-0.03274226830164109	2054.0	1261.0	1.0011104791418568	-16128.0	9.888412017167381	0.0	0.0	1408.0	0.8632740649908032	0.0	15869.0	4484.283447265625	-0.3804347826086957	726.0	1.1535353535353536	-186.0	-510.0	-0.500998003992016	-0.2538398177982552	120.0	1.8630034425387378	-90.0	-27.0	-1.1533551379436904	
1986.0	9.831110260326783	-0.03372714171859115	2054.0	1257.0	1.001588289017407	-16128.0	9.888412017167381	0.03923973022685469	-64.0	1408.0	0.8632740649908032	0.0	16509.0	4503.814697265625	-0.3847826086956522	724.0	1.1474747474747475	-189.0	-495.0	-0.530938123752495	0.03840197305957237	143.0	2.2764459142798215	-118.0	-46.0	-1.5060874417838277	
1990.0	9.892196893031587	-0.0705752325130411	2057.0	1252.0	0.9536379033521731	-16320.0	10.006131207847945	0.03923973022685469	-64.0	1280.0	0.7847946045370937	0.0	17149.0	4523.345947265625	-0.3934782608695652	720.0	1.1555555555555554	-185.0	-504.0	-0.5129740518962077	-0.6520609434760302	105.0	1.7166766163713545	-79.0	-1.0	-0.9212360445576351	
1989.0	9.916094979251481	-0.10787684324161745	2060.0	1250.0	0.9655520608781707	-16384.0	10.0453709380748	0.03923973022685469	-64.0	1280.0	0.7847946045370937	0.0	17789.0	4542.877197265625	-0.3869565217391304	723.0	1.1474747474747475	-189.0	-519.0	-0.4830339321357286	0.02671831180676522	43.0	1.1219698215886829	-45.0	-45.0	0.014941942357217521	
1988.0	9.8425820148991	-0.13101846079604917	2062.0	1256.0	0.9766337078301869	-16128.0	9.888412017167381	-0.03923973022685469	64.0	1408.0	0.8632740649908032	0.0	18429.0	4562.408447265625	-0.3847826086956522	724.0	1.1393939393939394	-193.0	-502.0	-0.5169660678642716	0.6540523341414033	47.0	0.9907858112214821	-39.0	-86.0	-0.05216789976726955	
1993.0	9.830884029040428	-0.1417703137852172	2063.0	1257.0	0.9161682455862868	-16128.0	9.888412017167381	-0.07847946045370938	128.0	1216.0	0.745554874310239	0.0	19069.0	4581.939697265625	-0.3934782608695652	720.0	1.1474747474747475	-189.0	-504.0	-0.5129740518962077	0.06419710633107036	83.0	0.8738308307839807	-27.0	-48.0	-0.5937978645994325	
1994.0	9.807227285563796	-0.08008821037615188	2058.0	1259.0	0.9045003064145267	-16192.0	9.927651747394236	0.03923973022685469	-64.0	1280.0	0.7847946045370937	0.0	19709.0	4601.470947265625	-0.3826086956521739	725.0	1.1434343434343435	-191.0	-518.0	-0.4850299401197605	0.014250993045051974	111.0	0.9093338045491329	-28.0	-45.0	-1.0191539167745571	
1993.0	9.819416592027226	-0.06838261738951268	2057.0	1258.0	0.9167874481801118	-16192.0	9.927651747394236	0.11771919068056406	-192.0	1280.0	0.7847946045370937	0.0	20349.0	4621.002197265625	-0.3826086956521739	725.0	1.1393939393939394	-193.0	-514.0	-0.4930139720558883	-0.36822784855977625	123.0	1.2131197796192328	-46.0	-20.0	-1.1978386340619307	
1995.0	9.771982433702332	0.04279134308837354	2048.0	1262.0	0.8933284606594731	-16128.0	9.888412017167381	0.07847946045370938	-128.0	1088.0	0.6670754138565297	0.0	20989.0	4640.533447265625	-0.391304347826087	721.0	1.1616161616161615	-182.0	-510.0	-0.500998003992016	-0.07359593192162919	106.0	1.2572337116386534	-51.0	-39.0	-0.9422298201484645	
1996.0	9.808679659582486	0.04229112302502874	2048.0	1259.0	0.8816422379465568	-16128.0	9.888412017167381	0.11771919068056406	-192.0	1216.0	0.745554874310239	0.0	21629.0	4660.064697265625	-0.3847826086956522	724.0	1.1595959595959595	-183.0	-516.0	-0.4890219560878244	-0.47079581727476333	84.0	1.1065772520115953	-40.0	-13.0	-0.6036570608386592	
1997.0	9.821235297719927	0.06666383235064804	2046.0	1258.0	0.8699633286501032	-16000.0	9.809932556713672	0.0	0.0	1216.0	0.745554874310239	0.0	22269.0	4679.595947265625	-0.3869565217391304	723.0	1.1494949494949496	-188.0	-503.0	-0.5149700598802396	0.1029499097459744	42.0	1.0560857223605988	-41.0	-50.0	0.0293887518531106	
1997.0	9.75967461464683	0.006943692420613101	2051.0	1263.0	0.8687505204200717	-16128.0	9.888412017167381	0.07847946045370938	-128.0	1088.0	0.6670754138565297	0.0	22909.0	4699.127197265625	-0.391304347826087	721.0	1.1555555555555554	-185.0	-504.0	-0.5129740518962077	1.4523834748243234	0.0	1.8361640403202226	-101.0	-137.0	0.6546776861643043	
1994.0	9.83221357290793	-0.019629415383404347	2053.0	1257.0	0.9053547572378957	-16064.0	9.849172286940528	0.11771919068056406	-192.0	1216.0	0.745554874310239	0.0	23549.0	4718.658447265625	-0.3934782608695652	720.0	1.1474747474747475	-189.0	-491.0	-0.5389221556886228	0.21241404974205214	-18.0	1.8815303344674916	-99.0	-56.0	0.9408416389702602	
