Device	Device	Device	Device	Device	Device	Device	Device	Device	Device	Device	Device	Device	Device	Device	Device	Device	Device	Device	Device	Device	Device	Device	Device	Device	Device	Device	
Low Noise Accelerometer X	Low Noise Accelerometer X	Low Noise Accelerometer Z	Low Noise Accelerometer Z	Low Noise Accelerometer Y	Low Noise Accelerometer Y	Wide Range Accelerometer X	Wide Range Accelerometer X	Wide Range Accelerometer Z	Wide Range Accelerometer Z	Wide Range Accelerometer Y	Wide Range Accelerometer Y	Event_Marker	Timestamp	Timestamp	Magnetometer Z	Magnetometer Z	Magnetometer X	Magnetometer X	Magnetometer Y	Magnetometer Y	Gyroscope Y	Gyroscope Y	Gyroscope Z	Gyroscope Z	Gyroscope X	Gyroscope X	
CAL	UNCAL	CAL	UNCAL	UNCAL	CAL	CAL	UNCAL	CAL	UNCAL	CAL	UNCAL	CAL	UNCAL	CAL	CAL	UNCAL	UNCAL	CAL	CAL	UNCAL	CAL	UNCAL	UNCAL	CAL	UNCAL	CAL	
m/(s^2)	no units	m/(s^2)	no units	no units	m/(s^2)	m/(s^2)	no units	m/(s^2)	no units	m/(s^2)	no units	no units	no units	ms	local_flux	no units	no units	local_flux	local_flux	no units	deg/s	no units	no units	deg/s	no units	deg/s	
9.938183655747789	1990.0	0.8795253269633181	1979.0	1249.0	0.9635987765740989	9.966891477621092	-16256.0	0.9417535254445125	-1536.0	0.6670754138565297	1088.0	0.0	50361.0	1536.895751953125	-0.25869565217391305	782.0	-176.0	1.1737373737373737	-0.5369261477045909	-492.0	-1.9647654183700138	39.0	-159.0	2.9672890564192977	86.0	0.095693281560126	
9.90051674133547	1987.0	0.8064071989864601	1985.0	1252.0	0.9986355044634599	9.927651747394236	-16192.0	0.9417535254445125	-1536.0	0.8240343347639485	1344.0	0.0	51001.0	1556.427001953125	-0.25434782608695655	784.0	-176.0	1.1737373737373737	-0.5269461077844312	-497.0	-1.0425155250815759	22.0	-156.0	2.847780747278851	26.0	0.3450259157070895	
9.792748042669816	1998.0	0.872197180868866	1980.0	1261.0	0.8656855968136998	9.927651747394236	-16192.0	0.9809932556713672	-1600.0	0.7063151440833844	1152.0	0.0	51641.0	1575.958251953125	-0.25869565217391305	782.0	-165.0	1.195959595959596	-0.5169660678642716	-502.0	-0.7033237367791453	17.0	-163.0	2.926078699954826	4.0	0.41767962520049107	
9.827979941853929	1991.0	0.8210284954496008	1984.0	1258.0	0.9498635783489386	9.888412017167381	-16128.0	0.9417535254445125	-1536.0	0.7063151440833844	1152.0	0.0	52281.0	1595.489501953125	-0.2565217391304348	783.0	-171.0	1.183838383838384	-0.4910179640718563	-515.0	-2.305323968645261	1.0	-101.0	2.098308843404717	108.0	0.6770456351237151	
9.864690120411433	1998.0	0.7488174073409958	1990.0	1255.0	0.8651712198558372	9.849172286940528	-16064.0	0.8240343347639485	-1344.0	0.6670754138565297	1088.0	0.0	52921.0	1615.020751953125	-0.25434782608695655	784.0	-173.0	1.1797979797979798	-0.5149700598802396	-503.0	-4.447635760606437	5.0	-35.0	1.260341956824949	247.0	0.6376322511421861	
9.815195913650575	1996.0	0.7005644253982322	1994.0	1259.0	0.8882901335109697	9.966891477621092	-16256.0	0.7847946045370937	-1280.0	0.745554874310239	1216.0	0.0	53561.0	1634.552001953125	-0.25869565217391305	782.0	-168.0	1.1898989898989898	-0.5049900199600799	-508.0	-2.2799029477705055	-16.0	53.0	-0.22264824218275373	105.0	0.9353465579948154	
9.535770536712244	2002.0	0.7320385502223908	1992.0	1282.0	0.813521464363322	9.770692826486817	-15936.0	0.7063151440833844	-1152.0	0.6670754138565297	1088.0	0.0	54201.0	1654.083251953125	-0.25434782608695655	784.0	-174.0	1.1777777777777778	-0.5109780439121757	-505.0	-1.1274328025238776	-29.0	51.0	-0.28078390204281545	30.0	1.1215404877210562	
9.38862393663585	2000.0	0.6735650687732829	1997.0	1294.0	0.8355616490902357	9.574494175352545	-15616.0	0.7063151440833844	-1152.0	0.6670754138565297	1088.0	0.0	54841.0	1673.614501953125	-0.25217391304347825	785.0	-179.0	1.1676767676767676	-0.5209580838323354	-500.0	-2.91344648392527	-61.0	26.0	0.19886756327750488	147.0	1.6260926397441957	
9.583308096172305	1992.0	0.728669326811763	1992.0	1278.0	0.9344450754346596	9.613733905579398	-15680.0	0.9025137952176578	-1472.0	0.6670754138565297	1088.0	0.0	55481.0	1693.145751953125	-0.2673913043478261	778.0	-167.0	1.1919191919191918	-0.5209580838323354	-500.0	-4.263043463655356	-70.0	-68.0	1.696619580219454	236.0	1.776470738819063	
9.44871713423335	1991.0	0.6945685546882742	1995.0	1289.0	0.9448063508651195	9.613733905579398	-15680.0	0.8240343347639485	-1344.0	0.8240343347639485	1344.0	0.0	56121.0	1712.677001953125	-0.26521739130434785	779.0	-168.0	1.1898989898989898	-0.4930139720558883	-514.0	-3.634900968510704	64.0	-194.0	3.6234772473687826	195.0	-0.2678334998205964	
9.837984210950648	1984.0	0.6850205223570992	1995.0	1257.0	1.0329408907065711	9.770692826486817	-15936.0	0.7063151440833844	-1152.0	0.745554874310239	1216.0	0.0	56761.0	1732.208251953125	-0.2673913043478261	778.0	-173.0	1.1797979797979798	-0.5349301397205589	-493.0	-2.779031781480334	77.0	-289.0	4.996105353270581	140.0	-0.47411082286960743	
9.728148987510355	1988.0	0.6272389958414855	2000.0	1266.0	0.9830719521226748	9.849172286940528	-16064.0	0.745554874310239	-1216.0	0.9417535254445125	1536.0	0.0	57401.0	1751.739501953125	-0.26956521739130435	777.0	-171.0	1.183838383838384	-0.5289421157684632	-496.0	-1.1893921200722042	150.0	-324.0	5.454614710408816	36.0	-1.600273379179506	
9.935169030236567	1991.0	0.5628173571163285	2005.0	1249.0	0.9483533578494323	9.770692826486817	-15936.0	0.627835683629675	-1024.0	0.745554874310239	1216.0	0.0	58041.0	1771.270751953125	-0.25869565217391305	782.0	-181.0	1.1636363636363636	-0.5489021956087825	-486.0	-3.0137639879519984	145.0	-324.0	5.578549167318192	155.0	-1.5059840331242824	
9.910538280668655	1988.0	0.5747847351669446	2004.0	1251.0	0.9843713024475124	9.927651747394236	-16192.0	0.6670754138565297	-1088.0	0.745554874310239	1216.0	0.0	58681.0	1790.802001953125	-0.25869565217391305	782.0	-177.0	1.1717171717171717	-0.5289421157684632	-496.0	-3.8471067015651754	232.0	-272.0	4.909867381937113	208.0	-2.8208445223379606	
9.995628559508075	1984.0	0.5964879593703	2002.0	1244.0	1.0336320085622774	9.927651747394236	-16192.0	0.627835683629675	-1024.0	0.8240343347639485	1344.0	0.0	59321.0	1810.333251953125	-0.2717391304347826	776.0	-173.0	1.1797979797979798	-0.5069860279441119	-507.0	-6.371716343589415	318.0	-191.0	3.923506801058781	371.0	-4.103583216792243	
10.117786713460779	1985.0	0.6064544571675372	2001.0	1234.0	1.0229050623086926	10.20232985898222	-16640.0	0.5885959534028203	-960.0	0.8240343347639485	1344.0	0.0	59961.0	1829.864501953125	-0.26304347826086955	780.0	-176.0	1.1737373737373737	-0.5049900199600799	-508.0	-5.15227230671642	350.0	-172.0	3.5732436054863923	291.0	-4.602469672370099	
10.09412781120459	1985.0	0.6800883719174792	1995.0	1236.0	1.02340481243363	10.123850398528509	-16512.0	0.7063151440833844	-1152.0	0.8240343347639485	1344.0	0.0	60601.0	1849.395751953125	-0.26304347826086955	780.0	-182.0	1.1616161616161615	-0.5049900199600799	-508.0	-1.233591327968951	440.0	-209.0	3.9099788997572547	35.0	-6.010477774933238	
9.996106927435482	1982.0	0.6691525674130314	1996.0	1244.0	1.0584598238641476	10.123850398528509	-16512.0	0.745554874310239	-1216.0	0.9417535254445125	1536.0	0.0	61241.0	1868.927001953125	-0.2782608695652174	773.0	-184.0	1.1575757575757575	-0.5169660678642716	-502.0	0.7215706585787242	532.0	-143.0	2.840363959866274	-94.0	-7.429268938524951	
9.862125798693361	1984.0	0.6601475929681353	1997.0	1255.0	1.0329335772901087	9.966891477621092	-16256.0	0.745554874310239	-1216.0	0.8632740649908032	1408.0	0.0	61881.0	1888.458251953125	-0.2739130434782609	775.0	-174.0	1.1777777777777778	-0.5049900199600799	-508.0	0.05410911343483994	586.0	-40.0	1.375443108377933	-52.0	-8.243887098738911	
9.887120721155727	1988.0	0.6727991425973758	1996.0	1253.0	0.9851172709266874	9.888412017167381	-16128.0	0.7063151440833844	-1152.0	0.8240343347639485	1344.0	0.0	62521.0	1907.989501953125	-0.2673913043478261	778.0	-177.0	1.1717171717171717	-0.5409181636726548	-490.0	-1.4378513699569289	566.0	8.0	0.7474760777317272	45.0	-7.924784984399291	
9.876129493290376	1985.0	0.8308032583766887	1983.0	1254.0	1.0227319781190802	9.966891477621092	-16256.0	0.7847946045370937	-1280.0	0.8632740649908032	1408.0	0.0	63161.0	1927.520751953125	-0.27608695652173915	774.0	-183.0	1.1595959595959595	-0.5389221556886228	-491.0	-1.4457685239880969	548.0	-24.0	1.2168366612501211	46.0	-7.650941554303845	
9.804808042643383	1993.0	0.9195197728787675	1976.0	1260.0	0.9265203865889562	9.888412017167381	-16128.0	1.020232985898222	-1664.0	0.7847946045370937	1280.0	0.0	63801.0	1947.052001953125	-0.26521739130434785	779.0	-180.0	1.1656565656565656	-0.5049900199600799	-508.0	-0.015699345289505284	544.0	-45.0	1.4297129650472982	-47.0	-7.604405744189691	
9.682908501670408	2000.0	0.8383192770350056	1983.0	1270.0	0.8401520368231985	9.809932556713672	-16000.0	1.020232985898222	-1664.0	0.7847946045370937	1280.0	0.0	64441.0	1966.583251953125	-0.2739130434782609	775.0	-181.0	1.1636363636363636	-0.532934131736527	-494.0	-0.07960181609498744	542.0	-26.0	1.1480862757629442	-43.0	-7.573348468531067	
9.657689506701244	2004.0	0.7056727439982622	1994.0	1272.0	0.7903806104588021	9.652973635806253	-15744.0	0.745554874310239	-1216.0	0.627835683629675	1024.0	0.0	65081.0	1986.114501953125	-0.2717391304347826	776.0	-180.0	1.1656565656565656	-0.5568862275449102	-482.0	-0.5977194909409526	515.0	-22.0	1.1077513954264115	-9.0	-7.157520903949907	
9.731682997760592	2004.0	0.7895271582545487	1987.0	1266.0	0.7919590895119585	9.770692826486817	-15936.0	0.8632740649908032	-1408.0	0.5885959534028203	960.0	0.0	185.0	2005.645751953125	-0.2826086956521739	771.0	-178.0	1.1696969696969697	-0.5169660678642716	-502.0	-0.27314684535437184	440.0	-68.0	1.729188935281523	-29.0	-6.020082219759384	
9.74436362482878	2007.0	0.8021864912386591	1986.0	1265.0	0.7560679107992284	9.809932556713672	-16000.0	0.8632740649908032	-1408.0	0.5493562231759657	896.0	0.0	825.0	2025.177001953125	-0.2739130434782609	775.0	-179.0	1.1676767676767676	-0.5389221556886228	-491.0	0.48598611764183586	373.0	-156.0	2.9549331546183053	-77.0	-5.008662142545241	
9.622209788435192	2008.0	0.7683163707596684	1989.0	1275.0	0.7424594784594183	9.692213366033108	-15808.0	0.9025137952176578	-1472.0	0.510116492949111	832.0	0.0	1465.0	2044.708251953125	-0.2782608695652174	773.0	-174.0	1.1777777777777778	-0.5189620758483035	-501.0	-1.2909354492945555	353.0	-151.0	2.99147707655622	39.0	-4.686710417370173	
9.755359170253248	2012.0	0.6202787527775928	2001.0	1264.0	0.6941178250134408	9.770692826486817	-15936.0	0.7847946045370937	-1280.0	0.627835683629675	1024.0	0.0	2105.0	2064.239501953125	-0.26956521739130435	777.0	-173.0	1.1797979797979798	-0.5209580838323354	-500.0	-3.961906121986361	316.0	3.0	0.8460215524607537	212.0	-4.097263068057703	
9.74207734510646	2010.0	0.5347163767513832	2008.0	1265.0	0.7172257685438794	9.809932556713672	-16000.0	0.5885959534028203	-960.0	0.510116492949111	832.0	0.0	2745.0	2083.770751953125	-0.2717391304347826	776.0	-179.0	1.1676767676767676	-0.5389221556886228	-491.0	-4.980820848646614	295.0	68.0	-0.070350391591118	278.0	-3.767682285810112	
9.632237804107053	2012.0	0.5008384729175228	2011.0	1274.0	0.691692208553378	9.809932556713672	-16000.0	0.510116492949111	-832.0	0.5493562231759657	896.0	0.0	3385.0	2103.302001953125	-0.2782608695652174	773.0	-175.0	1.1757575757575758	-0.532934131736527	-494.0	-4.899214752037036	251.0	78.0	-0.25272327423290586	273.0	-3.0992968258636604	
9.560416397737066	2012.0	0.6364084927856375	2000.0	1280.0	0.6923296946883594	9.652973635806253	-15744.0	0.6670754138565297	-1088.0	0.510116492949111	832.0	0.0	4025.0	2122.833251953125	-0.2782608695652174	773.0	-180.0	1.1656565656565656	-0.500998003992016	-510.0	-5.495818940337516	223.0	95.0	-0.4831064069776528	312.0	-2.6674752706726705	
9.546404068021818	2007.0	0.5135600727405911	2010.0	1281.0	0.7512020510461781	9.731453096259962	-15872.0	0.5493562231759657	-896.0	0.5885959534028203	960.0	0.0	4665.0	2142.364501953125	-0.27608695652173915	774.0	-182.0	1.1616161616161615	-0.5389221556886228	-491.0	-7.993951896475129	208.0	200.0	-1.8925747220688693	474.0	-2.414357058982017	
9.582120811472015	2001.0	0.49920056134142726	2011.0	1278.0	0.8237047799931944	9.692213366033108	-15808.0	0.5885959534028203	-960.0	0.627835683629675	1024.0	0.0	5305.0	2161.895751953125	-0.2891304347826087	768.0	-178.0	1.1696969696969697	-0.4970059880239522	-512.0	-12.344628113110124	215.0	262.0	-2.515044334641802	757.0	-2.477314175142663	
9.764738494696225	1995.0	0.5428376613926359	2007.0	1263.0	0.8982564844524547	9.888412017167381	-16128.0	0.6670754138565297	-1088.0	0.7063151440833844	1152.0	0.0	5945.0	2181.427001953125	-0.28695652173913044	769.0	-174.0	1.1777777777777778	-0.4970059880239522	-512.0	-12.74449909719626	214.0	168.0	-1.0785263268445802	784.0	-2.458106339826517	
9.802629481615345	1990.0	0.7359507727769965	1991.0	1260.0	0.9608074892909111	9.888412017167381	-16128.0	0.7847946045370937	-1280.0	0.7847946045370937	1280.0	0.0	6585.0	2200.958251953125	-0.29347826086956524	766.0	-178.0	1.1696969696969697	-0.5409181636726548	-490.0	-8.849501975409787	229.0	55.0	0.3536602723024831	531.0	-2.7251931931736593	
9.876140287188166	1990.0	0.7710442016723049	1988.0	1254.0	0.9618935316355924	10.006131207847945	-16320.0	0.8240343347639485	-1344.0	0.7847946045370937	1280.0	0.0	7225.0	2220.489501953125	-0.2956521739130435	765.0	-188.0	1.1494949494949496	-0.5149700598802396	-503.0	-4.599031334577917	289.0	-120.0	2.718017572763308	255.0	-3.680245428099088	
9.803969819380637	1996.0	0.7983326144744258	1986.0	1260.0	0.8891555544590324	9.888412017167381	-16128.0	0.9025137952176578	-1472.0	0.6670754138565297	1088.0	0.0	7865.0	2240.020751953125	-0.8456521739130435	512.0	-179.0	1.1676767676767676	-0.4990019960079841	-511.0	-2.4654612881622944	348.0	-189.0	3.6398973922751434	116.0	-4.59891953160507	
9.839576685356993	1995.0	0.7120238000306339	1993.0	1257.0	0.9006967277454424	9.966891477621092	-16256.0	0.8240343347639485	-1344.0	0.6670754138565297	1088.0	0.0	8505.0	2259.552001953125	-0.29130434782608694	767.0	-181.0	1.1636363636363636	-0.530938123752495	-495.0	-2.2011763315731683	338.0	-203.0	3.825314561580189	99.0	-4.449471126418109	
9.77814746755332	2000.0	0.6047348497364599	2002.0	1262.0	0.8387685822090422	9.770692826486817	-15936.0	0.7063151440833844	-1152.0	0.627835683629675	1024.0	0.0	9145.0	2279.083251953125	-0.29782608695652174	764.0	-176.0	1.1737373737373737	-0.5189620758483035	-501.0	-3.0848936849469704	296.0	-201.0	3.831284951080275	157.0	-3.8018506829223937	
9.876043362391675	2001.0	0.6273840305824165	2000.0	1254.0	0.827925840194801	9.966891477621092	-16256.0	0.6670754138565297	-1088.0	0.627835683629675	1024.0	0.0	9785.0	2298.614501953125	-0.29782608695652174	764.0	-187.0	1.1515151515151516	-0.5169660678642716	-502.0	-2.9881991990851566	203.0	-244.0	4.412654729265647	152.0	-2.388368958579491	
9.888844660831495	2004.0	0.6522336099067714	1998.0	1253.0	0.7921577706591897	9.927651747394236	-16192.0	0.6670754138565297	-1088.0	0.627835683629675	1024.0	0.0	10425.0	2318.145751953125	-0.29782608695652174	764.0	-182.0	1.1616161616161615	-0.5449101796407186	-488.0	-1.5205716202038237	97.0	-314.0	5.295496420129113	58.0	-0.7908779339880758	
9.852636596776541	2006.0	0.665639381308464	1997.0	1256.0	0.7678333621904884	9.966891477621092	-16256.0	0.745554874310239	-1216.0	0.510116492949111	832.0	0.0	11065.0	2337.677001953125	-0.3	763.0	-187.0	1.1515151515151516	-0.5588822355289422	-481.0	-1.4722146558737523	84.0	-317.0	5.329199541408969	55.0	-0.5936428724526693	
9.949209424086071	2009.0	0.5302922297299777	2008.0	1248.0	0.7313010406345458	10.0453709380748	-16384.0	0.5885959534028203	-960.0	0.510116492949111	832.0	0.0	11705.0	2357.208251953125	-0.30434782608695654	761.0	-179.0	1.1676767676767676	-0.5189620758483035	-501.0	-0.9432071970579367	123.0	-303.0	5.1062118055430705	20.0	-1.1920888405769492	
9.961168181704032	2013.0	0.4578582733317442	2014.0	1247.0	0.6825035175624058	10.0453709380748	-16384.0	0.510116492949111	-832.0	0.4316370324954016	704.0	0.0	12345.0	2376.739501953125	-0.30869565217391304	759.0	-181.0	1.1636363636363636	-0.530938123752495	-495.0	-1.9408435922314373	89.0	-265.0	4.585247745571973	85.0	-0.6650022104655183	
9.997619747281806	2012.0	0.45688118326966387	2014.0	1244.0	0.694906455088647	10.084610668301655	-16448.0	0.510116492949111	-832.0	0.47087676272225626	768.0	0.0	12985.0	2396.270751953125	-0.30434782608695654	761.0	-184.0	1.1575757575757575	-0.5049900199600799	-508.0	-3.6839510996199887	53.0	-163.0	3.1554315050929596	198.0	-0.10004261828136665	
10.094787296331258	2011.0	0.43029250875590697	2016.0	1236.0	0.7076604366050883	10.241569589209073	-16704.0	0.4316370324954016	-704.0	0.510116492949111	832.0	0.0	13625.0	2415.802001953125	-0.30217391304347824	762.0	-189.0	1.1474747474747475	-0.5149700598802396	-503.0	-2.424748676275937	33.0	-154.0	2.9206911823148523	116.0	0.19154786699089624	
10.010412410603392	2011.0	0.5295380079575257	2008.0	1243.0	0.7078091427398259	10.0453709380748	-16384.0	0.5493562231759657	-896.0	0.510116492949111	832.0	0.0	14265.0	2435.333251953125	-0.30869565217391304	759.0	-184.0	1.1575757575757575	-0.5349301397205589	-493.0	-0.3799508568451254	104.0	-154.0	2.8215671704322776	-18.0	-0.9087480199486591	
9.936418919544044	2011.0	0.4456835937012392	2015.0	1249.0	0.7062306636866695	10.084610668301655	-16448.0	0.39239730226854685	-640.0	0.4316370324954016	704.0	0.0	14905.0	2454.864501953125	-0.30869565217391304	759.0	-179.0	1.1676767676767676	-0.5289421157684632	-496.0	0.00617514284613793	129.0	-94.0	1.9103517014414946	-44.0	-1.292837416827701	
9.899971671525384	2014.0	0.4227570610815661	2017.0	1252.0	0.6694923475670331	9.966891477621092	-16256.0	0.47087676272225626	-768.0	0.510116492949111	832.0	0.0	15545.0	2474.395751953125	-0.2956521739130435	765.0	-185.0	1.1555555555555554	-0.5269461077844312	-497.0	-0.23000887883359686	94.0	-19.0	0.7810595525755595	-29.0	-0.7581561849759227	
9.704184199407784	2014.0	0.3535550767078992	2023.0	1268.0	0.6668424530021205	9.770692826486817	-15936.0	0.4316370324954016	-704.0	0.510116492949111	832.0	0.0	16185.0	2493.927001953125	-0.3	763.0	-184.0	1.1575757575757575	-0.5528942115768464	-484.0	-2.624864913421239	84.0	6.0	0.5668452886895969	127.0	-0.5821163698771945	
9.581778226373146	2010.0	0.3550635202528033	2023.0	1278.0	0.7138262487915604	9.613733905579398	-15680.0	0.4316370324954016	-704.0	0.4316370324954016	704.0	0.0	16825.0	2513.458251953125	-0.30434782608695654	761.0	-190.0	1.1454545454545455	-0.5728542914171657	-474.0	-5.798473439994565	71.0	11.0	0.7048571781513224	334.0	-0.352661653432754	
9.385266726025757	2010.0	0.21272005783766942	2035.0	1294.0	0.7104376991639353	9.417535254445125	-15360.0	0.23543838136112813	-384.0	0.5885959534028203	960.0	0.0	17465.0	2532.989501953125	-0.30869565217391304	759.0	-187.0	1.1515151515151516	-0.5129740518962077	-504.0	-9.333306895542847	27.0	-102.0	2.618266449359212	566.0	0.3518882020352764	
9.470484152575485	2009.0	0.21075809435863904	2035.0	1287.0	0.7233184465657266	9.496014714898834	-15488.0	0.27467811158798283	-448.0	0.510116492949111	832.0	0.0	18105.0	2552.520751953125	-0.31521739130434784	756.0	-180.0	1.1656565656565656	-0.5409181636726548	-490.0	-9.626758950762646	30.0	-296.0	5.549061534595976	587.0	0.3091953461616189	
9.739784589045467	2010.0	0.3031016962867375	2027.0	1265.0	0.714886694178623	9.849172286940528	-16064.0	0.27467811158798283	-448.0	0.510116492949111	832.0	0.0	18745.0	2572.052001953125	-0.3065217391304348	760.0	-180.0	1.1656565656565656	-0.5109780439121757	-505.0	-7.674629316938675	118.0	-513.0	8.72010274709816	461.0	-1.0487289920017162	
10.008595863690248	2008.0	0.3825397468764882	2020.0	1243.0	0.7424655729731371	10.163090128755364	-16576.0	0.47087676272225626	-768.0	0.510116492949111	832.0	0.0	19385.0	2591.583251953125	-0.3108695652173913	758.0	-185.0	1.1555555555555554	-0.5389221556886228	-491.0	-3.111277048889011	240.0	-687.0	11.085409613735207	164.0	-2.9498758226670034	
9.936908081369243	2014.0	0.45858914503958703	2014.0	1249.0	0.670220032505052	9.966891477621092	-16256.0	0.510116492949111	-832.0	0.4316370324954016	704.0	0.0	20025.0	2611.114501953125	-0.32173913043478264	753.0	-185.0	1.1555555555555554	-0.5469061876247505	-487.0	2.0653363874163135	330.0	-726.0	11.364577816456293	-174.0	-4.370463249805722	
9.960808326368694	2014.0	0.409335722970134	2018.0	1247.0	0.6699665007343519	10.0453709380748	-16384.0	0.510116492949111	-832.0	0.47087676272225626	768.0	0.0	20665.0	2630.645751953125	-0.30217391304347824	762.0	-188.0	1.1494949494949496	-0.5389221556886228	-491.0	-1.1662079125912181	356.0	-577.0	9.37142773176035	35.0	-4.733585069163062	
10.240854330401648	2016.0	0.34319833912018416	2023.0	1224.0	0.6480092013940133	10.398528510116492	-16960.0	0.3531575720416922	-576.0	0.4316370324954016	704.0	0.0	21305.0	2650.177001953125	-0.3282608695652174	750.0	-192.0	1.1414141414141414	-0.5608782435129741	-480.0	-5.17921069952293	238.0	-395.0	6.850309971328532	296.0	-2.898778235210094	
10.301572472652884	2017.0	0.30563494332763086	2026.0	1219.0	0.6361925560875159	10.477007970570202	-17088.0	0.39239730226854685	-640.0	0.39239730226854685	640.0	0.0	21945.0	2669.708251953125	-0.31521739130434784	756.0	-188.0	1.1494949494949496	-0.5528942115768464	-484.0	-2.64502813604646	143.0	-224.0	4.0524180471749505	130.0	-1.4792531406927676	
10.16710218208556	2016.0	0.2837244175443867	2028.0	1230.0	0.6466769406950945	10.280809319435928	-16768.0	0.3531575720416922	-576.0	0.47087676272225626	768.0	0.0	22585.0	2689.239501953125	-0.31521739130434784	756.0	-183.0	1.1595959595959595	-0.5289421157684632	-496.0	1.8188936022686701	80.0	-66.0	1.3345865057866009	-162.0	-0.5657174531329529	
9.935350147435829	2019.0	0.2403568859120248	2032.0	1249.0	0.6077811667190205	10.084610668301655	-16448.0	0.3139178418148375	-512.0	0.4316370324954016	704.0	0.0	23225.0	2708.770751953125	-0.3108695652173913	758.0	-191.0	1.1434343434343435	-0.530938123752495	-495.0	3.166476434523478	134.0	100.0	-1.215109170500623	-252.0	-1.4004860571209001	
10.020800281610585	2014.0	0.31058266047699035	2026.0	1242.0	0.6695788896618394	10.084610668301655	-16448.0	0.3531575720416922	-576.0	0.47087676272225626	768.0	0.0	23865.0	2728.302001953125	-0.3173913043478261	755.0	-181.0	1.1636363636363636	-0.5568862275449102	-482.0	1.5380916695474063	166.0	189.0	-2.4166387438331314	-147.0	-1.8708942246802651	
10.057372518559992	2013.0	0.32179581675515445	2025.0	1239.0	0.6821049363651994	10.123850398528509	-16512.0	0.3139178418148375	-512.0	0.47087676272225626	768.0	0.0	24505.0	2747.833251953125	-0.31521739130434784	756.0	-183.0	1.1595959595959595	-0.5249500998003993	-498.0	1.7127201599263535	210.0	209.0	-2.701874900889523	-159.0	-2.541842030496602	
9.898400784914621	2013.0	0.2762356699992642	2029.0	1252.0	0.6800596175611868	9.966891477621092	-16256.0	0.3531575720416922	-576.0	0.5493562231759657	896.0	0.0	25145.0	2767.364501953125	-0.31956521739130433	754.0	-189.0	1.1474747474747475	-0.5628742514970061	-479.0	2.086678581227327	241.0	242.0	-3.203795715110873	-184.0	-3.0170645044434523	
9.82513132208506	2013.0	0.26552273378444474	2030.0	1258.0	0.679219793570743	9.927651747394236	-16192.0	0.27467811158798283	-448.0	0.5493562231759657	896.0	0.0	25785.0	2786.895751953125	-0.31956521739130433	754.0	-185.0	1.1555555555555554	-0.564870259481038	-478.0	1.5795730959234289	219.0	270.0	-3.601675308699499	-151.0	-2.6773926891341397	
9.82525199345669	2013.0	0.27771298012468926	2029.0	1258.0	0.6793429027478618	9.888412017167381	-16128.0	0.3139178418148375	-512.0	0.510116492949111	832.0	0.0	26425.0	2806.427001953125	-0.3130434782608696	757.0	-190.0	1.1454545454545455	-0.530938123752495	-495.0	1.0880679175346508	226.0	268.0	-3.5332229856543083	-119.0	-2.7789415156772477	
9.716132163127954	2013.0	0.3408801770140495	2024.0	1267.0	0.678883376413468	9.809932556713672	-16000.0	0.3531575720416922	-576.0	0.4316370324954016	704.0	0.0	27065.0	2825.958251953125	-0.30869565217391304	759.0	-192.0	1.1414141414141414	-0.5269461077844312	-497.0	-0.028086521882857825	226.0	245.0	-3.1107110504639532	-46.0	-2.7677799712830726	
9.728205115778866	2014.0	0.31649190097869073	2026.0	1266.0	0.6667120304085393	9.731453096259962	-15872.0	0.39239730226854685	-640.0	0.510116492949111	832.0	0.0	27705.0	2845.489501953125	-0.3130434782608696	757.0	-191.0	1.1434343434343435	-0.5429141716566867	-489.0	-0.7516939458771016	284.0	207.0	-2.4553476602225066	1.0	-3.64267317460967	
9.679443572366031	2016.0	0.2935731517138873	2028.0	1270.0	0.6418988419395942	9.809932556713672	-16000.0	0.3531575720416922	-576.0	0.4316370324954016	704.0	0.0	28345.0	2865.020751953125	-0.3130434782608696	757.0	-190.0	1.1454545454545455	-0.5149700598802396	-503.0	-0.37970065183711726	325.0	141.0	-1.46679018033191	-23.0	-4.2699672520367615	
9.582526001178072	2021.0	0.2967350735446264	2028.0	1278.0	0.5807203215906004	9.652973635806253	-15744.0	0.39239730226854685	-640.0	0.3531575720416922	576.0	0.0	28985.0	2884.552001953125	-0.30434782608695654	761.0	-187.0	1.1515151515151516	-0.5548902195608784	-483.0	-0.48057484677529216	336.0	87.0	-0.6434821187562871	-16.0	-4.436258890315517	
9.375742983636005	2016.0	0.4094408276320258	2019.0	1295.0	0.6400205128114753	9.496014714898834	-15488.0	0.510116492949111	-832.0	0.4316370324954016	704.0	0.0	29625.0	2904.083251953125	-0.3173913043478261	755.0	-182.0	1.1616161616161615	-0.5449101796407186	-488.0	-3.0024916412848164	297.0	67.0	-0.19183287063735044	149.0	-3.8178838288343004	
9.740877107728824	2013.0	0.37695847932630794	2021.0	1265.0	0.6794916088825993	9.770692826486817	-15936.0	0.39239730226854685	-640.0	0.47087676272225626	768.0	0.0	30265.0	2923.614501953125	-0.31521739130434784	756.0	-194.0	1.1373737373737374	-0.530938123752495	-495.0	-7.631289822893196	329.0	16.0	0.9144168545653806	451.0	-4.258287862227342	
10.022129825478087	2015.0	0.4327235588788032	2016.0	1242.0	0.6587654013134482	10.20232985898222	-16640.0	0.47087676272225626	-768.0	0.47087676272225626	768.0	0.0	30905.0	2943.145751953125	-0.3239130434782609	752.0	-194.0	1.1373737373737374	-0.5469061876247505	-487.0	-8.77139654510615	324.0	-47.0	1.935254193468279	526.0	-4.170841167628787	
10.009574187340647	2014.0	0.4083508495531839	2018.0	1243.0	0.670444310609902	10.163090128755364	-16576.0	0.510116492949111	-832.0	0.47087676272225626	768.0	0.0	31545.0	2962.677001953125	-0.3282608695652174	750.0	-185.0	1.1555555555555554	-0.5489021956087825	-486.0	-3.0876273376798853	272.0	-57.0	1.6579539131240772	156.0	-3.4368043349882202	
9.802200765617775	2015.0	0.3883945038941004	2020.0	1260.0	0.6561228201649981	9.809932556713672	-16000.0	0.4316370324954016	-704.0	0.47087676272225626	768.0	0.0	32185.0	2982.208251953125	-0.31521739130434784	756.0	-185.0	1.1555555555555554	-0.5089820359281437	-506.0	2.628894484056926	239.0	3.0	0.34045772381626255	-217.0	-2.992068412521178	
9.691994892944356	2015.0	0.3418494837212601	2024.0	1269.0	0.6545553112365354	9.770692826486817	-15936.0	0.3531575720416922	-576.0	0.3531575720416922	576.0	0.0	32825.0	3001.739501953125	-0.32608695652173914	751.0	-192.0	1.1414141414141414	-0.532934131736527	-494.0	2.7933921715434837	197.0	72.0	-0.7310254046519705	-228.0	-2.354930119434066	
9.838527342264802	2012.0	0.3991307901735291	2019.0	1257.0	0.6927380271075158	9.888412017167381	-16128.0	0.4316370324954016	-704.0	0.5493562231759657	896.0	0.0	33465.0	3021.270751953125	-0.32173913043478264	753.0	-185.0	1.1555555555555554	-0.5289421157684632	-496.0	-0.31552358860992225	120.0	117.0	-1.236151642874839	-25.0	-1.1527383002355738	
9.825855350314848	2013.0	0.33866421182591183	2024.0	1258.0	0.6799584486334556	9.927651747394236	-16192.0	0.4316370324954016	-704.0	0.4316370324954016	704.0	0.0	34105.0	3040.802001953125	-0.33043478260869563	749.0	-187.0	1.1515151515151516	-0.5409181636726548	-490.0	0.18035727228588497	121.0	82.0	-0.7453189545897679	-57.0	-1.1729062343198169	
9.801116882052652	2016.0	0.26673047549102313	2030.0	1260.0	0.6428471482742317	9.888412017167381	-16128.0	0.4316370324954016	-704.0	0.39239730226854685	640.0	0.0	34745.0	3060.333251953125	-0.3239130434782609	752.0	-190.0	1.1454545454545455	-0.5389221556886228	-491.0	1.339261237957312	106.0	39.0	-0.19042648471625512	-132.0	-0.9563583918472538	
9.740275909650224	2014.0	0.3040554362842086	2027.0	1265.0	0.666708373700308	9.809932556713672	-16000.0	0.3531575720416922	-576.0	0.4316370324954016	704.0	0.0	35385.0	3079.864501953125	-0.3173913043478261	755.0	-181.0	1.1636363636363636	-0.5369261477045909	-492.0	1.0636811992518977	77.0	64.0	-0.5637012932768375	-114.0	-0.5125379526769297	
9.812700672878366	2014.0	0.22943664811731657	2033.0	1259.0	0.6666864334509205	9.849172286940528	-16064.0	0.3139178418148375	-512.0	0.47087676272225626	768.0	0.0	36025.0	3099.395751953125	-0.3239130434782609	752.0	-182.0	1.1616161616161615	-0.5129740518962077	-504.0	0.03727810260964716	71.0	62.0	-0.4659288203683534	-47.0	-0.41101916885879614	
9.812814867911323	2011.0	0.2774823284801912	2029.0	1259.0	0.7033126105181318	9.888412017167381	-16128.0	0.27467811158798283	-448.0	0.510116492949111	832.0	0.0	36665.0	3118.927001953125	-0.3173913043478261	755.0	-190.0	1.1454545454545455	-0.5409181636726548	-490.0	-0.6015410125460026	56.0	41.0	-0.11574990652804662	-5.0	-0.17649409557796206	
9.885360302511097	2011.0	0.2150537866535436	2034.0	1253.0	0.7034137794458631	9.888412017167381	-16128.0	0.23543838136112813	-384.0	0.510116492949111	832.0	0.0	37305.0	3138.458251953125	-0.3282608695652174	750.0	-182.0	1.1616161616161615	-0.5469061876247505	-487.0	2.5024056758707545	141.0	-81.0	1.5490118878454808	-207.0	-1.5003092278613692	
9.728088761966353	2016.0	0.2803980319566928	2029.0	1266.0	0.6422535426380255	9.809932556713672	-16000.0	0.23543838136112813	-384.0	0.510116492949111	832.0	0.0	37945.0	3157.989501953125	-0.3173913043478261	755.0	-184.0	1.1575757575757575	-0.5089820359281437	-506.0	2.162342453035754	153.0	-75.0	1.490025645894178	-185.0	-1.6794181013364413	
9.837572765189543	2017.0	0.2418497627471894	2032.0	1257.0	0.630914707207078	9.966891477621092	-16256.0	0.3531575720416922	-576.0	0.39239730226854685	640.0	0.0	38585.0	3177.520751953125	-0.3239130434782609	752.0	-189.0	1.1474747474747475	-0.532934131736527	-494.0	-0.1902281969885209	148.0	-30.0	0.9760600693751436	-32.0	-1.579846767459773	
9.924236089419288	2015.0	0.3981225666919698	2019.0	1250.0	0.6574404540309919	10.084610668301655	-16448.0	0.4316370324954016	-704.0	0.47087676272225626	768.0	0.0	39225.0	3197.052001953125	-0.32173913043478264	753.0	-182.0	1.1616161616161615	-0.530938123752495	-495.0	-0.3937046565416323	135.0	10.0	0.38261313578785433	-19.0	-1.3800933716855344	
9.98471504770682	2017.0	0.32422686687805075	2025.0	1245.0	0.6332099010735593	10.163090128755364	-16576.0	0.3139178418148375	-512.0	0.39239730226854685	640.0	0.0	39865.0	3216.583251953125	-0.31956521739130433	754.0	-188.0	1.1494949494949496	-0.5608782435129741	-480.0	0.24713345336056639	130.0	37.0	-0.06982862295579598	-61.0	-1.3104561254081306	
9.997141379354396	2014.0	0.38421657522693237	2020.0	1244.0	0.670078639786777	10.084610668301655	-16448.0	0.4316370324954016	-704.0	0.510116492949111	832.0	0.0	40505.0	3236.114501953125	-0.3130434782608696	757.0	-188.0	1.1494949494949496	-0.5489021956087825	-486.0	1.0205537750713956	72.0	152.0	-1.8830817794840138	-112.0	-0.43606105105869875	
9.972751972529746	2011.0	0.42056444595803766	2017.0	1246.0	0.7063428027390944	10.0453709380748	-16384.0	0.47087676272225626	-768.0	0.47087676272225626	768.0	0.0	41145.0	3255.645751953125	-0.31956521739130433	754.0	-184.0	1.1575757575757575	-0.5389221556886228	-491.0	-0.44493797985527245	11.0	268.0	-3.5573242542834222	-17.0	0.5063505204829635	
9.959827843938738	2007.0	0.395476431634315	2019.0	1247.0	0.7541554523942846	10.0453709380748	-16384.0	0.4316370324954016	-704.0	0.627835683629675	1024.0	0.0	41785.0	3275.177001953125	-0.3130434782608696	757.0	-181.0	1.1636363636363636	-0.5109780439121757	-505.0	-0.538768246129109	-30.0	320.0	-4.355346828432779	-11.0	1.130862967632394	
9.849624130044877	2008.0	0.3369796001205979	2024.0	1256.0	0.7404202541691244	9.966891477621092	-16256.0	0.39239730226854685	-640.0	0.5493562231759657	896.0	0.0	42425.0	3294.708251953125	-0.3173913043478261	755.0	-190.0	1.1454545454545455	-0.5389221556886228	-491.0	-0.25281816975097204	-69.0	292.0	-3.979185084542616	-29.0	1.7211593604047342	
9.885713681507758	2007.0	0.29943177103778396	2027.0	1253.0	0.7524538641640095	10.006131207847945	-16320.0	0.3531575720416922	-576.0	0.5885959534028203	960.0	0.0	43065.0	3314.239501953125	-0.32173913043478264	753.0	-179.0	1.1676767676767676	-0.532934131736527	-494.0	-0.6162412191059456	-102.0	293.0	-3.9889593896830124	-5.0	2.226694731582694	
9.910462943667744	2009.0	0.31160645066828907	2026.0	1251.0	0.7287267180397458	9.927651747394236	-16192.0	0.39239730226854685	-640.0	0.5885959534028203	960.0	0.0	43705.0	3333.770751953125	-0.31956521739130433	754.0	-194.0	1.1373737373737374	-0.5508982035928145	-485.0	-0.48002664859925814	-69.0	273.0	-3.678513803200383	-14.0	1.723431445193217	
9.872914541847496	2005.0	0.2626303803725524	2030.0	1254.0	0.7760542444029231	9.966891477621092	-16256.0	0.3531575720416922	-576.0	0.5885959534028203	960.0	0.0	44345.0	3353.302001953125	-0.3108695652173913	758.0	-187.0	1.1515151515151516	-0.5249500998003993	-498.0	0.7334544764323019	-15.0	208.0	-2.7556076348477774	-93.0	0.8900038582775021	
9.77526214853196	2005.0	0.252409880866208	2031.0	1262.0	0.7749755154747043	9.888412017167381	-16128.0	0.3531575720416922	-576.0	0.5493562231759657	896.0	0.0	44985.0	3372.833251953125	-0.31956521739130433	754.0	-180.0	1.1656565656565656	-0.5149700598802396	-503.0	1.6085761045227807	27.0	161.0	-2.086317093202477	-150.0	0.24246937203462013	
9.799528725205423	2007.0	0.21582357513573508	2034.0	1260.0	0.7507559326419656	9.888412017167381	-16128.0	0.23543838136112813	-384.0	0.510116492949111	832.0	0.0	45625.0	3392.364501953125	-0.30869565217391304	759.0	-191.0	1.1434343434343435	-0.4990019960079841	-511.0	0.8267951204172739	54.0	132.0	-1.5806966724997737	-99.0	-0.16035920595702444	
9.77465015655557	2001.0	0.23926589452849237	2032.0	1262.0	0.8230307267759006	9.927651747394236	-16192.0	0.27467811158798283	-448.0	0.5885959534028203	960.0	0.0	46265.0	3411.895751953125	-0.3130434782608696	757.0	-183.0	1.1595959595959595	-0.5289421157684632	-496.0	1.146963492748258	64.0	135.0	-1.6418742522682739	-120.0	-0.315652144433186	
9.566548389043794	2000.0	0.1700716935096953	2038.0	1279.0	0.8323059598616792	9.692213366033108	-15808.0	0.23543838136112813	-384.0	0.5885959534028203	960.0	0.0	46905.0	3431.427001953125	-0.30869565217391304	759.0	-181.0	1.1636363636363636	-0.5229540918163673	-499.0	1.4672503563343358	66.0	145.0	-1.8128745254171013	-141.0	-0.3492732640196171	
9.579466041296127	2001.0	0.23101514185604816	2033.0	1278.0	0.8209963780965818	9.613733905579398	-15680.0	0.23543838136112813	-384.0	0.627835683629675	1024.0	0.0	47545.0	3450.958251953125	-0.32608695652173914	751.0	-180.0	1.1656565656565656	-0.5508982035928145	-485.0	-0.6642910758662341	66.0	143.0	-1.6345342342396898	-2.0	-0.32795784969761144	
9.713567841409882	1999.0	0.2522103626411889	2031.0	1267.0	0.8466457338477393	9.770692826486817	-15936.0	0.27467811158798283	-448.0	0.6670754138565297	1088.0	0.0	48185.0	3470.489501953125	-0.31956521739130433	754.0	-183.0	1.1595959595959595	-0.5289421157684632	-496.0	-2.4092072666181727	142.0	148.0	-1.5418148446591178	111.0	-1.4664022239117653	
9.592019520654008	2001.0	0.26733966252254415	2030.0	1277.0	0.8214851580968255	9.692213366033108	-15808.0	0.3139178418148375	-512.0	0.7063151440833844	1152.0	0.0	48825.0	3490.020751953125	-0.31956521739130433	754.0	-183.0	1.1595959595959595	-0.530938123752495	-495.0	-0.6077038121352276	151.0	92.0	-0.8221439900249756	-6.0	-1.621299387734161	
9.45804702703012	2007.0	0.210527442714141	2035.0	1288.0	0.7472881543359966	9.496014714898834	-15488.0	0.3531575720416922	-576.0	0.627835683629675	1024.0	0.0	49465.0	3509.552001953125	-0.30869565217391304	759.0	-179.0	1.1676767676767676	-0.5129740518962077	-504.0	-0.4081301318102005	162.0	80.0	-0.6494322579889609	-19.0	-1.7905955047655482	
9.604213144676555	2002.0	0.25514163282742985	2031.0	1276.0	0.8094369212690155	9.613733905579398	-15680.0	0.39239730226854685	-640.0	0.5885959534028203	960.0	0.0	50105.0	3529.083251953125	-0.3239130434782609	752.0	-186.0	1.1535353535353536	-0.5429141716566867	-489.0	-2.3007938906494525	158.0	23.0	0.33443639319338386	105.0	-1.710832365276015	
9.629311468274087	1998.0	0.3755979195239288	2021.0	1274.0	0.8590852384562931	9.692213366033108	-15808.0	0.39239730226854685	-640.0	0.5885959534028203	960.0	0.0	50745.0	3548.614501953125	-0.3173913043478261	755.0	-183.0	1.1595959595959595	-0.4990019960079841	-511.0	-1.0224751694644556	185.0	-39.0	1.191426498096024	22.0	-2.1342619403205645	
9.605422017172426	2003.0	0.3650922848889983	2022.0	1276.0	0.7985003237435055	9.692213366033108	-15808.0	0.4316370324954016	-704.0	0.5885959534028203	960.0	0.0	51385.0	3568.145751953125	-0.30869565217391304	759.0	-187.0	1.1515151515151516	-0.5069860279441119	-507.0	-1.641210613940079	220.0	-38.0	1.2407907569488008	62.0	-2.660393977510789	
9.726728995185034	2001.0	0.32558249232715397	2025.0	1266.0	0.8234146811401819	9.770692826486817	-15936.0	0.39239730226854685	-640.0	0.5493562231759657	896.0	0.0	52025.0	3587.677001953125	-0.32173913043478264	753.0	-186.0	1.1535353535353536	-0.5409181636726548	-490.0	-3.2146624882161716	173.0	-34.0	1.261739836512377	165.0	-1.9298305614296256	
9.580427094710062	1999.0	0.3524407352597576	2023.0	1278.0	0.8463166301069268	9.613733905579398	-15680.0	0.3531575720416922	-576.0	0.627835683629675	1024.0	0.0	52665.0	3607.208251953125	-0.32608695652173914	751.0	-178.0	1.1696969696969697	-0.5129740518962077	-504.0	-2.0973927360758107	128.0	-77.0	1.8012790970773098	93.0	-1.2565926125631963	
9.933986063095393	2002.0	0.30944496896423956	2026.0	1249.0	0.8132776838145721	10.006131207847945	-16320.0	0.3139178418148375	-512.0	0.7063151440833844	1152.0	0.0	53305.0	3626.739501953125	-0.3173913043478261	755.0	-185.0	1.1555555555555554	-0.5229540918163673	-499.0	-4.142452085660974	105.0	-122.0	2.6042855010368418	227.0	-0.8863321331357857	
9.872296073532432	1998.0	0.28534182805746694	2028.0	1254.0	0.860612523594212	9.927651747394236	-16192.0	0.27467811158798283	-448.0	0.745554874310239	1216.0	0.0	53945.0	3646.270751953125	-0.33043478260869563	749.0	-185.0	1.1555555555555554	-0.5568862275449102	-482.0	-2.33397622196332	82.0	-91.0	1.9996555692943188	109.0	-0.5546070058412034	
9.786953658051956	1997.0	0.29901716787800625	2027.0	1261.0	0.871944045608697	9.888412017167381	-16128.0	0.39239730226854685	-640.0	0.7063151440833844	1152.0	0.0	54585.0	3665.802001953125	-0.3282608695652174	750.0	-179.0	1.1676767676767676	-0.5249500998003993	-498.0	-2.3570629041648568	54.0	-12.0	0.7998203857412775	110.0	-0.12852062571120315	
9.968373262678089	1995.0	0.1729445591632629	2037.0	1246.0	0.8965939011099795	10.123850398528509	-16512.0	0.27467811158798283	-448.0	0.6670754138565297	1088.0	0.0	55225.0	3685.333251953125	-0.32173913043478264	753.0	-184.0	1.1575757575757575	-0.502994011976048	-509.0	-4.787761741302673	63.0	29.0	0.35977965630400877	268.0	-0.24109576661739152	
9.907648644088178	1991.0	0.24636338897844637	2031.0	1251.0	0.9449136143065696	10.006131207847945	-16320.0	0.39239730226854685	-640.0	0.745554874310239	1216.0	0.0	55865.0	3704.864501953125	-0.3239130434782609	752.0	-185.0	1.1555555555555554	-0.5588822355289422	-481.0	-1.7452558784614502	86.0	-32.0	1.0765563723232041	70.0	-0.6213307111773626	
9.919848744449398	1995.0	0.19830992526070199	2035.0	1250.0	0.896362309588667	9.927651747394236	-16192.0	0.23543838136112813	-384.0	0.6670754138565297	1088.0	0.0	56505.0	3724.395751953125	-0.32608695652173914	751.0	-184.0	1.1575757575757575	-0.4990019960079841	-511.0	0.8482347967861421	135.0	-90.0	1.7954245246488347	-99.0	-1.392512766218812	
9.94411532112286	1997.0	0.16172361953022896	2038.0	1248.0	0.8721427267559282	10.0453709380748	-16384.0	0.23543838136112813	-384.0	0.627835683629675	1024.0	0.0	57145.0	3743.927001953125	-0.31521739130434784	756.0	-185.0	1.1555555555555554	-0.4970059880239522	-512.0	0.4311909470515786	148.0	-83.0	1.727411995600627	-72.0	-1.5860609589001737	
9.956668800480742	1997.0	0.198048140196725	2035.0	1247.0	0.8726315067561721	10.0453709380748	-16384.0	0.3139178418148375	-512.0	0.7063151440833844	1152.0	0.0	57785.0	3763.458251953125	-0.3282608695652174	750.0	-184.0	1.1575757575757575	-0.5389221556886228	-491.0	-0.6867444428608596	114.0	-61.0	1.4547008056333746	1.0	-1.0577713388413537	
10.029332747672589	1996.0	0.15976165605119858	2038.0	1241.0	0.8850234741577195	10.123850398528509	-16512.0	0.19619865113427343	-320.0	0.7063151440833844	1152.0	0.0	58425.0	3782.989501953125	-0.3282608695652174	750.0	-181.0	1.1636363636363636	-0.5169660678642716	-502.0	-0.8315096864669472	78.0	19.0	0.24347502605387267	10.0	-0.5087951692950264	
9.968379739016765	1998.0	0.1370891251406327	2040.0	1246.0	0.860090833219887	10.0453709380748	-16384.0	0.3139178418148375	-512.0	0.7063151440833844	1152.0	0.0	59065.0	3802.520751953125	-0.32608695652173914	751.0	-188.0	1.1494949494949496	-0.5189620758483035	-501.0	-0.6686335242147452	81.0	55.0	-0.30576619471438005	-1.0	-0.5560513073434039	
9.894989604815573	1998.0	0.11418594258556883	2042.0	1252.0	0.8591279000523244	9.966891477621092	-16256.0	0.19619865113427343	-320.0	0.6670754138565297	1088.0	0.0	59705.0	3822.052001953125	-0.31521739130434784	756.0	-187.0	1.1515151515151516	-0.5389221556886228	-491.0	0.19866688815107655	115.0	68.0	-0.5403484414942906	-58.0	-1.0818345776267582	
9.931678195577492	1995.0	0.16149296788573092	2038.0	1249.0	0.8961124345261983	10.0453709380748	-16384.0	0.19619865113427343	-320.0	0.745554874310239	1216.0	0.0	60345.0	3841.583251953125	-0.33260869565217394	748.0	-192.0	1.1414141414141414	-0.5209580838323354	-500.0	-0.2856947128110514	172.0	72.0	-0.53193008297618	-27.0	-1.9439111137083915	
10.04104368620861	1997.0	0.09880264099510633	2043.0	1240.0	0.8724828006214345	10.084610668301655	-16448.0	0.15695892090741875	-256.0	0.6670754138565297	1088.0	0.0	60985.0	3861.114501953125	-0.3130434782608696	757.0	-189.0	1.1474747474747475	-0.5149700598802396	-503.0	0.6668413022867142	209.0	25.0	0.12893059223835648	-89.0	-2.5161741164449207	
9.908633444077253	2000.0	0.23631905763251193	2032.0	1251.0	0.836389284053242	9.966891477621092	-16256.0	0.3139178418148375	-512.0	0.6670754138565297	1088.0	0.0	61625.0	3880.645751953125	-0.3239130434782609	752.0	-188.0	1.1494949494949496	-0.5449101796407186	-488.0	1.9351311216117772	114.0	-56.0	1.1972557476054493	-170.0	-1.0839900944860799	
9.349133998971713	1991.0	0.48930411373801774	2012.0	1297.0	0.9417578751030006	9.45677498467198	-15424.0	0.4316370324954016	-704.0	0.7847946045370937	1280.0	0.0	62265.0	3900.177001953125	-0.3282608695652174	750.0	-183.0	1.1595959595959595	-0.500998003992016	-510.0	1.0928034281991714	-8.0	-150.0	2.590956575071413	-113.0	0.7799464904328374	
9.70184395019651	1992.0	0.3848802457425414	2020.0	1268.0	0.9321925431642096	9.849172286940528	-16064.0	0.47087676272225626	-768.0	0.7847946045370937	1280.0	0.0	62905.0	3919.708251953125	-0.32173913043478264	753.0	-181.0	1.1636363636363636	-0.5049900199600799	-508.0	-7.4898637069319935	53.0	-45.0	1.6512075802830146	445.0	-0.06198349220824662	
10.164755456535612	1991.0	0.3509050206016592	2022.0	1230.0	0.9485300987472761	10.241569589209073	-16704.0	0.4316370324954016	-704.0	0.6670754138565297	1088.0	0.0	63545.0	3939.239501953125	-0.3347826086956522	747.0	-183.0	1.1595959595959595	-0.5469061876247505	-487.0	-17.130687736852614	38.0	31.0	1.173653172622748	1073.0	0.26256163022023715	
10.00578372289024	1991.0	0.3053448738457688	2026.0	1243.0	0.9464847799432635	10.084610668301655	-16448.0	0.39239730226854685	-640.0	0.745554874310239	1216.0	0.0	64185.0	3958.770751953125	-0.34347826086956523	743.0	-187.0	1.1515151515151516	-0.5608782435129741	-480.0	5.074136225976973	233.0	-138.0	2.2805617369503155	-375.0	-2.9252660770886676	
9.61639597480131	1998.0	0.3027026598366992	2027.0	1275.0	0.8582271309246932	9.652973635806253	-15744.0	0.39239730226854685	-640.0	0.6670754138565297	1088.0	0.0	64825.0	3978.302001953125	-0.32608695652173914	751.0	-190.0	1.1454545454545455	-0.5249500998003993	-498.0	5.134585206143303	295.0	-90.0	1.5944329391994014	-380.0	-3.8688363463580115	
9.713699306679302	2004.0	0.20464155227704983	2035.0	1267.0	0.7859303965413705	9.849172286940528	-16064.0	0.3139178418148375	-512.0	0.5885959534028203	960.0	0.0	65465.0	3997.833251953125	-0.33043478260869563	749.0	-189.0	1.1474747474747475	-0.5429141716566867	-489.0	-0.018483368995879573	259.0	-56.0	1.4214402439083962	-44.0	-3.2697771434963534	
9.810625512985494	2003.0	0.15367238508280384	2039.0	1259.0	0.7984381597035743	9.888412017167381	-16128.0	0.19619865113427343	-320.0	0.6670754138565297	1088.0	0.0	569.0	4017.364501953125	-0.3282608695652174	750.0	-188.0	1.1494949494949496	-0.502994011976048	-509.0	0.190101415663298	161.0	-22.0	0.8375578435967177	-57.0	-1.781368694764998	
9.736507032995398	2001.0	0.08153134716802632	2045.0	1265.0	0.8210719500666942	9.849172286940528	-16064.0	0.15695892090741875	-256.0	0.5885959534028203	960.0	0.0	1209.0	4036.895751953125	-0.3282608695652174	750.0	-188.0	1.1494949494949496	-0.502994011976048	-509.0	0.2532039713858391	150.0	-23.0	0.8414663942574293	-61.0	-1.6146993400940866	
9.870723028142109	1996.0	0.15077224831604175	2039.0	1254.0	0.8833474828850633	9.966891477621092	-16256.0	0.23543838136112813	-384.0	0.7063151440833844	1152.0	0.0	1849.0	4056.427001953125	-0.33043478260869563	749.0	-189.0	1.1474747474747475	-0.5289421157684632	-496.0	0.34572214733928713	224.0	4.0	0.4752485394185132	-68.0	-2.7410998070247237	
9.809526517963464	1997.0	0.11567103606586362	2042.0	1259.0	0.8703363128896906	9.927651747394236	-16192.0	0.19619865113427343	-320.0	0.627835683629675	1024.0	0.0	2489.0	4075.958251953125	-0.32608695652173914	751.0	-182.0	1.1616161616161615	-0.5049900199600799	-508.0	2.1678781140877144	299.0	53.0	-0.3405788230994927	-188.0	-3.900005777338596	
9.675909562115795	2000.0	0.13128498930082413	2041.0	1270.0	0.8330117045503106	9.849172286940528	-16064.0	0.23543838136112813	-384.0	0.6670754138565297	1088.0	0.0	3129.0	4095.489501953125	-0.3347826086956522	747.0	-182.0	1.1616161616161615	-0.5189620758483035	-501.0	0.893975151535117	314.0	147.0	-1.652085053944499	-106.0	-4.115403629842348	
9.6510331522455	1995.0	0.14277549735270476	2040.0	1272.0	0.8931188093875482	9.731453096259962	-15872.0	0.23543838136112813	-384.0	0.6670754138565297	1088.0	0.0	3769.0	4115.020751953125	-0.33260869565217394	748.0	-186.0	1.1535353535353536	-0.5489021956087825	-486.0	-2.778804987301019	263.0	245.0	-2.8967515395674273	133.0	-3.3030104292144427	
9.748071394805091	1990.0	0.1518038218622102	2039.0	1264.0	0.9544204389136608	9.849172286940528	-16064.0	0.27467811158798283	-448.0	0.745554874310239	1216.0	0.0	4409.0	4134.552001953125	-0.341304347826087	744.0	-181.0	1.1636363636363636	-0.5189620758483035	-501.0	-2.178647455737752	242.0	252.0	-3.0562456954003516	94.0	-2.9896203695490864	
9.626639427861733	1990.0	0.2030269907655634	2035.0	1274.0	0.9537183509332606	9.731453096259962	-15872.0	0.27467811158798283	-448.0	0.8240343347639485	1344.0	0.0	5049.0	4154.083251953125	-0.33043478260869563	749.0	-190.0	1.1454545454545455	-0.5209580838323354	-500.0	-0.027232868101638733	291.0	176.0	-2.0367439799106952	-46.0	-3.756381663714421	
9.700516565108567	1992.0	0.2507875359998519	2031.0	1268.0	0.9308383422159032	9.809932556713672	-16000.0	0.3531575720416922	-576.0	0.7847946045370937	1280.0	0.0	5689.0	4173.614501953125	-0.32608695652173914	751.0	-186.0	1.1535353535353536	-0.530938123752495	-495.0	0.761692551310628	367.0	57.0	-0.2613095016299356	-97.0	-4.920164454030217	
9.712720983028904	1998.0	0.17883044960035407	2037.0	1267.0	0.8579516589046056	9.809932556713672	-16000.0	0.15695892090741875	-256.0	0.627835683629675	1024.0	0.0	6329.0	4193.145751953125	-0.32608695652173914	751.0	-179.0	1.1676767676767676	-0.4990019960079841	-511.0	2.621889569776527	363.0	-71.0	1.525827805568912	-217.0	-4.877929922313735	
9.725886454363176	2002.0	0.22829895660456576	2033.0	1266.0	0.8103852276036532	9.849172286940528	-16064.0	0.27467811158798283	-448.0	0.627835683629675	1024.0	0.0	6969.0	4212.677001953125	-0.33260869565217394	748.0	-187.0	1.1515151515151516	-0.5249500998003993	-498.0	0.4075800140126252	316.0	-89.0	1.9212156622228103	-72.0	-4.140957929417693	
9.920706396728168	2001.0	0.2119307815971532	2034.0	1250.0	0.8242179380483132	10.0453709380748	-16384.0	0.15695892090741875	-256.0	0.7063151440833844	1152.0	0.0	7609.0	4232.208251953125	-0.3282608695652174	750.0	-180.0	1.1656565656565656	-0.5189620758483035	-501.0	-1.736853477894425	290.0	-82.0	1.9497032165283628	68.0	-3.7240763321412085	
9.981659405383992	1999.0	0.23460331250771904	2032.0	1245.0	0.8491505789861458	10.084610668301655	-16448.0	0.3139178418148375	-512.0	0.627835683629675	1024.0	0.0	8249.0	4251.739501953125	-0.3456521739130435	742.0	-187.0	1.1515151515151516	-0.5449101796407186	-488.0	-1.1312902619110945	296.0	-35.0	1.2065585306480724	28.0	-3.8213867171527522	
9.944117479902419	1998.0	0.14977180818935223	2039.0	1248.0	0.8599750374592308	10.0453709380748	-16384.0	0.19619865113427343	-320.0	0.627835683629675	1024.0	0.0	8889.0	4271.270751953125	-0.33260869565217394	748.0	-180.0	1.1656565656565656	-0.4990019960079841	-511.0	-0.49559643506188916	278.0	39.0	0.04191839259584329	-14.0	-3.553979396866111	
9.968618922980468	1997.0	0.17342142916199846	2037.0	1246.0	0.872504740870822	10.084610668301655	-16448.0	0.23543838136112813	-384.0	0.7063151440833844	1152.0	0.0	9529.0	4290.802001953125	-0.3391304347826087	745.0	-187.0	1.1515151515151516	-0.532934131736527	-494.0	-0.5335511142281119	255.0	110.0	-1.0339001232883913	-12.0	-3.2037899641428904	
9.83463131789967	1996.0	0.2002718887397324	2035.0	1257.0	0.8834815621868758	9.966891477621092	-16256.0	0.27467811158798283	-448.0	0.627835683629675	1024.0	0.0	10169.0	4310.333251953125	-0.3391304347826087	745.0	-184.0	1.1575757575757575	-0.4990019960079841	-511.0	0.18111672488161035	286.0	121.0	-1.22969923053046	-59.0	-3.682419532267828	
9.822804025551134	1997.0	0.22513703477382668	2033.0	1258.0	0.871563747952647	9.809932556713672	-16000.0	0.3139178418148375	-512.0	0.6670754138565297	1088.0	0.0	10809.0	4329.864501953125	-0.33043478260869563	749.0	-189.0	1.1474747474747475	-0.49500998003992025	-513.0	-0.7580504129136082	282.0	149.0	-1.5865567627634845	2.0	-3.612191358988735	
9.810970256863921	1995.0	0.28585761483055117	2028.0	1259.0	0.8961490016085107	9.888412017167381	-16128.0	0.3139178418148375	-512.0	0.7063151440833844	1152.0	0.0	11449.0	4349.395751953125	-0.34347826086956523	743.0	-190.0	1.1454545454545455	-0.5189620758483035	-501.0	-1.7106266329240258	273.0	169.0	-1.8255828179843805	64.0	-3.465783467511064	
9.7623250672636	1995.0	0.2990327345877457	2027.0	1263.0	0.8957943009100795	9.849172286940528	-16064.0	0.3531575720416922	-576.0	0.7063151440833844	1152.0	0.0	12089.0	4368.927001953125	-0.33260869565217394	748.0	-182.0	1.1616161616161615	-0.5049900199600799	-508.0	-1.053194376001921	283.0	173.0	-1.9252264678685487	21.0	-3.6244490448331366	
9.700882896782577	1994.0	0.263454652338832	2030.0	1268.0	0.9068722911538645	9.770692826486817	-15936.0	0.3531575720416922	-576.0	0.7847946045370937	1280.0	0.0	12729.0	4388.458251953125	-0.33043478260869563	749.0	-194.0	1.1373737373737374	-0.5209580838323354	-500.0	-0.5654274467348174	254.0	119.0	-1.1672224292980695	-10.0	-3.188262075342538	
9.725028802084408	1996.0	0.2146781002681145	2034.0	1266.0	0.882529599144007	9.770692826486817	-15936.0	0.27467811158798283	-448.0	0.6670754138565297	1088.0	0.0	13369.0	4407.989501953125	-0.34347826086956523	743.0	-180.0	1.1656565656565656	-0.5229540918163673	-499.0	-0.7498099038210028	182.0	89.0	-0.7484165792099142	3.0	-2.0913612165511433	
9.786343824855127	1994.0	0.27392137019941387	2029.0	1261.0	0.9078315676131957	9.927651747394236	-16192.0	0.39239730226854685	-640.0	0.6670754138565297	1088.0	0.0	14009.0	4427.520751953125	-0.341304347826087	744.0	-191.0	1.1434343434343435	-0.5489021956087825	-486.0	-1.0377111122386184	96.0	47.0	-0.1510128893177399	23.0	-0.7804974135924428	
9.883989741831988	1991.0	0.3199973037283884	2025.0	1253.0	0.9454133644315071	9.966891477621092	-16256.0	0.4316370324954016	-704.0	0.7063151440833844	1152.0	0.0	14649.0	4447.052001953125	-0.3347826086956522	747.0	-190.0	1.1454545454545455	-0.532934131736527	-494.0	0.12495850277433791	110.0	53.0	-0.3133726067452376	-53.0	-1.0050518663965649	
9.786218835924378	1992.0	0.28563474654092286	2028.0	1261.0	0.932043837029472	9.849172286940528	-16064.0	0.3139178418148375	-512.0	0.745554874310239	1216.0	0.0	15289.0	4466.583251953125	-0.34347826086956523	743.0	-185.0	1.1555555555555554	-0.5129740518962077	-504.0	0.8560393685749188	148.0	50.0	-0.29616045303814675	-101.0	-1.590309443115407	
9.834017167143722	1991.0	0.19907971374289346	2035.0	1257.0	0.9437044627847696	9.966891477621092	-16256.0	0.23543838136112813	-384.0	0.745554874310239	1216.0	0.0	15929.0	4486.114501953125	-0.341304347826087	744.0	-186.0	1.1535353535353536	-0.4890219560878244	-516.0	-0.3149215128659483	159.0	75.0	-0.5827821541838853	-25.0	-1.7459002145291354	
9.833892178212976	1989.0	0.2107930900844024	2034.0	1257.0	0.9679167322010459	9.927651747394236	-16192.0	0.3139178418148375	-512.0	0.7847946045370937	1280.0	0.0	16569.0	4505.645751953125	-0.33260869565217394	748.0	-190.0	1.1454545454545455	-0.4930139720558883	-514.0	-0.8148978874829718	83.0	108.0	-1.0889721636435632	8.0	-0.585006914661292	
9.809632077878188	1990.0	0.2115239617922452	2034.0	1259.0	0.955633247143692	9.849172286940528	-16064.0	0.23543838136112813	-384.0	0.745554874310239	1216.0	0.0	17209.0	4525.177001953125	-0.3391304347826087	745.0	-185.0	1.1555555555555554	-0.5149700598802396	-503.0	-0.04534711084170881	46.0	126.0	-1.434907470867484	-42.0	-0.029964779842153257	
9.80938641757581	1988.0	0.2110470917935096	2034.0	1259.0	0.9797224073828495	9.927651747394236	-16192.0	0.27467811158798283	-448.0	0.7847946045370937	1280.0	0.0	17849.0	4544.708251953125	-0.3282608695652174	750.0	-186.0	1.1535353535353536	-0.4930139720558883	-514.0	0.08589162103551697	47.0	68.0	-0.5738681041958233	-50.0	-0.046486292636210694	
9.797328576381803	1994.0	0.15177268844273129	2039.0	1260.0	0.9067199283108958	9.927651747394236	-16192.0	0.3139178418148375	-512.0	0.745554874310239	1216.0	0.0	18489.0	4564.239501953125	-0.341304347826087	744.0	-184.0	1.1575757575757575	-0.5169660678642716	-502.0	0.04822268701920715	97.0	66.0	-0.5108430879414659	-48.0	-0.8065658770603062	
9.661886438502753	1990.0	0.06819562596016127	2046.0	1271.0	0.9527225073916169	9.731453096259962	-15872.0	0.15695892090741875	-256.0	0.7063151440833844	1152.0	0.0	19129.0	4583.770751953125	-0.3391304347826087	745.0	-178.0	1.1696969696969697	-0.5149700598802396	-503.0	-0.6356802179895399	113.0	111.0	-1.1281722741143416	-4.0	-1.0430728556147815	
9.74722885398323	1991.0	0.054520286139621926	2047.0	1264.0	0.941390985377132	9.849172286940528	-16064.0	0.19619865113427343	-320.0	0.8240343347639485	1344.0	0.0	19769.0	4603.302001953125	-0.33695652173913043	746.0	-178.0	1.1696969696969697	-0.4790419161676647	-521.0	-1.4159503394815411	105.0	106.0	-1.00376987506996	47.0	-0.9135971505975801	
9.747220218865	1987.0	0.10232753150312884	2043.0	1264.0	0.990061742563922	9.849172286940528	-16064.0	0.11771919068056406	-192.0	0.7847946045370937	1280.0	0.0	20409.0	4622.833251953125	-0.33695652173913043	746.0	-190.0	1.1454545454545455	-0.5089820359281437	-506.0	-1.5032176128655497	95.0	84.0	-0.6739446405737766	53.0	-0.7606332231108882	
9.69869138307719	1985.0	0.15159652028232132	2039.0	1268.0	1.0141655296360046	9.809932556713672	-16000.0	0.11771919068056406	-192.0	0.8632740649908032	1408.0	0.0	21049.0	4642.364501953125	-0.3456521739130435	742.0	-193.0	1.1393939393939394	-0.5289421157684632	-496.0	-0.7455701606718156	117.0	124.0	-1.312993022753247	3.0	-1.1028104580890994	
9.576156103552686	1977.0	0.18872196285048776	2036.0	1278.0	1.1096969734351159	9.652973635806253	-15744.0	0.23543838136112813	-384.0	1.020232985898222	1664.0	0.0	21689.0	4661.895751953125	-0.3347826086956522	747.0	-185.0	1.1555555555555554	-0.4790419161676647	-521.0	-0.6259370612795188	162.0	203.0	-2.478350856717386	-6.0	-1.788417435470855	
9.600655387851178	1975.0	0.22432339516401067	2033.0	1276.0	1.1343943661434044	9.652973635806253	-15744.0	0.27467811158798283	-448.0	0.9025137952176578	1472.0	0.0	22329.0	4681.427001953125	-0.3347826086956522	747.0	-187.0	1.1515151515151516	-0.500998003992016	-510.0	-1.5827882532932225	209.0	197.0	-2.293205835370941	56.0	-2.493677820889121	
9.526784726943017	1976.0	0.14070741590709196	2040.0	1282.0	1.1207713069706695	9.574494175352545	-15616.0	0.19619865113427343	-320.0	0.9417535254445125	1536.0	0.0	22969.0	4700.958251953125	-0.3391304347826087	745.0	-184.0	1.1575757575757575	-0.5229540918163673	-499.0	-2.5775245997191005	227.0	165.0	-1.7332614953774645	121.0	-2.7574947159799956	
9.624559950409745	1977.0	0.15116635041280413	2039.0	1274.0	1.1098054557793096	9.731453096259962	-15872.0	0.23543838136112813	-384.0	1.020232985898222	1664.0	0.0	23609.0	4720.489501953125	-0.33260869565217394	748.0	-183.0	1.1595959595959595	-0.4970059880239522	-512.0	-3.453622491024335	218.0	84.0	-0.463367563715522	179.0	-2.6118516077893768	
9.709540351775328	1978.0	0.10092027157153133	2043.0	1267.0	1.0981046062334683	9.849172286940528	-16064.0	0.19619865113427343	-320.0	0.9025137952176578	1472.0	0.0	24249.0	4740.020751953125	-0.3391304347826087	745.0	-189.0	1.1474747474747475	-0.502994011976048	-509.0	-3.500465611377929	173.0	31.0	0.30711899025624945	183.0	-1.926972530198008	
9.709419680403697	1978.0	0.08873002523128681	2044.0	1267.0	1.0979814970563495	9.770692826486817	-15936.0	0.19619865113427343	-320.0	0.9809932556713672	1600.0	0.0	24889.0	4759.552001953125	-0.34782608695652173	741.0	-179.0	1.1676767676767676	-0.5049900199600799	-508.0	-2.7915470587149045	142.0	-64.0	1.6632067994735131	138.0	-1.462578825990798	
9.843043112590042	1978.0	0.03726063797369608	2048.0	1256.0	1.098803037505637	9.888412017167381	-16128.0	0.11771919068056406	-192.0	0.8632740649908032	1408.0	0.0	25529.0	4779.083251953125	-0.35	740.0	-184.0	1.1575757575757575	-0.4850299401197605	-518.0	-4.575386363213577	230.0	-118.0	2.6504933391384253	254.0	-2.783143474770906	
9.976912205078767	1980.0	-0.013731879285159038	2052.0	1245.0	1.0755354177157672	10.006131207847945	-16320.0	0.07847946045370938	-128.0	0.9417535254445125	1536.0	0.0	26169.0	4798.614501953125	-0.3456521739130435	742.0	-188.0	1.1494949494949496	-0.5149700598802396	-503.0	-3.5311906732148546	251.0	-147.0	3.0253755932094055	186.0	-3.112977066651882	
9.977399208124407	1982.0	0.01112548339406555	2050.0	1245.0	1.0516924758308472	10.0453709380748	-16384.0	0.15695892090741875	-256.0	0.9025137952176578	1472.0	0.0	26809.0	4818.145751953125	-0.35	740.0	-178.0	1.1696969696969697	-0.5049900199600799	-508.0	-2.01840817139264	280.0	-138.0	2.802795982900777	87.0	-3.569169530453374	
9.941313974220643	1985.0	0.02476968979512595	2049.0	1248.0	1.0153234872425672	10.006131207847945	-16320.0	0.07847946045370938	-128.0	0.7847946045370937	1280.0	0.0	27449.0	4837.677001953125	-0.35434782608695653	738.0	-179.0	1.1676767676767676	-0.4790419161676647	-521.0	-3.044187626009726	304.0	-71.0	1.8842932422739622	153.0	-3.923930747314048	
9.965942565009	1987.0	0.02475412308538652	2049.0	1246.0	0.9914732319411845	10.0453709380748	-16384.0	0.11771919068056406	-192.0	0.8632740649908032	1408.0	0.0	28089.0	4857.208251953125	-0.35	740.0	-186.0	1.1535353535353536	-0.5149700598802396	-503.0	-4.108762812742776	296.0	-21.0	1.2038955677121945	222.0	-3.7916119916444355	
10.01397792141249	1984.0	-0.01351679435040043	2052.0	1242.0	1.0277154546441147	10.123850398528509	-16512.0	0.03923973022685469	-64.0	0.8632740649908032	1408.0	0.0	28729.0	4876.739501953125	-0.3630434782608696	734.0	-182.0	1.1616161616161615	-0.5149700598802396	-503.0	-2.3114579635422166	366.0	-6.0	0.896501145316745	104.0	-4.874223823406403	
9.95350759824319	1986.0	0.012571660100011733	2050.0	1247.0	1.003275250414757	10.084610668301655	-16448.0	0.11771919068056406	-192.0	0.8240343347639485	1344.0	0.0	29369.0	4896.270751953125	-0.35	740.0	-185.0	1.1555555555555554	-0.5049900199600799	-508.0	0.13582812493541177	394.0	11.0	0.4883316903728805	-56.0	-5.324552197599164	
9.844870453400977	1986.0	0.12449984235034992	2041.0	1256.0	1.0033081607888383	9.927651747394236	-16192.0	0.19619865113427343	-320.0	0.8632740649908032	1408.0	0.0	30009.0	4915.802001953125	-0.3521739130434783	739.0	-187.0	1.1515151515151516	-0.4770459081836328	-522.0	-1.0898648265034943	435.0	65.0	-0.21101231682630445	23.0	-5.935869412571467	
9.954964289820998	1990.0	0.11104737081943897	2042.0	1247.0	0.9560818033533921	10.0453709380748	-16384.0	0.11771919068056406	-192.0	0.7063151440833844	1152.0	0.0	30649.0	4935.333251953125	-0.3673913043478261	732.0	-179.0	1.1676767676767676	-0.4970059880239522	-512.0	-2.1731725792122436	416.0	46.0	0.13768453861540056	94.0	-5.636062951013962	
9.882058999885889	1991.0	0.12495336228447629	2041.0	1253.0	0.9434436175976071	10.006131207847945	-16320.0	0.11771919068056406	-192.0	0.745554874310239	1216.0	0.0	31289.0	4954.864501953125	-0.35434782608695653	738.0	-179.0	1.1676767676767676	-0.4970059880239522	-512.0	-0.9922755489936597	403.0	59.0	-0.1473171886605984	17.0	-5.45015329013744	
9.88242317278034	1992.0	0.14957228996433308	2039.0	1253.0	0.9316452558322659	10.006131207847945	-16320.0	0.15695892090741875	-256.0	0.745554874310239	1216.0	0.0	31929.0	4974.395751953125	-0.35434782608695653	738.0	-186.0	1.1535353535353536	-0.5169660678642716	-502.0	-0.3004270279924588	374.0	76.0	-0.46798499499175367	-28.0	-5.016007136564182	
9.833170308762746	1990.0	0.12569980070205858	2041.0	1257.0	0.9550103878416358	9.927651747394236	-16192.0	0.23543838136112813	-384.0	0.7063151440833844	1152.0	0.0	32569.0	4993.927001953125	-0.36086956521739133	735.0	-179.0	1.1676767676767676	-0.5049900199600799	-508.0	-0.7885325832276431	331.0	100.0	-0.8199926341198978	4.0	-4.357133685574568	
9.722843764717695	1990.0	0.06696453418897369	2046.0	1266.0	0.9533197697360545	9.770692826486817	-15936.0	0.07847946045370938	-128.0	0.745554874310239	1216.0	0.0	33209.0	5013.458251953125	-0.3673913043478261	732.0	-191.0	1.1434343434343435	-0.5229540918163673	-499.0	-1.8038519708781977	310.0	141.0	-1.376794723811822	70.0	-4.027588856717074	
9.83256479312503	1989.0	0.07670038034171278	2045.0	1257.0	0.9665625312527395	9.966891477621092	-16256.0	0.15695892090741875	-256.0	0.7847946045370937	1280.0	0.0	33849.0	5032.989501953125	-0.3630434782608696	734.0	-189.0	1.1474747474747475	-0.5169660678642716	-502.0	-3.102870304921424	267.0	152.0	-1.4774602848092893	155.0	-3.3606062779393793	
9.892795932330628	1988.0	0.014279621869934866	2050.0	1252.0	0.978588827831162	9.927651747394236	-16192.0	0.11771919068056406	-192.0	0.8240343347639485	1344.0	0.0	34489.0	5052.520751953125	-0.3695652173913044	731.0	-180.0	1.1656565656565656	-0.5109780439121757	-505.0	-2.667863422711275	236.0	145.0	-1.4216485531635876	127.0	-2.8934734570276404	
9.893032957514773	1986.0	0.06256373723217734	2046.0	1252.0	1.0031704247787945	9.927651747394236	-16192.0	0.11771919068056406	-192.0	0.7847946045370937	1280.0	0.0	35129.0	5072.052001953125	-0.3565217391304348	737.0	-181.0	1.1636363636363636	-0.4850299401197605	-518.0	-0.6605394217462154	230.0	163.0	-1.8348735612110914	-4.0	-2.8222919441855803	
9.758200652832556	1985.0	0.004082472428199674	2051.0	1263.0	1.013285481855017	9.849172286940528	-16064.0	0.07847946045370938	-128.0	0.8632740649908032	1408.0	0.0	35769.0	5091.583251953125	-0.36086956521739133	735.0	-185.0	1.1555555555555554	-0.49500998003992025	-513.0	-0.40471510896268176	240.0	186.0	-2.1914228693976074	-21.0	-2.976941442066267	
9.733565585705527	1980.0	0.03995347316056927	2048.0	1265.0	1.073638805046492	9.849172286940528	-16064.0	0.07847946045370938	-128.0	0.8632740649908032	1408.0	0.0	36409.0	5111.114501953125	-0.3739130434782609	729.0	-175.0	1.1757575757575758	-0.48103792415169666	-520.0	-0.6175206654909825	231.0	182.0	-2.1221168728418367	-7.0	-2.8379312572234174	
9.831086513751643	1975.0	0.09774278303105283	2043.0	1257.0	1.1354328712810795	9.888412017167381	-16128.0	0.19619865113427343	-320.0	0.9417535254445125	1536.0	0.0	37049.0	5130.645751953125	-0.358695652173913	736.0	-181.0	1.1636363636363636	-0.4730538922155689	-524.0	-1.6609253307824399	259.0	158.0	-1.6726415976502094	61.0	-3.2533527238784874	
9.867294577806597	1973.0	0.08433701162936016	2044.0	1254.0	1.1597572797497808	9.966891477621092	-16256.0	0.15695892090741875	-256.0	0.9417535254445125	1536.0	0.0	37689.0	5150.177001953125	-0.3652173913043478	733.0	-184.0	1.1575757575757575	-0.4970059880239522	-512.0	-2.0347184178101356	294.0	162.0	-1.6853028381201862	85.0	-3.7819341846431915	
9.892763550637254	1973.0	0.19355679198308573	2035.0	1252.0	1.1611041672816247	9.966891477621092	-16256.0	0.23543838136112813	-384.0	0.9809932556713672	1600.0	0.0	38329.0	5169.708251953125	-0.3739130434782609	729.0	-179.0	1.1676767676767676	-0.4910179640718563	-515.0	0.1759596371358194	308.0	134.0	-1.4108588155307389	-59.0	-4.016968721846644	
9.733434120436106	1975.0	0.08752228352470842	2044.0	1265.0	1.1343541423528607	9.770692826486817	-15936.0	0.11771919068056406	-192.0	0.9025137952176578	1472.0	0.0	38969.0	5189.239501953125	-0.3695652173913044	731.0	-186.0	1.1535353535353536	-0.48103792415169666	-520.0	2.4573333713944594	299.0	66.0	-0.5556274577336793	-207.0	-3.902900329911663	
9.673560677786288	1974.0	0.2104174036989733	2034.0	1270.0	1.1470325518991895	9.731453096259962	-15872.0	0.3139178418148375	-512.0	1.020232985898222	1664.0	0.0	39609.0	5208.770751953125	-0.3739130434782609	729.0	-184.0	1.1575757575757575	-0.5149700598802396	-503.0	1.6536681945283869	237.0	65.0	-0.5224184888543819	-154.0	-2.951897898675322	
9.771088082171076	1972.0	0.23235127954682658	2032.0	1262.0	1.1723235502436846	9.888412017167381	-16128.0	0.3531575720416922	-576.0	1.020232985898222	1664.0	0.0	40249.0	5228.302001953125	-0.3673913043478261	732.0	-177.0	1.1717171717171717	-0.4730538922155689	-524.0	-0.9299989892579195	210.0	36.0	0.07576150031948915	15.0	-2.5154148390047597	
9.783044681009477	1975.0	0.1718691344894699	2037.0	1261.0	1.1356937164682421	9.888412017167381	-16128.0	0.27467811158798283	-448.0	0.9417535254445125	1536.0	0.0	40889.0	5247.833251953125	-0.3782608695652174	727.0	-181.0	1.1636363636363636	-0.5189620758483035	-501.0	-1.093568318289335	183.0	28.0	0.19066010009177514	26.0	-2.1031327578817454	
9.69710322622996	1976.0	0.10068961992703324	2043.0	1268.0	1.1220743140037381	9.849172286940528	-16064.0	0.23543838136112813	-384.0	0.9417535254445125	1536.0	0.0	41529.0	5267.364501953125	-0.36086956521739133	735.0	-187.0	1.1515151515151516	-0.4990019960079841	-511.0	1.097385454058998	124.0	-2.0	0.45205129385843623	-116.0	-1.2277038925634036	
9.757933404734596	1973.0	0.12312371583823128	2041.0	1263.0	1.1590515350611497	9.849172286940528	-16064.0	0.19619865113427343	-320.0	0.9809932556713672	1600.0	0.0	42169.0	5286.895751953125	-0.3717391304347826	730.0	-181.0	1.1636363636363636	-0.4730538922155689	-524.0	0.9048223931657516	67.0	8.0	0.2808518393316966	-103.0	-0.3588581098632164	
9.647727532061175	1973.0	0.07657869566539094	2045.0	1272.0	1.1574840261326869	9.731453096259962	-15872.0	0.19619865113427343	-320.0	0.9809932556713672	1600.0	0.0	42809.0	5306.427001953125	-0.3630434782608696	734.0	-183.0	1.1595959595959595	-0.4770459081836328	-522.0	0.8758325756210428	38.0	25.0	0.010354381363336648	-101.0	0.08249642709550062	
9.70892620101938	1973.0	0.0997280965746924	2043.0	1267.0	1.158327506831362	9.770692826486817	-15936.0	0.07847946045370938	-128.0	1.0594727161250765	1728.0	0.0	43449.0	5325.958251953125	-0.3717391304347826	730.0	-184.0	1.1575757575757575	-0.4970059880239522	-512.0	-0.20312098578782922	7.0	91.0	-0.9229150137282712	-31.0	0.5647688524434297	
9.74429820059115	1975.0	-0.046816644572218735	2055.0	1264.0	1.1331193938734418	9.809932556713672	-16000.0	0.03923973022685469	-64.0	0.9417535254445125	1536.0	0.0	44089.0	5345.489501953125	-0.3717391304347826	730.0	-179.0	1.1676767676767676	-0.48103792415169666	-520.0	-2.1035646936976544	-71.0	158.0	-1.8425943542650747	93.0	1.7700850765947713	
9.671024420202473	1973.0	-0.03362595810528468	2054.0	1270.0	1.1566149484763932	9.770692826486817	-15936.0	0.0	0.0	1.020232985898222	1664.0	0.0	44729.0	5365.020751953125	-0.3739130434782609	729.0	-189.0	1.1474747474747475	-0.502994011976048	-509.0	-2.2855688967421686	-124.0	196.0	-2.431885350169567	105.0	2.5779887688153305	
9.719057617826405	1969.0	-0.05994506420019488	2056.0	1266.0	1.2050248604760208	9.809932556713672	-16000.0	0.03923973022685469	-64.0	1.0594727161250765	1728.0	0.0	45369.0	5384.552001953125	-0.3717391304347826	730.0	-187.0	1.1515151515151516	-0.5049900199600799	-508.0	-1.3652077639938192	-126.0	197.0	-2.5121517187950007	45.0	2.5992034084384175	
9.718814116303584	1968.0	-0.07237374553980719	2057.0	1266.0	1.2169463314184807	9.809932556713672	-16000.0	0.03923973022685469	-64.0	1.0594727161250765	1728.0	0.0	46009.0	5404.083251953125	-0.3652173913043478	733.0	-190.0	1.1454545454545455	-0.4650698602794412	-528.0	-2.1731128127963606	-61.0	203.0	-2.506332823651358	97.0	1.6186893030329068	
9.876816161416789	1966.0	-0.10043194682411948	2059.0	1253.0	1.2423421553989382	10.006131207847945	-16320.0	0.0	0.0	1.0987124463519313	1792.0	0.0	46649.0	5423.614501953125	-0.3652173913043478	733.0	-176.0	1.1737373737373737	-0.4830339321357286	-519.0	-3.6661113843099726	22.0	260.0	-3.206498540139242	193.0	0.37126187429937346	
9.827798163803783	1961.0	-0.0640685093832748	2056.0	1257.0	1.3024565736526383	9.849172286940528	-16064.0	0.07847946045370938	-128.0	1.137952176578786	1856.0	0.0	47289.0	5443.145751953125	-0.358695652173913	736.0	-186.0	1.1535353535353536	-0.4930139720558883	-514.0	-3.524576182618476	22.0	339.0	-4.400757186278919	183.0	0.36984652228245857	
9.926782259766378	1963.0	0.05634107718400569	2046.0	1249.0	1.2805541249357684	9.966891477621092	-16256.0	0.19619865113427343	-320.0	1.0594727161250765	1728.0	0.0	47929.0	5462.677001953125	-0.3760869565217391	728.0	-180.0	1.1656565656565656	-0.45708582834331346	-532.0	-2.718738290896661	65.0	344.0	-4.505646326465897	130.0	-0.292204252072022	
9.841806175959915	1964.0	0.08268353334352513	2044.0	1256.0	1.2679195958882148	9.927651747394236	-16192.0	0.15695892090741875	-256.0	1.0987124463519313	1792.0	0.0	48569.0	5482.208251953125	-0.3695652173913044	731.0	-177.0	1.1717171717171717	-0.4650698602794412	-528.0	-2.8915898738850823	116.0	322.0	-4.132754157861551	141.0	-1.0661411354816814	
9.804268568037457	1965.0	-0.026051593656595123	2053.0	1259.0	1.2544086757679047	9.927651747394236	-16192.0	0.07847946045370938	-128.0	1.137952176578786	1856.0	0.0	49209.0	5501.739501953125	-0.3695652173913044	731.0	-183.0	1.1595959595959595	-0.48103792415169666	-520.0	-2.2630114951498443	170.0	271.0	-3.379033810840484	100.0	-1.8937196949344333	
9.77999767380488	1961.0	0.034438334755631295	2048.0	1261.0	1.3029636371940383	9.849172286940528	-16064.0	0.19619865113427343	-320.0	1.0987124463519313	1792.0	0.0	49849.0	5521.270751953125	-0.3826086956521739	725.0	-177.0	1.1717171717171717	-0.4730538922155689	-524.0	-1.7935894106020314	138.0	240.0	-2.966405652341473	70.0	-1.4117219005707857	
9.76805186886427	1963.0	0.03516142310860437	2048.0	1262.0	1.2787550244859933	9.849172286940528	-16064.0	0.07847946045370938	-128.0	1.2164316370324952	1984.0	0.0	50489.0	5540.802001953125	-0.3739130434782609	729.0	-183.0	1.1595959595959595	-0.47504990019960086	-523.0	-0.5035143181858853	145.0	119.0	-1.2378433701173184	-13.0	-1.5310865298219436	
9.768174699015459	1964.0	0.035399858107972165	2048.0	1262.0	1.2667104443664146	9.770692826486817	-15936.0	0.11771919068056406	-192.0	1.137952176578786	1856.0	0.0	51129.0	5560.333251953125	-0.3673913043478261	732.0	-182.0	1.1616161616161615	-0.49500998003992025	-513.0	0.5105605092027481	207.0	-56.0	1.3529838089971784	-78.0	-2.4841930575635107	
9.792557629501436	1964.0	0.034907421399497124	2048.0	1260.0	1.2669493493041895	9.849172286940528	-16064.0	0.07847946045370938	-128.0	1.137952176578786	1856.0	0.0	51769.0	5579.864501953125	-0.3760869565217391	728.0	-174.0	1.1777777777777778	-0.45309381237524954	-534.0	0.9444490222530317	273.0	-150.0	2.77223261206747	-106.0	-3.4923342240628346	
9.853038746568528	1967.0	-0.05094008975529865	2055.0	1255.0	1.2305511070500597	9.888412017167381	-16128.0	0.11771919068056406	-192.0	1.020232985898222	1664.0	0.0	52409.0	5599.395751953125	-0.3782608695652174	727.0	-181.0	1.1636363636363636	-0.4670658682634731	-527.0	0.5201089367240564	197.0	-110.0	2.155830790650382	-78.0	-2.3321972870858723	
9.82937768553278	1966.0	0.034645636335520175	2048.0	1257.0	1.2432185464716945	9.849172286940528	-16064.0	0.19619865113427343	-320.0	1.0594727161250765	1728.0	0.0	53049.0	5618.927001953125	-0.3782608695652174	727.0	-178.0	1.1696969696969697	-0.4770459081836328	-522.0	1.7447543093598983	118.0	-120.0	2.1724596736942856	-157.0	-1.142922828264702	
9.670285280515778	1966.0	-0.02310475676061466	2053.0	1270.0	1.2410501184905633	9.770692826486817	-15936.0	0.07847946045370938	-128.0	0.9809932556713672	1600.0	0.0	53689.0	5638.458251953125	-0.3652173913043478	733.0	-177.0	1.1717171717171717	-0.4451097804391218	-538.0	0.5818877879621245	154.0	-71.0	1.5406636406098104	-82.0	-1.67882268016099	
9.767937673831314	1966.0	-0.012884257254270254	2052.0	1262.0	1.2421288474187822	9.888412017167381	-16128.0	0.0	0.0	1.0987124463519313	1792.0	0.0	54329.0	5657.989501953125	-0.3717391304347826	730.0	-183.0	1.1595959595959595	-0.4590818363273454	-531.0	-0.9970796291880141	176.0	5.0	0.5245135184041398	20.0	-1.9976337664457628	
9.731481790694422	1965.0	0.01199645548956349	2050.0	1265.0	1.254061288485936	9.692213366033108	-15808.0	0.07847946045370938	-128.0	1.137952176578786	1856.0	0.0	54969.0	5677.520751953125	-0.3782608695652174	727.0	-186.0	1.1535353535353536	-0.4790419161676647	-521.0	-0.1590971079123287	212.0	7.0	0.45810606811151094	-35.0	-2.5535421087687853	
9.585550539452573	1967.0	0.027618192079393755	2049.0	1277.0	1.228661807797247	9.613733905579398	-15680.0	0.11771919068056406	-192.0	1.137952176578786	1856.0	0.0	55609.0	5697.052001953125	-0.3804347826086957	726.0	-190.0	1.1454545454545455	-0.5149700598802396	-503.0	0.38313452725979835	185.0	-3.0	0.5538659282714823	-70.0	-2.148318037287807	
9.634439230575717	1968.0	0.026871753661811465	2049.0	1273.0	1.2170950375532184	9.731453096259962	-15872.0	0.07847946045370938	-128.0	1.0594727161250765	1728.0	0.0	56249.0	5716.583251953125	-0.3782608695652174	727.0	-186.0	1.1535353535353536	-0.4790419161676647	-521.0	-0.9308311518319868	165.0	-17.0	0.8430456916298055	16.0	-1.8309958709911858	
9.634559901947348	1968.0	0.03906200000205595	2048.0	1273.0	1.217218146730337	9.692213366033108	-15808.0	0.03923973022685469	-64.0	1.0987124463519313	1792.0	0.0	56889.0	5736.114501953125	-0.3760869565217391	728.0	-182.0	1.1616161616161615	-0.49500998003992025	-513.0	-0.6196979700434326	101.0	16.0	0.2877028372724362	-4.0	-0.8607231723908204	
9.584822193663669	1965.0	-0.021619663280319834	2053.0	1277.0	1.2522585313279295	9.692213366033108	-15808.0	0.07847946045370938	-128.0	1.0987124463519313	1792.0	0.0	57529.0	5755.645751953125	-0.3760869565217391	728.0	-176.0	1.1737373737373737	-0.45508982035928147	-533.0	-2.0161507997458687	53.0	68.0	-0.42391576159537037	87.0	-0.11672062128010786	
9.73099694642834	1964.0	-0.02481271853053782	2053.0	1265.0	1.2657365410741583	9.770692826486817	-15936.0	0.11771919068056406	-192.0	1.0987124463519313	1792.0	0.0	58169.0	5775.177001953125	-0.3804347826086957	726.0	-183.0	1.1595959595959595	-0.45708582834331346	-532.0	-3.3496284553565343	38.0	77.0	-0.47516372578317256	174.0	0.12475103740527638	
9.828886364928023	1962.0	0.03369189633804903	2048.0	1257.0	1.2913968669500095	9.927651747394236	-16192.0	0.11771919068056406	-192.0	1.0987124463519313	1792.0	0.0	58809.0	5794.708251953125	-0.3847826086956522	724.0	-179.0	1.1676767676767676	-0.48103792415169666	-520.0	-2.776876697227865	72.0	111.0	-1.004087964938822	136.0	-0.3980867463357062	
9.767327840634483	1963.0	-0.03798005493286266	2054.0	1262.0	1.278016369423281	9.809932556713672	-16000.0	-0.03923973022685469	64.0	1.0987124463519313	1792.0	0.0	59449.0	5814.239501953125	-0.3847826086956522	724.0	-182.0	1.1616161616161615	-0.500998003992016	-510.0	-2.665743256025099	65.0	195.0	-2.275451722422193	128.0	-0.2927342024207376	
9.767075703993429	1958.0	-0.0026014909089680516	2051.0	1262.0	1.338608597552531	9.849172286940528	-16064.0	0.03923973022685469	-64.0	1.137952176578786	1856.0	0.0	60089.0	5833.770751953125	-0.3847826086956522	724.0	-180.0	1.1656565656565656	0.009980039920159682	-766.0	-3.7044959092667966	4.0	329.0	-4.249260306165143	195.0	0.6454099781040747	
9.851562625974697	1954.0	-0.04184949840683533	2054.0	1255.0	1.3872537577817023	9.888412017167381	-16128.0	0.03923973022685469	-64.0	1.25567136725935	2048.0	0.0	60729.0	5853.302001953125	-0.3804347826086957	726.0	-184.0	1.1575757575757575	-0.4910179640718563	-515.0	-4.600840006662887	-49.0	426.0	-5.673390966562195	253.0	1.46045706926815	
9.814981753907055	1951.0	-0.005255409321492627	2051.0	1258.0	1.4233984682651324	9.888412017167381	-16128.0	0.07847946045370938	-128.0	1.2949110974862048	2112.0	0.0	61369.0	5872.833251953125	-0.3869565217391304	723.0	-176.0	1.1737373737373737	-0.4610778443113773	-530.0	-3.6849808763109047	-53.0	459.0	-6.234320845798894	193.0	1.5121349798657708	
9.765972391412284	1950.0	-0.01669921724415485	2052.0	1262.0	1.4348421293320424	9.849172286940528	-16064.0	0.07847946045370938	-128.0	1.3341508277130594	2176.0	0.0	62009.0	5892.364501953125	-0.3826086956521739	725.0	-184.0	1.1575757575757575	-0.43712574850299407	-542.0	-3.6130673078633246	-9.0	448.0	-6.047640428096958	188.0	0.8422143232687473	
9.680270120596472	1950.0	-0.05154642778522578	2055.0	1269.0	1.4336366345184735	9.692213366033108	-15808.0	0.19619865113427343	-320.0	1.3341508277130594	2176.0	0.0	62649.0	5911.895751953125	-0.3782608695652174	727.0	-187.0	1.1515151515151516	-0.48103792415169666	-520.0	-3.3847642784065095	41.0	411.0	-5.478389429315922	173.0	0.07947501920992062	
9.667964460320526	1953.0	-0.09934588979386293	2059.0	1270.0	1.3968910049823746	9.692213366033108	-15808.0	0.07847946045370938	-128.0	1.25567136725935	2048.0	0.0	63289.0	5931.427001953125	-0.3847826086956522	724.0	-175.0	1.1757575757575758	-0.44111776447105794	-540.0	-3.2153015085744645	19.0	325.0	-4.214212746175654	163.0	0.412381151967874	
9.66808081413304	1951.0	-0.06325202077186498	2056.0	1270.0	1.4213494927528885	9.692213366033108	-15808.0	0.03923973022685469	-64.0	1.2164316370324952	1984.0	0.0	63929.0	5950.958251953125	-0.3804347826086957	726.0	-182.0	1.1616161616161615	-0.4510978043912176	-535.0	-3.216895504801683	9.0	243.0	-2.9908001468820262	164.0	0.564488346682998	
9.741358912080836	1955.0	-0.10034632992055247	2059.0	1264.0	1.373518559556542	9.849172286940528	-16064.0	-0.03923973022685469	64.0	1.25567136725935	2048.0	0.0	64569.0	5970.489501953125	-0.4	717.0	-176.0	1.1737373737373737	-0.46906187624750506	-526.0	-3.0209387297675456	29.0	144.0	-1.5080135669797063	152.0	0.25834626942695305	
9.65625999812318	1955.0	-0.07424230876040083	2057.0	1271.0	1.372928610628567	9.731453096259962	-15872.0	0.0	0.0	1.25567136725935	2048.0	0.0	65209.0	5990.020751953125	-0.3847826086956522	724.0	-174.0	1.1777777777777778	-0.4331337325349302	-544.0	-1.771326933553036	61.0	64.0	-0.3761185675377966	71.0	-0.24084186374431757	
9.70551717969989	1959.0	-0.07427344217987975	2057.0	1267.0	1.3252281000258022	9.731453096259962	-15872.0	0.07847946045370938	-128.0	1.2949110974862048	2112.0	0.0	313.0	6009.552001953125	-0.3847826086956522	724.0	-180.0	1.1656565656565656	-0.4510978043912176	-535.0	-1.0730623728783872	102.0	-30.0	1.0095205371425535	26.0	-0.871398653837756	
9.632607572205666	1958.0	-0.03646382803308895	2054.0	1273.0	1.336925292863412	9.692213366033108	-15808.0	0.0	0.0	1.1771919068056407	1920.0	0.0	953.0	6029.083251953125	-0.3847826086956522	724.0	-181.0	1.1636363636363636	-0.47504990019960086	-523.0	-0.5821388407678625	114.0	-145.0	2.70679057057028	-5.0	-1.0588173948622837	
9.754765726158368	1959.0	-0.026497330235851796	2053.0	1263.0	1.3261983466098273	9.888412017167381	-16128.0	0.15695892090741875	-256.0	1.1771919068056407	1920.0	0.0	1593.0	6048.614501953125	-0.3869565217391304	723.0	-176.0	1.1737373737373737	-0.44710578842315374	-537.0	-1.413455535167114	97.0	-210.0	3.7288207508054603	50.0	-0.791949094838443	
9.840353801941225	1962.0	-0.03969580005765552	2054.0	1256.0	1.2907776643561848	9.927651747394236	-16192.0	0.03923973022685469	-64.0	1.137952176578786	1856.0	0.0	2233.0	6068.145751953125	-0.3891304347826087	722.0	-184.0	1.1575757575757575	-0.45508982035928147	-533.0	-1.9482584480682248	70.0	-197.0	3.5547146293044323	85.0	-0.37595467787673226	
9.827927470293647	1965.0	-0.09968550840653718	2059.0	1257.0	1.253908925642967	9.927651747394236	-16192.0	-0.03923973022685469	64.0	1.0987124463519313	1792.0	0.0	2873.0	6087.677001953125	-0.3891304347826087	722.0	-182.0	1.1616161616161615	-0.4670658682634731	-527.0	-0.926664665253446	10.0	-201.0	3.5070798158723435	19.0	0.5263769128122303	
9.754776520056158	1964.0	-0.08625638694023541	2058.0	1263.0	1.2653599001263396	9.849172286940528	-16064.0	0.0	0.0	1.137952176578786	1856.0	0.0	3513.0	6107.208251953125	-0.3891304347826087	722.0	-188.0	1.1494949494949496	-0.502994011976048	-509.0	-1.0607428114999216	-13.0	-205.0	3.5623892744063395	28.0	0.877527580206254	
9.888878320169914	1962.0	-0.06506116615509458	2056.0	1252.0	1.2910092558774973	10.0453709380748	-16384.0	0.07847946045370938	-128.0	1.137952176578786	1856.0	0.0	4153.0	6126.739501953125	-0.3847826086956522	724.0	-184.0	1.1575757575757575	-0.4510978043912176	-535.0	-1.232044388703617	13.0	-213.0	3.7100693846590205	39.0	0.4838033336208765	
