Device	Device	Device	Device	Device	Device	Device	Device	Device	Device	Device	Device	Device	Device	Device	Device	Device	Device	Device	Device	Device	Device	Device	Device	Device	Device	Device	
Low Noise Accelerometer X	Low Noise Accelerometer X	Low Noise Accelerometer Z	Low Noise Accelerometer Z	Low Noise Accelerometer Y	Low Noise Accelerometer Y	Wide Range Accelerometer X	Wide Range Accelerometer X	Wide Range Accelerometer Z	Wide Range Accelerometer Z	Wide Range Accelerometer Y	Wide Range Accelerometer Y	Event_Marker	Timestamp	Timestamp	Magnetometer Z	Magnetometer Z	Magnetometer X	Magnetometer X	Magnetometer Y	Magnetometer Y	Gyroscope Y	Gyroscope Y	Gyroscope Z	Gyroscope Z	Gyroscope X	Gyroscope X	
CAL	UNCAL	CAL	UNCAL	CAL	UNCAL	CAL	UNCAL	CAL	UNCAL	CAL	UNCAL	CAL	CAL	UNCAL	UNCAL	CAL	CAL	UNCAL	CAL	UNCAL	CAL	UNCAL	CAL	UNCAL	CAL	UNCAL	
m/(s^2)	no units	m/(s^2)	no units	m/(s^2)	no units	m/(s^2)	no units	m/(s^2)	no units	m/(s^2)	no units	no units	ms	no units	no units	local_flux	local_flux	no units	local_flux	no units	deg/s	no units	deg/s	no units	deg/s	no units	
9.651231715908132	1860.0	-0.6578911837058254	2103.0	2.511620152309974	1270.0	9.692213366033108	-15808.0	-0.5493562231759657	896.0	2.4328632740649905	3968.0	0.0	1563.140869140625	51221.0	741.0	-0.34782608695652173	1.2363636363636363	-145.0	-0.3792415169660679	-571.0	6.611189132022953	310.0	2.1454644424127642	-133.0	-4.111739267746085	-476.0	
9.701204290596397	1860.0	-0.5369735937203304	2093.0	2.5133290539567117	1266.0	9.692213366033108	-15808.0	-0.39239730226854685	640.0	2.4328632740649905	3968.0	0.0	1582.672119140625	51861.0	745.0	-0.3391304347826087	1.2343434343434343	-146.0	-0.3632734530938124	-579.0	7.302499868401111	397.0	2.0003519343335774	-123.0	-5.441846291459677	-522.0	
9.702900166137908	1863.0	-0.4021655789795374	2082.0	2.4785495145462813	1266.0	9.809932556713672	-16000.0	-0.19619865113427343	320.0	2.4328632740649905	3968.0	0.0	1602.203369140625	52501.0	747.0	-0.3347826086956522	1.2242424242424241	-151.0	-0.3932135728542915	-564.0	8.042460413800669	431.0	1.309864926102615	-79.0	-5.966356163073368	-571.0	
9.509054229864198	1868.0	-0.3360826786136757	2077.0	2.4170309203317815	1282.0	9.692213366033108	-15808.0	-0.11771919068056406	192.0	2.3151440833844266	3776.0	0.0	1621.734619140625	53141.0	746.0	-0.33695652173913043	1.2282828282828282	-149.0	-0.35928143712574856	-581.0	7.530774639757961	387.0	0.1193098952894105	1.0	-5.292037784420394	-538.0	
9.484544151667917	1865.0	-0.311925054222815	2075.0	2.45317197410698	1284.0	9.652973635806253	-15744.0	-0.15695892090741875	256.0	2.3151440833844266	3776.0	0.0	1641.265869140625	53781.0	751.0	-0.32608695652173914	1.2262626262626262	-150.0	-0.3552894211576847	-583.0	6.002479007738744	313.0	-0.3590698750614298	37.0	-4.151279542929099	-438.0	
9.53320013516603	1870.0	-0.3848592306843932	2081.0	2.392688228321924	1280.0	9.574494175352545	-15616.0	-0.11771919068056406	192.0	2.3151440833844266	3776.0	0.0	1660.797119140625	54421.0	751.0	-0.32608695652173914	1.2222222222222223	-152.0	-0.37125748502994016	-575.0	4.188351790596484	270.0	-1.3234340826827604	108.0	-3.4791458753204134	-320.0	
9.55709174504725	1866.0	-0.38630540739033936	2081.0	2.441105453738014	1278.0	9.692213366033108	-15808.0	-0.19619865113427343	320.0	2.393623543838136	3904.0	0.0	1680.328369140625	55061.0	751.0	-0.32608695652173914	1.2161616161616162	-155.0	-0.42514970059880247	-548.0	4.69663721239277	249.0	-1.461541435927777	114.0	-3.164837094557388	-353.0	
9.458577381893827	1858.0	-0.38624314055138154	2081.0	2.536506474943544	1286.0	9.613733905579398	-15680.0	-0.19619865113427343	320.0	2.4721030042918453	4032.0	0.0	1699.859619140625	55701.0	754.0	-0.31956521739130433	1.2323232323232323	-147.0	-0.3692614770459082	-576.0	4.9696000949247825	260.0	-1.623772674824139	124.0	-3.3348671036108453	-371.0	
9.471389474231437	1866.0	-0.4211526179314103	2084.0	2.4398999589244457	1285.0	9.496014714898834	-15488.0	-0.19619865113427343	320.0	2.4328632740649905	3968.0	0.0	1719.390869140625	56341.0	757.0	-0.3130434782608696	1.2282828282828282	-149.0	-0.3892215568862276	-566.0	3.718416597857074	324.0	-1.4527774309671186	121.0	-4.295739299058419	-290.0	
9.520390201607977	1863.0	-0.36190156464524115	2079.0	2.477127055044325	1281.0	9.574494175352545	-15616.0	-0.27467811158798283	448.0	2.3543838136112814	3840.0	0.0	1738.922119140625	56981.0	753.0	-0.32173913043478264	1.2343434343434343	-146.0	-0.375249500998004	-573.0	2.4915849765798646	342.0	-2.615809694626598	205.0	-4.55723524140078	-211.0	
9.386156936224802	1860.0	-0.3355279750662428	2077.0	2.5121930365995366	1292.0	9.496014714898834	-15488.0	-0.15695892090741875	256.0	2.4328632740649905	3968.0	0.0	1758.453369140625	57621.0	758.0	-0.3108695652173913	1.2242424242424241	-151.0	-0.34530938123752497	-588.0	2.4157752670097308	398.0	-3.2061500551971673	247.0	-5.408188170921049	-207.0	
9.276295807429811	1852.0	-0.24988776549133593	2070.0	2.6083363695760107	1301.0	9.45677498467198	-15424.0	-0.03923973022685469	64.0	2.4328632740649905	3968.0	0.0	1777.984619140625	58261.0	755.0	-0.3173913043478261	1.2181818181818183	-154.0	-0.3732534930139721	-574.0	2.7509916948930173	449.0	-2.6737168714238546	212.0	-6.187205734439425	-229.0	
9.26568386391582	1857.0	-0.1509274014183034	2062.0	2.5489788899261794	1302.0	9.37829552421827	-15296.0	-0.11771919068056406	192.0	2.5113427345187	4096.0	0.0	1797.515869140625	58901.0	757.0	-0.3130434782608696	1.2262626262626262	-150.0	-0.39720558882235535	-562.0	4.0217555027049405	474.0	-1.0677924871821745	100.0	-6.580141509399673	-311.0	
9.22900390827213	1864.0	-0.24604167208197245	2070.0	2.4633235982655153	1305.0	9.339055793991415	-15232.0	0.07847946045370938	-128.0	2.550582464745555	4160.0	0.0	1817.047119140625	59541.0	761.0	-0.30434782608695654	1.2181818181818183	-154.0	-0.3812375249500998	-570.0	4.461603142066821	455.0	-0.34534712708855525	49.0	-6.295566601762874	-339.0	
9.192782891539828	1860.0	-0.16092503263501945	2063.0	2.5120053255769994	1308.0	9.182096873083998	-14976.0	0.07847946045370938	-128.0	2.4328632740649905	3968.0	0.0	1836.578369140625	60181.0	754.0	-0.31956521739130433	1.2202020202020203	-153.0	-0.3812375249500998	-570.0	2.536701871804198	396.0	-0.3522150610368313	56.0	-5.378979186018422	-213.0	
9.374915730497957	1853.0	-0.15409710660391218	2062.0	2.598232282624482	1293.0	9.53525444512569	-15552.0	-0.07847946045370938	128.0	2.393623543838136	3904.0	0.0	1856.109619140625	60821.0	759.0	-0.30869565217391304	1.2101010101010101	-158.0	-0.3572854291417166	-582.0	1.2114725539203826	283.0	0.46587835099026786	3.0	-3.64709571413236	-125.0	
9.264819735298378	1848.0	-0.12869282373212446	2060.0	2.657626329356626	1302.0	9.417535254445125	-15360.0	0.07847946045370938	-128.0	2.5898221949724096	4224.0	0.0	1875.640869140625	61461.0	764.0	-0.29782608695652174	1.2181818181818183	-154.0	-0.34530938123752497	-588.0	3.009057571906755	286.0	0.702411618750473	-21.0	-3.7106989407380793	-242.0	
9.20411454572449	1853.0	-0.16284029598483152	2063.0	2.596436838882938	1307.0	9.339055793991415	-15232.0	0.0	0.0	2.4721030042918453	4032.0	0.0	1895.172119140625	62101.0	762.0	-0.30217391304347824	1.2202020202020203	-153.0	-0.3872255489021957	-567.0	1.8718333215513963	314.0	0.9785066920850366	-33.0	-4.125182211542509	-168.0	
9.327615196222045	1861.0	-0.10244376783104181	2058.0	2.5018902685007767	1297.0	9.299816063764561	-15168.0	0.07847946045370938	-128.0	2.393623543838136	3904.0	0.0	1914.703369140625	62741.0	759.0	-0.30869565217391304	1.2363636363636363	-145.0	-0.37125748502994016	-575.0	0.43603523215858525	347.0	0.6337466685422487	-2.0	-4.612725371332993	-75.0	
9.181699056437102	1870.0	-0.17048471062734863	2064.0	2.3913169627352056	1309.0	9.299816063764561	-15168.0	0.03923973022685469	-64.0	2.393623543838136	3904.0	0.0	1934.234619140625	63381.0	758.0	-0.3108695652173913	1.2161616161616162	-155.0	-0.3612774451097805	-580.0	1.4576759867788296	299.0	0.773319011078147	-18.0	-3.8929037560655066	-141.0	
9.182302413295258	1870.0	-0.1095334789261261	2059.0	2.3919325086207994	1309.0	9.221336603310851	-15040.0	0.11771919068056406	-192.0	2.3151440833844266	3776.0	0.0	1953.765869140625	64021.0	763.0	-0.3	1.2141414141414142	-156.0	-0.375249500998004	-573.0	-0.054372081610088094	228.0	0.43056603908880564	9.0	-2.797935366636371	-42.0	
9.20510150449312	1863.0	-0.18483643867164265	2065.0	2.475744819332913	1307.0	9.260576333537706	-15104.0	0.03923973022685469	-64.0	2.3543838136112814	3840.0	0.0	1973.297119140625	64661.0	760.0	-0.3065217391304348	1.2323232323232323	-147.0	-0.34331337325349304	-589.0	-2.572179367176886	129.0	0.38065974805274017	20.0	-1.2670538717274709	123.0	
9.204733014039553	1860.0	-0.185551743669746	2065.0	2.5118785596916493	1307.0	9.221336603310851	-15040.0	-0.03923973022685469	64.0	2.3543838136112814	3840.0	0.0	1992.828369140625	65301.0	761.0	-0.30434782608695654	1.2181818181818183	-154.0	-0.3672654690618763	-577.0	-2.8430724976270447	173.0	0.051469377065424815	45.0	-1.9335464613355167	140.0	
9.229219345660693	1852.0	-0.07823944331096275	2056.0	2.6095820881801233	1305.0	9.37829552421827	-15296.0	-0.03923973022685469	64.0	2.5113427345187	4096.0	0.0	2012.359619140625	405.0	762.0	-0.30217391304347824	1.2181818181818183	-154.0	-0.37125748502994016	-575.0	-2.033568680400052	172.0	1.1789273424693636	-34.0	-1.9264323740325016	88.0	
9.180341448435342	1856.0	-0.1372520615977641	2061.0	2.5603104119406646	1309.0	9.339055793991415	-15232.0	0.07847946045370938	-128.0	2.5113427345187	4096.0	0.0	2031.890869140625	1045.0	762.0	-0.30217391304347824	1.2222222222222223	-152.0	-0.3672654690618763	-577.0	-0.865298598065077	239.0	2.3827540121070663	-117.0	-2.957126481699958	12.0	
9.265211972327085	1862.0	-0.25944744348366505	2071.0	2.487648006734217	1302.0	9.260576333537706	-15104.0	-0.07847946045370938	128.0	2.393623543838136	3904.0	0.0	2051.422119140625	1685.0	761.0	-0.30434782608695654	1.2202020202020203	-153.0	-0.3612774451097805	-580.0	-2.305595579704001	185.0	3.3347046921419494	-176.0	-2.1214307362181692	107.0	
9.484647552803082	1857.0	-0.20412031715555676	2066.0	2.5506365976576792	1284.0	9.45677498467198	-15424.0	-0.03923973022685469	64.0	2.393623543838136	3904.0	0.0	2070.953369140625	2325.0	760.0	-0.3065217391304348	1.2181818181818183	-154.0	-0.3872255489021957	-567.0	-2.9955306637336676	105.0	3.7238600699207764	-202.0	-0.8978013473550588	153.0	
9.531588231743658	1850.0	-0.30429620629003734	2074.0	2.634441594953331	1280.0	9.652973635806253	-15744.0	-0.11771919068056406	192.0	2.5898221949724096	4224.0	0.0	2090.484619140625	2965.0	759.0	-0.30869565217391304	1.2202020202020203	-153.0	-0.3672654690618763	-577.0	-2.861732428698441	71.0	4.3085559557891	-243.0	-0.38202906354571525	145.0	
9.556100468719501	1854.0	-0.34040564202177476	2077.0	2.5861328518814344	1278.0	9.574494175352545	-15616.0	-0.11771919068056406	192.0	2.5113427345187	4096.0	0.0	2110.015869140625	3605.0	762.0	-0.30217391304347824	1.2282828282828282	-149.0	-0.34331337325349304	-589.0	-3.3649558968885787	146.0	4.23928264811973	-233.0	-1.5176812395102017	177.0	
9.8602966956134	1860.0	-0.47922320062419554	2088.0	2.5154974819378433	1253.0	9.849172286940528	-16064.0	-0.27467811158798283	448.0	2.4721030042918453	4032.0	0.0	2129.547119140625	4245.0	762.0	-0.30217391304347824	1.208080808080808	-159.0	-0.3732534930139721	-574.0	-6.107287157572318	168.0	3.528990205645887	-172.0	-1.8248586873596382	355.0	
9.834810452546277	1852.0	-0.49282849025090725	2089.0	2.6114921087795797	1255.0	9.927651747394236	-16192.0	-0.3139178418148375	512.0	2.393623543838136	3904.0	0.0	2149.078369140625	4885.0	758.0	-0.3108695652173913	1.2181818181818183	-154.0	-0.34530938123752497	-588.0	-4.399696298810055	177.0	2.531059445907706	-113.0	-1.9788167252248272	243.0	
9.701424045544076	1850.0	-0.3930749876310741	2081.0	2.635252165277924	1266.0	9.849172286940528	-16064.0	-0.3139178418148375	512.0	2.5898221949724096	4224.0	0.0	2168.609619140625	5525.0	761.0	-0.30434782608695654	1.2161616161616162	-155.0	-0.34331337325349304	-589.0	-2.1225094268824343	232.0	2.4060273156671705	-113.0	-2.838090495084788	94.0	
9.703738389400653	1860.0	-0.2809784205751957	2072.0	2.5159143466762055	1266.0	9.731453096259962	-15872.0	-0.11771919068056406	192.0	2.4721030042918453	4032.0	0.0	2188.140869140625	6165.0	758.0	-0.3108695652173913	1.2121212121212122	-157.0	-0.38323353293413176	-569.0	-1.603822181358185	390.0	2.960800980070641	-146.0	-5.246319192635087	59.0	
9.813327952538566	1854.0	-0.22367376405831751	2067.0	2.58987244549926	1257.0	9.849172286940528	-16064.0	-0.07847946045370938	128.0	2.4721030042918453	4032.0	0.0	2207.672119140625	6805.0	756.0	-0.31521739130434784	1.2242424242424241	-151.0	-0.3612774451097805	-580.0	-3.1473620462216934	440.0	2.8437770418975705	-129.0	-5.991340067750711	159.0	
9.825896543353357	1861.0	-0.27101192277795855	2071.0	2.5051874004226207	1256.0	9.731453096259962	-15872.0	0.0	0.0	2.5113427345187	4096.0	0.0	2227.203369140625	7445.0	761.0	-0.30434782608695654	1.204040404040404	-161.0	-0.34530938123752497	-588.0	-2.033685842256771	472.0	4.195028211033815	-223.0	-6.489168844999486	87.0	
9.900502026389095	1865.0	-0.17401352218395644	2063.0	2.458710668174581	1250.0	10.006131207847945	-16320.0	0.03923973022685469	-64.0	2.3543838136112814	3840.0	0.0	2246.734619140625	8085.0	756.0	-0.31521739130434784	1.206060606060606	-160.0	-0.3892215568862276	-566.0	-0.7232812062747351	477.0	4.85649106087082	-273.0	-6.578318518735733	2.0	
9.658142365784485	1875.0	-0.14232431242503926	2061.0	2.3361220359552806	1270.0	9.927651747394236	-16192.0	0.03923973022685469	-64.0	2.3151440833844266	3776.0	0.0	2266.265869140625	8725.0	754.0	-0.31956521739130433	1.2242424242424241	-151.0	-0.3692614770459082	-576.0	2.603882214209847	499.0	4.863192073445232	-288.0	-6.946190913396852	-215.0	
9.732155285859859	1884.0	-0.16603620023664328	2063.0	2.2281913113381595	1264.0	9.770692826486817	-15936.0	-0.03923973022685469	64.0	2.0797057020232983	3392.0	0.0	2285.797119140625	9365.0	763.0	-0.3	1.208080808080808	-159.0	-0.3892215568862276	-566.0	2.1764039068943477	487.0	3.3714013048455347	-187.0	-6.759406624620275	-188.0	
9.877946436714051	1873.0	-0.08628188109882753	2056.0	2.362976886520007	1252.0	10.0453709380748	-16384.0	0.15695892090741875	-256.0	2.2366646229307174	3648.0	0.0	2305.328369140625	10005.0	759.0	-0.30869565217391304	1.202020202020202	-162.0	-0.3812375249500998	-570.0	-0.6443489858998088	386.0	2.1569555019325217	-97.0	-5.195077422688531	-4.0	
9.597426382312806	1875.0	-0.11671272797336267	2059.0	2.3357709919650804	1275.0	9.770692826486817	-15936.0	0.0	0.0	2.2366646229307174	3648.0	0.0	2324.859619140625	10645.0	759.0	-0.30869565217391304	1.195959595959596	-165.0	-0.35928143712574856	-581.0	1.7762776343151676	368.0	1.4527916876389462	-62.0	-4.945519430335548	-162.0	
9.658379390968632	1873.0	-0.09404019706279679	2057.0	2.360703632902913	1270.0	9.888412017167381	-16128.0	0.07847946045370938	-128.0	2.2366646229307174	3648.0	0.0	2344.390869140625	11285.0	760.0	-0.3065217391304348	1.204040404040404	-161.0	-0.38522954091816375	-568.0	0.8079964825687644	265.0	-0.25162296844403564	52.0	-3.369296694863711	-99.0	
9.657547644044563	1879.0	-0.2510827894897687	2070.0	2.2868357328828965	1270.0	9.731453096259962	-15872.0	-0.11771919068056406	192.0	2.1974248927038627	3584.0	0.0	2363.922119140625	11925.0	760.0	-0.3065217391304348	1.2161616161616162	-155.0	-0.3872255489021957	-567.0	-0.0035183719832513815	226.0	-0.6536503790043124	81.0	-2.7680256527820686	-46.0	
9.595471893791567	1864.0	-0.18028674466763084	2064.0	2.467645827394853	1275.0	9.692213366033108	-15808.0	-0.03923973022685469	64.0	2.3543838136112814	3840.0	0.0	2383.453369140625	12565.0	756.0	-0.31521739130434784	1.2	-163.0	-0.41516966067864275	-553.0	1.8878510022129233	220.0	-0.38414227636303433	54.0	-2.6956845936723193	-169.0	
9.534878740471077	1865.0	-0.15443672521658647	2062.0	2.4552502032850745	1280.0	9.652973635806253	-15744.0	0.0	0.0	2.393623543838136	3904.0	0.0	2402.984619140625	13205.0	761.0	-0.30434782608695654	1.206060606060606	-160.0	-0.37724550898203596	-572.0	2.34806235225336	246.0	-0.010550398380277774	28.0	-3.0957239695301384	-199.0	
9.547555049980149	1866.0	-0.11787376955072267	2059.0	2.4436944031657397	1279.0	9.613733905579398	-15680.0	0.0	0.0	2.3543838136112814	3840.0	0.0	2422.515869140625	13845.0	763.0	-0.3	1.2101010101010101	-158.0	-0.38323353293413176	-569.0	1.5769989221643317	241.0	-0.4546788324292944	61.0	-3.0119677078528224	-149.0	
9.52317427827373	1867.0	-0.12933314418312436	2060.0	2.4312878089312666	1281.0	9.652973635806253	-15744.0	-0.03923973022685469	64.0	2.3543838136112814	3840.0	0.0	2442.047119140625	14485.0	757.0	-0.3130434782608696	1.1919191919191918	-167.0	-0.44111776447105794	-540.0	-1.0017305044223026	198.0	-1.1409391700514075	117.0	-2.3321880181496932	19.0	
9.49817287947269	1860.0	-0.10612925978973481	2058.0	2.515607183184781	1283.0	9.613733905579398	-15680.0	0.15695892090741875	-256.0	2.4328632740649905	3968.0	0.0	2461.578369140625	15125.0	763.0	-0.3	1.2101010101010101	-158.0	-0.34730538922155696	-587.0	-1.4387827198574235	204.0	-1.7815328144087217	162.0	-2.419072248847053	47.0	
9.486115038278683	1866.0	-0.16540366314051314	2063.0	2.442604704112827	1284.0	9.53525444512569	-15552.0	0.0	0.0	2.3151440833844266	3776.0	0.0	2481.109619140625	15765.0	761.0	-0.30434782608695654	1.208080808080808	-159.0	-0.3732534930139721	-574.0	-3.182511145482731	239.0	-2.1935991790004605	199.0	-2.9339543562257813	160.0	
9.620109119698155	1870.0	-0.22810955674087718	2068.0	2.3951248149066804	1273.0	9.692213366033108	-15808.0	0.0	0.0	2.3151440833844266	3776.0	0.0	2500.640869140625	16405.0	760.0	-0.3065217391304348	1.2121212121212122	-157.0	-0.34530938123752497	-588.0	-3.6454111711461965	215.0	-2.8056672550918464	241.0	-2.5643063445623024	190.0	
9.363976313342002	1874.0	-0.2829364630056408	2073.0	2.343822446696134	1294.0	9.496014714898834	-15488.0	-0.19619865113427343	320.0	2.275904353157572	3712.0	0.0	2520.172119140625	17045.0	759.0	-0.30869565217391304	1.208080808080808	-159.0	-0.34530938123752497	-588.0	-1.3019628883824683	162.0	-2.551239489136029	211.0	-1.7816571771998255	38.0	
9.436866491820204	1866.0	-0.21317977508454106	2067.0	2.441634457528802	1288.0	9.53525444512569	-15552.0	-0.07847946045370938	128.0	2.393623543838136	3904.0	0.0	2539.703369140625	17685.0	759.0	-0.30869565217391304	1.2121212121212122	-157.0	-0.3792415169660679	-571.0	-0.40488721012877205	134.0	-2.2858825906679088	188.0	-1.3647724206743777	-20.0	
9.363838371733905	1866.0	-0.1995122186188715	2066.0	2.4410408518925957	1294.0	9.37829552421827	-15296.0	-0.03923973022685469	64.0	2.3543838136112814	3840.0	0.0	2559.234619140625	18325.0	758.0	-0.3108695652173913	1.2202020202020203	-153.0	-0.35329341317365276	-584.0	0.8159392459855275	213.0	-1.783061140579029	152.0	-2.5785015977830494	-100.0	
9.327022633261679	1866.0	-0.22315405623664797	2068.0	2.4404362761316953	1297.0	9.417535254445125	-15360.0	0.0	0.0	2.3543838136112814	3840.0	0.0	2578.765869140625	18965.0	761.0	-0.30434782608695654	1.2	-163.0	-0.36526946107784436	-578.0	-0.6629881334960844	193.0	-1.1075874491704256	113.0	-2.25952981448253	-3.0	
9.375782017894956	1863.0	-0.18828349563096786	2065.0	2.477417153897338	1293.0	9.45677498467198	-15424.0	-0.11771919068056406	192.0	2.3543838136112814	3840.0	0.0	2598.297119140625	19605.0	761.0	-0.30434782608695654	1.2121212121212122	-157.0	-0.3992015968063873	-561.0	-0.36696584019510703	163.0	0.4127788384505815	9.0	-1.8062162731569844	-21.0	
9.460148268504591	1859.0	-0.23972174946907965	2069.0	2.5259392049493905	1286.0	9.496014714898834	-15488.0	-0.07847946045370938	128.0	2.4328632740649905	3968.0	0.0	2617.828369140625	20245.0	760.0	-0.3065217391304348	1.2181818181818183	-154.0	-0.33732534930139724	-592.0	-0.9163850432363768	105.0	1.3752534837596522	-55.0	-0.9185928035600317	16.0	
9.496468368812945	1853.0	-0.19313002916702085	2065.0	2.5990574797820005	1283.0	9.574494175352545	-15616.0	-0.15695892090741875	256.0	2.550582464745555	4160.0	0.0	2637.359619140625	20885.0	758.0	-0.3108695652173913	1.2141414141414142	-156.0	-0.3892215568862276	-566.0	-0.4371413868488189	80.0	1.3416815035479188	-56.0	-0.543157103241778	-15.0	
9.398574632754144	1853.0	-0.22773102135385426	2068.0	2.597732532499544	1291.0	9.496014714898834	-15488.0	0.0	0.0	2.5113427345187	4096.0	0.0	2656.890869140625	21525.0	759.0	-0.30869565217391304	1.2161616161616162	-155.0	-0.3692614770459082	-576.0	-0.10155668050745313	72.0	1.01360781287195	-36.0	-0.4248399465029103	-37.0	
9.312023344777797	1851.0	-0.3240063335948833	2076.0	2.620000652039539	1298.0	9.417535254445125	-15360.0	-0.15695892090741875	256.0	2.5113427345187	4096.0	0.0	2676.422119140625	22165.0	760.0	-0.3065217391304348	1.206060606060606	-160.0	-0.38522954091816375	-568.0	-1.165315233147643	43.0	0.0954900789561905	29.0	0.026862277806761602	32.0	
9.250822517040035	1850.0	-0.33520392316330805	2077.0	2.631324860637562	1303.0	9.37829552421827	-15296.0	-0.11771919068056406	192.0	2.550582464745555	4160.0	0.0	2695.953369140625	22805.0	764.0	-0.29782608695652174	1.208080808080808	-159.0	-0.3552894211576847	-583.0	-1.8229755822042606	13.0	-0.13186027503795203	46.0	0.48971264555588295	75.0	
9.274957628444076	1847.0	-0.3242214185296419	2076.0	2.6678206151111916	1301.0	9.37829552421827	-15296.0	-0.11771919068056406	192.0	2.550582464745555	4160.0	0.0	2715.484619140625	23445.0	761.0	-0.30434782608695654	1.2101010101010101	-158.0	-0.3692614770459082	-576.0	-2.390850421372952	24.0	0.03429585896232189	38.0	0.32809101371943294	112.0	
9.152930939760795	1851.0	-0.3817567266910181	2081.0	2.6178322240584073	1311.0	9.221336603310851	-15040.0	-0.23543838136112813	384.0	2.550582464745555	4160.0	0.0	2735.015869140625	24085.0	759.0	-0.30869565217391304	1.2181818181818183	-154.0	-0.3632734530938124	-579.0	-2.7345011545834073	38.0	-0.3530590446875969	66.0	0.11859976439754512	134.0	
9.225351385429818	1849.0	-0.43247189217615684	2085.0	2.6421456624024153	1305.0	9.339055793991415	-15232.0	-0.3139178418148375	512.0	2.5113427345187	4096.0	0.0	2754.547119140625	24725.0	761.0	-0.30434782608695654	1.202020202020202	-162.0	-0.35329341317365276	-584.0	-5.768387806238573	21.0	-1.6514931138681848	166.0	0.40749376399394466	331.0	
9.371771798496868	1850.0	-0.4351880774276392	2085.0	2.631534511909487	1293.0	9.45677498467198	-15424.0	-0.3531575720416922	576.0	2.5898221949724096	4224.0	0.0	2774.078369140625	25365.0	759.0	-0.30869565217391304	1.2121212121212122	-157.0	-0.37125748502994016	-575.0	-7.831522770541714	11.0	-2.4585103066747345	229.0	0.5802163683898279	465.0	
9.468198049080069	1841.0	-0.4393037392558494	2085.0	2.7408913527367957	1285.0	9.574494175352545	-15616.0	-0.27467811158798283	448.0	2.629061925199264	4288.0	0.0	2793.609619140625	26005.0	757.0	-0.3130434782608696	1.2222222222222223	-152.0	-0.33932135728542917	-591.0	-8.09339909150634	24.0	-2.357412450747818	224.0	0.3851165004207668	482.0	
9.640330936500595	1843.0	-0.320371462813994	2075.0	2.7197056188332507	1271.0	9.692213366033108	-15808.0	-0.15695892090741875	256.0	2.629061925199264	4288.0	0.0	2813.140869140625	26645.0	753.0	-0.32173913043478264	1.2101010101010101	-158.0	-0.3812375249500998	-570.0	-6.624472613359261	106.0	-1.5551910884247413	167.0	-0.8767210533340881	386.0	
9.604607716711726	1846.0	-0.2701565173922001	2071.0	2.683705957776327	1274.0	9.770692826486817	-15936.0	-0.19619865113427343	320.0	2.5898221949724096	4224.0	0.0	2832.672119140625	27285.0	752.0	-0.3239130434782609	1.208080808080808	-159.0	-0.3792415169660679	-571.0	-4.3320183553332186	196.0	0.37898745667280004	31.0	-2.2684668886900137	237.0	
9.677396652834318	1847.0	-0.3201563778792354	2075.0	2.671885655761598	1268.0	9.770692826486817	-15936.0	-0.23543838136112813	384.0	2.5898221949724096	4224.0	0.0	2852.203369140625	27925.0	754.0	-0.31956521739130433	1.204040404040404	-161.0	-0.40319361277445115	-559.0	-2.8668575265276695	249.0	1.8984610062968874	-75.0	-3.089202147168184	142.0	
9.677269505124013	1844.0	-0.2964911901968498	2073.0	2.708265614474572	1268.0	9.809932556713672	-16000.0	-0.11771919068056406	192.0	2.5898221949724096	4224.0	0.0	2871.734619140625	28565.0	760.0	-0.3065217391304348	1.2161616161616162	-155.0	-0.35329341317365276	-584.0	-1.008450348932375	247.0	3.5370145789770926	-193.0	-3.077367967993566	22.0	
9.727011530966807	1849.0	-0.2597131495962274	2070.0	2.6488898512835846	1264.0	9.849172286940528	-16064.0	-0.07847946045370938	128.0	2.5898221949724096	4224.0	0.0	2891.265869140625	29205.0	755.0	-0.3173913043478261	1.2101010101010101	-158.0	-0.3812375249500998	-570.0	1.1377603079397642	244.0	4.780116070777469	-286.0	-3.0532026981364324	-117.0	
9.801494183851355	1852.0	-0.16295318400159303	2062.0	2.6144576991551234	1258.0	9.888412017167381	-16128.0	-0.07847946045370938	128.0	2.550582464745555	4160.0	0.0	2910.797119140625	29845.0	753.0	-0.32173913043478264	1.2161616161616162	-155.0	-0.36526946107784436	-578.0	2.0752393771095523	276.0	5.394005373089159	-330.0	-3.5492695040372553	-178.0	
9.862585134115276	1858.0	-0.22370489747779643	2067.0	2.5421719348964946	1253.0	9.888412017167381	-16128.0	-0.11771919068056406	192.0	2.4328632740649905	3968.0	0.0	2930.328369140625	30485.0	756.0	-0.31521739130434784	1.208080808080808	-159.0	-0.3413173652694611	-590.0	2.083365051689622	309.0	5.173635811795747	-314.0	-4.051251901467467	-179.0	
9.837952225767806	1854.0	-0.19978570808630353	2065.0	2.5903575687912723	1255.0	9.888412017167381	-16128.0	0.0	0.0	2.5113427345187	4096.0	0.0	2949.859619140625	31125.0	758.0	-0.3108695652173913	1.195959595959596	-165.0	-0.38522954091816375	-568.0	2.2539626521168876	280.0	3.375004190975818	-196.0	-3.6118932386884692	-191.0	
9.828075104381393	1864.0	-0.08744292267618756	2056.0	2.470900297720666	1256.0	9.849172286940528	-16064.0	0.07847946045370938	-128.0	2.4328632740649905	3968.0	0.0	2969.390869140625	31765.0	757.0	-0.3130434782608696	1.2141414141414142	-156.0	-0.3413173652694611	-590.0	2.0125589136174082	251.0	1.8149429158189536	-92.0	-3.1684145625202045	-176.0	
9.645442309700273	1863.0	-0.047417343341259105	2053.0	2.481522418338288	1271.0	9.692213366033108	-15808.0	0.15695892090741875	-256.0	2.393623543838136	3904.0	0.0	2988.922119140625	32405.0	755.0	-0.3173913043478261	1.202020202020202	-162.0	-0.3512974051896208	-585.0	1.955541675308518	233.0	0.44364290418358704	-1.0	-2.894080131581983	-173.0	
9.645444468479832	1864.0	-0.05936915468213583	2054.0	2.4693547290415907	1271.0	9.731453096259962	-15872.0	0.15695892090741875	-256.0	2.3543838136112814	3840.0	0.0	3008.453369140625	33045.0	761.0	-0.30434782608695654	1.206060606060606	-160.0	-0.3572854291417166	-582.0	1.242010586415558	210.0	-0.6601180123242965	75.0	-2.5371349347614944	-127.0	
9.53571696373382	1862.0	-0.033249566812244724	2052.0	2.4926150354149983	1280.0	9.53525444512569	-15552.0	0.0	0.0	2.393623543838136	3904.0	0.0	3027.984619140625	33685.0	756.0	-0.31521739130434784	1.1939393939393939	-166.0	-0.4011976047904192	-560.0	0.9740208187245969	130.0	-1.0499552159689405	99.0	-1.3177249990617708	-109.0	
9.535958306477083	1862.0	-0.008869074131755722	2050.0	2.492861253769236	1280.0	9.574494175352545	-15616.0	0.15695892090741875	-256.0	2.3543838136112814	3840.0	0.0	3047.515869140625	34325.0	759.0	-0.30869565217391304	1.208080808080808	-159.0	-0.3612774451097805	-580.0	2.3134319912612615	130.0	-0.6334331061412105	65.0	-1.3311191107871374	-196.0	
9.46269100242708	1863.0	-0.03153382168745186	2052.0	2.479853740482094	1286.0	9.574494175352545	-15616.0	0.03923973022685469	-64.0	2.3151440833844266	3776.0	0.0	3067.047119140625	34965.0	763.0	-0.3	1.2101010101010101	-158.0	-0.3632734530938124	-579.0	2.8778447069896873	91.0	-0.036772301979812766	21.0	-0.7436073444083	-232.0	
9.499267556935605	1864.0	-0.04422428809104112	2053.0	2.468044408592059	1283.0	9.613733905579398	-15680.0	0.07847946045370938	-128.0	2.4328632740649905	3968.0	0.0	3086.578369140625	35605.0	758.0	-0.3108695652173913	1.2161616161616162	-155.0	-0.3632734530938124	-579.0	2.712233959050422	40.0	-0.4910550185884737	50.0	0.03371416231063647	-221.0	
9.461727790233589	1864.0	-0.14100760375028465	2061.0	2.466701177768447	1286.0	9.53525444512569	-15552.0	0.0	0.0	2.393623543838136	3904.0	0.0	3106.109619140625	36245.0	760.0	-0.3065217391304348	1.206060606060606	-160.0	-0.33932135728542917	-591.0	1.5221871613514364	-12.0	-0.574795276190351	59.0	0.8364891550024554	-143.0	
9.583879467847616	1862.0	-0.09518567193041735	2057.0	2.4924772994049547	1276.0	9.613733905579398	-15680.0	0.07847946045370938	-128.0	2.4328632740649905	3968.0	0.0	3125.640869140625	36885.0	763.0	-0.3	1.2101010101010101	-158.0	-0.375249500998004	-573.0	1.4587301936050447	-15.0	-0.8270763300103772	76.0	0.8827511011057747	-139.0	
9.547180083187905	1860.0	-0.08273364052619586	2056.0	2.5163312114145686	1279.0	9.692213366033108	-15808.0	0.15695892090741875	-256.0	2.4721030042918453	4032.0	0.0	3145.172119140625	37525.0	759.0	-0.30869565217391304	1.208080808080808	-159.0	-0.33732534930139724	-592.0	3.682447990566688	101.0	0.7678836733165204	-36.0	-0.9037446319969217	-284.0	
9.413565286119791	1864.0	-0.07907149863211205	2056.0	2.4668389137784907	1290.0	9.496014714898834	-15488.0	0.07847946045370938	-128.0	2.393623543838136	3904.0	0.0	3164.703369140625	38165.0	765.0	-0.2956521739130435	1.204040404040404	-161.0	-0.34530938123752497	-588.0	3.2782922862214825	139.0	0.8341232848095061	-37.0	-1.4776498430143061	-258.0	
9.537180131650302	1869.0	0.029370709884552287	2047.0	2.4089185204635406	1280.0	9.613733905579398	-15680.0	0.15695892090741875	-256.0	2.275904353157572	3712.0	0.0	3184.234619140625	38805.0	762.0	-0.30217391304347824	1.208080808080808	-159.0	-0.37125748502994016	-575.0	2.7791147649459687	114.0	1.1834919972737672	-59.0	-1.0924299309194219	-225.0	
9.439159247881198	1866.0	0.01843490538010456	2048.0	2.4439735318940583	1288.0	9.53525444512569	-15552.0	0.19619865113427343	-320.0	2.393623543838136	3904.0	0.0	3203.765869140625	39445.0	759.0	-0.30869565217391304	1.2202020202020203	-153.0	-0.3552894211576847	-583.0	4.266530317240308	59.0	1.7511554749503728	-106.0	-0.27080218530168065	-321.0	
9.254455610866323	1856.0	-0.0412074010012331	2053.0	2.5620120001709394	1303.0	9.299816063764561	-15168.0	0.15695892090741875	-256.0	2.4328632740649905	3968.0	0.0	3223.297119140625	40085.0	763.0	-0.3	1.206060606060606	-160.0	-0.3413173652694611	-590.0	2.8314981046050534	-4.0	1.5578341570339271	-89.0	0.7017230417676378	-227.0	
9.436118717015276	1855.0	-0.1548513283763642	2062.0	2.574740384729762	1288.0	9.496014714898834	-15488.0	-0.03923973022685469	64.0	2.4721030042918453	4032.0	0.0	3242.828369140625	40725.0	762.0	-0.30217391304347824	1.197979797979798	-164.0	-0.38323353293413176	-569.0	1.4301389610272033	-90.0	2.8474271728864173	-172.0	2.0237214240779413	-134.0	
9.324680225270846	1843.0	-0.179877075861129	2064.0	2.7179540555904818	1297.0	9.37829552421827	-15296.0	-0.15695892090741875	256.0	2.5898221949724096	4224.0	0.0	3262.359619140625	41365.0	763.0	-0.3	1.2141414141414142	-156.0	-0.3672654690618763	-577.0	2.9813922315702097	-83.0	4.60278896515732	-296.0	1.901745013045515	-234.0	
9.517325924166917	1841.0	-0.403717873652066	2082.0	2.7417384901437014	1281.0	9.613733905579398	-15680.0	-0.3139178418148375	512.0	2.629061925199264	4288.0	0.0	3281.890869140625	42005.0	767.0	-0.29130434782608694	1.2101010101010101	-158.0	-0.34530938123752497	-588.0	1.2919455256125791	-102.0	5.728305775403318	-364.0	2.2076128641355095	-123.0	
9.433209651418776	1849.0	-0.37570637249697203	2080.0	2.6447919002590967	1288.0	9.53525444512569	-15552.0	-0.27467811158798283	448.0	2.5898221949724096	4224.0	0.0	3301.422119140625	42645.0	764.0	-0.29782608695652174	1.197979797979798	-164.0	-0.3732534930139721	-574.0	-2.2186942037206463	54.0	3.8936382000524294	-219.0	-0.12990431271564523	103.0	
9.689476081823909	1851.0	-0.3804000879372243	2080.0	2.6232112418665765	1267.0	9.770692826486817	-15936.0	-0.15695892090741875	256.0	2.4721030042918453	4032.0	0.0	3320.953369140625	43285.0	762.0	-0.30217391304347824	1.2181818181818183	-154.0	-0.3493013972055889	-586.0	-3.774914680092002	103.0	0.9582977627736176	-14.0	-0.8595892562409051	202.0	
9.604010836192243	1849.0	-0.3669631831160528	2079.0	2.64658734400064	1274.0	9.692213366033108	-15808.0	-0.19619865113427343	320.0	2.4721030042918453	4032.0	0.0	3340.484619140625	43925.0	767.0	-0.29130434782608694	1.206060606060606	-160.0	-0.3612774451097805	-580.0	-1.9727113456502736	209.0	-1.38150946700346	138.0	-2.4897785899655505	82.0	
9.370649056899698	1833.0	-0.34171950169493553	2077.0	2.8372772473592756	1293.0	9.417535254445125	-15360.0	-0.19619865113427343	320.0	2.7075413856529735	4416.0	0.0	3360.015869140625	44565.0	764.0	-0.29782608695652174	1.204040404040404	-161.0	-0.3692614770459082	-576.0	-3.6008237704747765	172.0	-2.070312542841645	190.0	-1.9107598231317542	188.0	
9.224114448799693	1835.0	-0.3870489968063278	2081.0	2.8112622207849927	1305.0	9.299816063764561	-15168.0	-0.27467811158798283	448.0	2.7467811158798283	4480.0	0.0	3379.547119140625	45205.0	760.0	-0.3065217391304348	1.2141414141414142	-156.0	-0.3572854291417166	-582.0	-6.1337793505793545	207.0	-3.1320963736435457	274.0	-2.4177496589656897	352.0	
9.189628165640949	1852.0	-0.3822569467543629	2081.0	2.6061460013454916	1308.0	9.260576333537706	-15104.0	-0.11771919068056406	192.0	2.5113427345187	4096.0	0.0	3399.078369140625	45845.0	754.0	-0.31956521739130433	1.2	-163.0	-0.38323353293413176	-569.0	-9.231363866808222	202.0	-4.478766706214171	378.0	-2.3107281864269753	553.0	
9.409923557175272	1854.0	-0.3252607754306801	2076.0	2.584822531431903	1290.0	9.53525444512569	-15552.0	-0.19619865113427343	320.0	2.4328632740649905	3968.0	0.0	3418.609619140625	46485.0	758.0	-0.3108695652173913	1.1939393939393939	-166.0	-0.3812375249500998	-570.0	-10.730879263573065	180.0	-4.357799457521337	376.0	-1.9611322720030526	651.0	
9.213043566374317	1851.0	-0.4683195428439173	2088.0	2.617567722163014	1306.0	9.260576333537706	-15104.0	-0.3139178418148375	512.0	2.550582464745555	4160.0	0.0	3438.140869140625	47125.0	757.0	-0.3130434782608696	1.2181818181818183	-154.0	-0.33333333333333337	-594.0	-10.380963283148624	245.0	-5.2121751009144415	434.0	-2.953224587700833	627.0	
9.05384344266303	1857.0	-0.6099710503255569	2100.0	2.5422700492245784	1319.0	9.103617412630287	-14848.0	-0.4316370324954016	704.0	2.4328632740649905	3968.0	0.0	3457.672119140625	47765.0	757.0	-0.3130434782608696	1.2161616161616162	-155.0	-0.33133732534930144	-595.0	-13.942923533874405	289.0	-3.1383941568523124	314.0	-3.586806506106123	860.0	
9.443858294185258	1861.0	-0.6778475293649089	2105.0	2.49729866186507	1287.0	9.53525444512569	-15552.0	-0.510116492949111	832.0	2.393623543838136	3904.0	0.0	3477.203369140625	48405.0	758.0	-0.3108695652173913	1.202020202020202	-162.0	-0.3632734530938124	-579.0	-15.845120995920627	275.0	-1.7251630014212247	228.0	-3.3548567748316684	985.0	
9.451543901866282	1842.0	-0.9020484468315355	2123.0	2.7240491714178168	1286.0	9.496014714898834	-15488.0	-0.745554874310239	1216.0	2.629061925199264	4288.0	0.0	3496.734619140625	49045.0	751.0	-0.32608695652173914	1.2141414141414142	-156.0	-0.3353293413173653	-593.0	-10.421584235137374	264.0	1.758732791835627	-30.0	-3.241791762211364	634.0	
8.927308737638231	1841.0	-0.8795092462584455	2122.0	2.731080404552351	1329.0	8.985898221949723	-14656.0	-0.7847946045370937	1280.0	2.6683016554261187	4352.0	0.0	3516.265869140625	49685.0	750.0	-0.3282608695652174	1.202020202020202	-162.0	-0.33932135728542917	-591.0	-5.020736944618025	374.0	3.2788394297780994	-152.0	-4.968804037397926	282.0	
9.02595888362019	1856.0	-0.951043946143296	2128.0	2.5506286674470573	1321.0	9.064377682403434	-14784.0	-0.7847946045370937	1280.0	2.5113427345187	4096.0	0.0	3535.797119140625	50325.0	750.0	-0.3282608695652174	1.206060606060606	-160.0	-0.3632734530938124	-579.0	-8.082286931831774	428.0	6.433320747051224	-346.0	-5.759481313191189	483.0	
10.07331078803824	1843.0	-0.9265573942385255	2124.0	2.717973558034382	1235.0	10.163090128755364	-16576.0	-0.745554874310239	1216.0	2.6683016554261187	4352.0	0.0	3555.328369140625	50965.0	747.0	-0.3347826086956522	1.206060606060606	-160.0	-0.3552894211576847	-583.0	-13.406425828176644	320.0	12.615238861448962	-738.0	-4.0636543728969405	835.0	
10.020648902701158	1827.0	-1.124431422255372	2140.0	2.908239283238192	1239.0	10.123850398528509	-16512.0	-0.9809932556713672	1600.0	2.7467811158798283	4480.0	0.0	3574.859619140625	51605.0	746.0	-0.33695652173913043	1.197979797979798	-164.0	-0.3493013972055889	-586.0	-3.5899177179392425	324.0	18.21630242751725	-1157.0	-4.222655955900456	199.0	
9.793402725613385	1849.0	-0.943844254775345	2126.0	2.642712452178259	1258.0	9.888412017167381	-16128.0	-0.7847946045370937	1280.0	2.5898221949724096	4224.0	0.0	3594.390869140625	52245.0	745.0	-0.3391304347826087	1.197979797979798	-164.0	-0.38323353293413176	-569.0	5.42947781612972	590.0	20.224140711843866	-1322.0	-8.358477287667002	-390.0	
9.821903594191733	1856.0	-0.6135309953016437	2099.0	2.5619632440611895	1256.0	10.0453709380748	-16384.0	-0.39239730226854685	640.0	2.5113427345187	4096.0	0.0	3613.922119140625	52885.0	746.0	-0.33695652173913043	1.1777777777777778	-174.0	-0.3632734530938124	-579.0	1.1229784683865895	688.0	19.264152508474822	-1234.0	-9.805906590767517	-111.0	
9.89588845013285	1852.0	-0.4818693356818503	2088.0	2.612212480301136	1250.0	10.0453709380748	-16384.0	-0.47087676272225626	768.0	2.5113427345187	4096.0	0.0	3633.453369140625	53525.0	742.0	-0.3456521739130435	1.195959595959596	-165.0	-0.40319361277445115	-559.0	-2.6559850649089696	841.0	15.107504590115031	-933.0	-12.095113153153191	131.0	
9.885793732578316	1873.0	-0.5253769677018674	2092.0	2.358664408612619	1251.0	9.966891477621092	-16256.0	-0.3139178418148375	512.0	2.393623543838136	3904.0	0.0	3652.984619140625	54165.0	747.0	-0.3347826086956522	1.195959595959596	-165.0	-0.38522954091816375	-568.0	-1.6308464114020567	1040.0	11.678958709049004	-701.0	-15.131980509270013	60.0	
9.901245483634904	1874.0	-0.2084383462103799	2066.0	2.349940119567016	1250.0	10.006131207847945	-16320.0	-0.07847946045370938	128.0	2.3151440833844266	3776.0	0.0	3672.515869140625	54805.0	745.0	-0.3391304347826087	1.1797979797979798	-173.0	-0.38323353293413176	-569.0	3.118738263751263	1056.0	11.103248892244373	-684.0	-15.422822363626107	-250.0	
9.488806507707059	1883.0	-0.10039903645003825	2058.0	2.2384623879655816	1284.0	9.574494175352545	-15616.0	0.11771919068056406	-192.0	2.0797057020232983	3392.0	0.0	3692.047119140625	55445.0	745.0	-0.3391304347826087	1.1898989898989898	-168.0	-0.3952095808383234	-563.0	9.052243485184439	1066.0	10.65138306777836	-681.0	-15.63424867059329	-637.0	
9.259013279137683	1899.0	-0.10409617406988537	2059.0	2.04335639996634	1303.0	9.299816063764561	-15168.0	0.07847946045370938	-128.0	1.9227467811158798	3136.0	0.0	3711.578369140625	56085.0	751.0	-0.32608695652173914	1.1898989898989898	-168.0	-0.3932135728542915	-564.0	8.783387001444897	1080.0	8.534684553330784	-538.0	-15.844487862409888	-621.0	
9.479433659602753	1903.0	-0.058813379087711476	2055.0	1.9978206606364752	1285.0	9.574494175352545	-15616.0	0.0	0.0	1.883507050889025	3072.0	0.0	3731.109619140625	56725.0	745.0	-0.3391304347826087	1.202020202020202	-162.0	-0.4011976047904192	-560.0	1.035016547767646	915.0	6.244955226610918	-356.0	-13.257498454451062	-116.0	
9.637948613116299	1915.0	-0.2054359537833198	2067.0	1.8533612711716425	1272.0	9.731453096259962	-15872.0	-0.07847946045370938	128.0	1.765787860208461	2880.0	0.0	3750.640869140625	57365.0	747.0	-0.3347826086956522	1.187878787878788	-169.0	-0.3812375249500998	-570.0	0.4531120407956021	839.0	5.2197297839787415	-288.0	-12.095785873259668	-78.0	
9.529057172853475	1909.0	-0.046177396168210316	2054.0	1.9261540989716714	1281.0	9.652973635806253	-15744.0	0.11771919068056406	-192.0	1.765787860208461	2880.0	0.0	3770.172119140625	58005.0	745.0	-0.3391304347826087	1.1797979797979798	-173.0	-0.4131736526946108	-554.0	3.0081126333113555	781.0	5.066586586629487	-292.0	-11.239206601618287	-244.0	
9.517466905689083	1908.0	0.026971865228126446	2048.0	1.9388178816850752	1282.0	9.53525444512569	-15552.0	0.19619865113427343	-320.0	1.8442673206621703	3008.0	0.0	3789.703369140625	58645.0	747.0	-0.3347826086956522	1.195959595959596	-165.0	-0.375249500998004	-573.0	3.286103431124131	737.0	4.570695253821439	-262.0	-10.572784988683866	-262.0	
9.774828013557132	1914.0	0.08418312148656792	2043.0	1.869674448699834	1261.0	9.849172286940528	-16064.0	0.23543838136112813	-384.0	1.7265481299816063	2816.0	0.0	3809.234619140625	59285.0	752.0	-0.3239130434782609	1.197979797979798	-164.0	-0.3692614770459082	-576.0	1.0185687536585732	684.0	4.156542186432903	-226.0	-9.744025991719095	-114.0	
9.628534748200389	1916.0	0.06323411905566462	2045.0	1.8439056404797889	1273.0	9.770692826486817	-15936.0	0.19619865113427343	-320.0	1.8050275904353157	2944.0	0.0	3828.765869140625	59925.0	746.0	-0.33695652173913043	1.1898989898989898	-168.0	-0.4191616766467066	-551.0	1.2263614518690538	575.0	3.3261428401589135	-176.0	-8.088309241895118	-127.0	
9.469916393551676	1912.0	0.10205195668401473	2042.0	1.8909004063939228	1286.0	9.574494175352545	-15616.0	0.3139178418148375	-512.0	1.7265481299816063	2816.0	0.0	3848.297119140625	60565.0	748.0	-0.33260869565217394	1.2	-163.0	-0.38323353293413176	-569.0	2.268742957214329	539.0	1.1177489182167148	-35.0	-7.551204539838303	-196.0	
9.530994391138249	1912.0	0.11301111125307162	2041.0	1.891620777915479	1281.0	9.574494175352545	-15616.0	0.27467811158798283	-448.0	1.8050275904353157	2944.0	0.0	3867.828369140625	61205.0	750.0	-0.3282608695652174	1.183838383838384	-171.0	-0.37125748502994016	-575.0	-0.7528016338270314	422.0	-0.46726821650562367	80.0	-5.741521413319526	1.0	
9.553422833102985	1901.0	0.04894465785032842	2046.0	2.0237345182830264	1279.0	9.574494175352545	-15616.0	0.23543838136112813	-384.0	1.9619865113427344	3200.0	0.0	3887.359619140625	61845.0	749.0	-0.33043478260869563	1.187878787878788	-169.0	-0.40918163672654695	-556.0	-3.466837905792253	310.0	-1.920721067659345	185.0	-4.010958997367934	178.0	
9.492465506888044	1901.0	0.050175749621516	2046.0	2.023137255938589	1284.0	9.574494175352545	-15616.0	0.15695892090741875	-256.0	1.883507050889025	3072.0	0.0	3906.890869140625	62485.0	745.0	-0.3391304347826087	1.204040404040404	-161.0	-0.3992015968063873	-561.0	-3.1884211765059973	260.0	-2.4652697466563946	218.0	-3.2532868908965376	160.0	
9.577066623902265	1894.0	0.05897342248652343	2045.0	2.1084085932349717	1277.0	9.613733905579398	-15680.0	0.23543838136112813	-384.0	2.040465971796444	3328.0	0.0	3926.422119140625	63125.0	746.0	-0.33695652173913043	1.1797979797979798	-173.0	-0.40918163672654695	-556.0	-1.7447107803532906	220.0	-1.4356638023833823	141.0	-2.6593589758466574	67.0	
9.552664264400267	1885.0	0.16703216126288895	2036.0	2.2176788919674744	1279.0	9.613733905579398	-15680.0	0.39239730226854685	-640.0	2.040465971796444	3328.0	0.0	3945.953369140625	63765.0	744.0	-0.341304347826087	1.1777777777777778	-174.0	-0.3992015968063873	-561.0	-0.9029203564146006	210.0	-0.2859432624814283	60.0	-2.5156856253331927	13.0	
9.588277606715296	1887.0	0.0448679127964669	2046.0	2.1927169973637914	1276.0	9.652973635806253	-15744.0	0.27467811158798283	-448.0	2.0797057020232983	3392.0	0.0	3965.484619140625	64405.0	747.0	-0.3347826086956522	1.197979797979798	-164.0	-0.37125748502994016	-575.0	-1.5665071979298413	111.0	0.9144070484041039	-21.0	-1.0033463348648082	58.0	
9.660463185979735	1888.0	-0.06608317939179101	2055.0	2.180281149463469	1270.0	9.731453096259962	-15872.0	0.19619865113427343	-320.0	2.118945432250153	3456.0	0.0	3985.015869140625	65045.0	743.0	-0.34347826086956523	1.202020202020202	-162.0	-0.38323353293413176	-569.0	-1.3972440582710235	38.0	1.3829533186804253	-56.0	0.10522719343442127	48.0	
9.709218253053898	1883.0	-0.007308996104357451	2050.0	2.2415974058225063	1266.0	9.770692826486817	-15936.0	0.11771919068056406	-192.0	2.158185162477008	3520.0	0.0	4004.547119140625	149.0	747.0	-0.3347826086956522	1.1919191919191918	-167.0	-0.407185628742515	-557.0	0.46005682576437523	-17.0	2.104782822245364	-115.0	0.9231560857347517	-72.0	
9.538057212945095	1884.0	-0.064574735846887	2055.0	2.227264945252909	1280.0	9.613733905579398	-15680.0	0.07847946045370938	-128.0	2.0797057020232983	3392.0	0.0	4024.078369140625	789.0	744.0	-0.341304347826087	1.197979797979798	-164.0	-0.3792415169660679	-571.0	1.016395685989468	-52.0	1.954813839419543	-109.0	1.449912088767482	-108.0	
9.573174917096253	1880.0	-0.1637891016290267	2063.0	2.274816749720937	1277.0	9.652973635806253	-15744.0	0.07847946045370938	-128.0	2.1974248927038627	3584.0	0.0	4043.609619140625	1429.0	747.0	-0.3347826086956522	1.1777777777777778	-174.0	-0.39720558882235535	-562.0	-0.8703521328138143	-90.0	1.4783059707089066	-70.0	2.046726335016351	15.0	
9.56025726484392	1879.0	-0.22473254997537953	2068.0	2.286126331486034	1278.0	9.574494175352545	-15616.0	-0.11771919068056406	192.0	2.1974248927038627	3584.0	0.0	4063.140869140625	2069.0	748.0	-0.33260869565217394	1.1898989898989898	-168.0	-0.40918163672654695	-556.0	-0.7841931476852819	-119.0	1.9794043509770376	-105.0	2.4869293839483357	10.0	
9.681930574530538	1879.0	-0.25157522619824374	2070.0	2.2870746378206714	1268.0	9.731453096259962	-15872.0	-0.03923973022685469	64.0	2.158185162477008	3520.0	0.0	4082.672119140625	2709.0	744.0	-0.341304347826087	1.1898989898989898	-168.0	-0.3992015968063873	-561.0	0.4306765631748489	-155.0	3.2072811119999702	-194.0	3.022309203950001	-68.0	
9.694365541296348	1880.0	-0.23939276321286893	2069.0	2.275272619347099	1267.0	9.731453096259962	-15872.0	-0.07847946045370938	128.0	2.118945432250153	3456.0	0.0	4102.203369140625	3349.0	748.0	-0.33260869565217394	1.187878787878788	-169.0	-0.38522954091816375	-568.0	1.853087994513762	-149.0	4.341316773839177	-276.0	2.916830336784901	-160.0	
9.560397365231573	1888.0	-0.3201086057030255	2076.0	2.176740236992875	1278.0	9.574494175352545	-15616.0	-0.15695892090741875	256.0	2.0797057020232983	3392.0	0.0	4121.734619140625	3989.0	746.0	-0.33695652173913043	1.1919191919191918	-167.0	-0.4051896207584831	-558.0	2.0847749898556827	-153.0	4.427705425124215	-283.0	2.9753499687326226	-175.0	
9.694137151230434	1886.0	-0.33548412393861826	2077.0	2.2020202652126764	1267.0	9.809932556713672	-16000.0	-0.15695892090741875	256.0	2.1974248927038627	3584.0	0.0	4141.265869140625	4629.0	746.0	-0.33695652173913043	1.197979797979798	-164.0	-0.37724550898203596	-572.0	0.6710131512856535	-169.0	4.006624281348225	-249.0	3.2328335947228855	-83.0	
9.706815619519062	1888.0	-0.3108729796136312	2075.0	2.178296775796644	1266.0	9.849172286940528	-16064.0	-0.11771919068056406	192.0	2.0797057020232983	3392.0	0.0	4160.797119140625	5269.0	749.0	-0.33043478260869563	1.1939393939393939	-166.0	-0.3792415169660679	-571.0	0.39593328729175686	-123.0	3.289136939602302	-198.0	2.5359646214997063	-66.0	
9.657694220770892	1891.0	-0.3823142792400448	2081.0	2.140946570499645	1270.0	9.731453096259962	-15872.0	-0.27467811158798283	448.0	2.040465971796444	3328.0	0.0	4180.328369140625	5909.0	741.0	-0.34782608695652173	1.1656565656565656	-180.0	-0.4171656686626747	-552.0	-0.4199455068159218	-167.0	2.3746263067037607	-135.0	3.213324930353331	-13.0	
9.742538839307935	1885.0	-0.36108792503542514	2079.0	2.2142964368535676	1263.0	9.809932556713672	-16000.0	-0.11771919068056406	192.0	2.0797057020232983	3392.0	0.0	4199.859619140625	6549.0	745.0	-0.3391304347826087	1.195959595959596	-165.0	-0.3992015968063873	-561.0	-1.1699078114301227	-192.0	2.201719505155861	-121.0	3.6010526902816014	36.0	
9.717780942029716	1879.0	-0.3254553593024233	2076.0	2.2866943401646216	1265.0	9.849172286940528	-16064.0	-0.23543838136112813	384.0	2.158185162477008	3520.0	0.0	4219.390869140625	7189.0	751.0	-0.32608695652173914	1.1737373737373737	-176.0	-0.38323353293413176	-569.0	0.3501711837610668	-198.0	3.7114622217740867	-229.0	3.677106653181401	-62.0	
9.633906012024838	1887.0	-0.2730633654668404	2072.0	2.189993968634254	1272.0	9.731453096259962	-15872.0	-0.03923973022685469	64.0	2.1974248927038627	3584.0	0.0	4238.922119140625	7829.0	747.0	-0.3347826086956522	1.185858585858586	-170.0	-0.4211576846307386	-550.0	1.2185858471083097	-171.0	5.016771754049761	-319.0	3.257776118715229	-118.0	
9.570020191197374	1872.0	-0.38512101574837015	2081.0	2.368957425489429	1277.0	9.731453096259962	-15872.0	-0.15695892090741875	256.0	2.3151440833844266	3776.0	0.0	4258.453369140625	8469.0	747.0	-0.3347826086956522	1.195959595959596	-165.0	-0.40918163672654695	-556.0	-0.14345284199789338	-182.0	5.23981016533556	-328.0	3.438696885834428	-29.0	
9.679284439472882	1883.0	-0.5675678910471298	2096.0	2.2356954787372687	1268.0	9.770692826486817	-15936.0	-0.3531575720416922	576.0	2.118945432250153	3456.0	0.0	4277.984619140625	9109.0	750.0	-0.3282608695652174	1.1939393939393939	-166.0	-0.4051896207584831	-558.0	-0.4774004946236974	-153.0	4.516077816355224	-277.0	3.000971723577416	-8.0	
9.788871843831238	1876.0	-0.4983114231893748	2090.0	2.3218212668570204	1259.0	9.849172286940528	-16064.0	-0.3531575720416922	576.0	2.2366646229307174	3648.0	0.0	4297.515869140625	9749.0	747.0	-0.3347826086956522	1.1757575757575758	-175.0	-0.4131736526946108	-554.0	1.3417183472037943	-136.0	5.584217146389173	-356.0	2.724225402079293	-126.0	
9.84057267575439	1894.0	-0.4218629885762377	2084.0	2.1062352896428655	1255.0	9.927651747394236	-16192.0	-0.27467811158798283	448.0	2.040465971796444	3328.0	0.0	4317.047119140625	10389.0	747.0	-0.3347826086956522	1.187878787878788	-169.0	-0.39121756487025955	-565.0	2.763112194960625	2.0	5.554250003460746	-355.0	0.6111521480123709	-220.0	
9.852880494809893	1892.0	-0.3860153379084773	2081.0	2.1308132298822664	1254.0	9.966891477621092	-16256.0	-0.19619865113427343	320.0	2.040465971796444	3328.0	0.0	4336.578369140625	11029.0	755.0	-0.3173913043478261	1.1919191919191918	-167.0	-0.39121756487025955	-565.0	2.502545787120282	91.0	3.872406973607715	-238.0	-0.739854355209606	-205.0	
9.768751269384405	1894.0	-0.28629296870812304	2073.0	2.1068727757778465	1261.0	9.888412017167381	-16128.0	-0.11771919068056406	192.0	2.040465971796444	3328.0	0.0	4356.109619140625	11669.0	748.0	-0.33260869565217394	1.1777777777777778	-174.0	-0.43512974051896214	-543.0	2.7757101657338215	201.0	2.1661919464167334	-121.0	-2.41558980127711	-225.0	
9.697546172549924	1900.0	-0.16148258518404618	2063.0	2.0351196720182365	1267.0	9.849172286940528	-16064.0	0.0	0.0	1.9619865113427344	3200.0	0.0	4375.640869140625	12309.0	749.0	-0.33043478260869563	1.1818181818181819	-172.0	-0.44710578842315374	-537.0	3.1278458328194687	259.0	1.427343287683937	-71.0	-3.3012404355145066	-249.0	
9.625248557032089	1903.0	-0.11052898469953969	2059.0	1.9987616535546502	1273.0	9.770692826486817	-15936.0	-0.03923973022685469	64.0	1.883507050889025	3072.0	0.0	4395.172119140625	12949.0	750.0	-0.3282608695652174	1.1777777777777778	-174.0	-0.4131736526946108	-554.0	2.9314777218389088	287.0	0.6334570225935768	-16.0	-3.725132267712686	-237.0	
9.589040492977134	1905.0	-0.09712321329784707	2058.0	1.9744372450859489	1276.0	9.770692826486817	-15936.0	0.07847946045370938	-128.0	1.883507050889025	3072.0	0.0	4414.703369140625	13589.0	750.0	-0.3282608695652174	1.1777777777777778	-174.0	-0.42914171656686634	-546.0	1.9146054758279374	252.0	-0.2915741883776446	49.0	-3.1826441536175953	-171.0	
9.564664038829832	1908.0	-0.13248621061200216	2061.0	1.9376952722580814	1278.0	9.770692826486817	-15936.0	0.07847946045370938	-128.0	1.8050275904353157	2944.0	0.0	4434.234619140625	14229.0	756.0	-0.31521739130434784	1.197979797979798	-164.0	-0.3872255489021957	-567.0	1.3345730103860618	195.0	-0.8406033735471998	86.0	-2.309923676871922	-133.0	
9.577096846816081	1908.0	-0.1083519362857507	2059.0	1.9380609430812064	1277.0	9.652973635806253	-15744.0	0.07847946045370938	-128.0	1.765787860208461	2880.0	0.0	4453.765869140625	14869.0	752.0	-0.3239130434782609	1.183838383838384	-171.0	-0.3952095808383234	-563.0	0.9850173509981754	131.0	-1.4699023145436962	127.0	-1.3330440898597917	-110.0	
9.466151834455967	1901.0	-0.1443757551139211	2062.0	2.020928604166914	1286.0	9.574494175352545	-15616.0	0.03923973022685469	-64.0	1.9227467811158798	3136.0	0.0	4473.297119140625	15509.0	753.0	-0.32173913043478264	1.1717171717171717	-177.0	-0.42514970059880247	-548.0	0.6012706670900148	87.0	-2.144624274845857	172.0	-0.6600051021081625	-85.0	
9.453113510832003	1900.0	-0.2175094498005184	2068.0	2.032115076754893	1287.0	9.53525444512569	-15552.0	0.0	0.0	2.001226241569589	3264.0	0.0	4492.828369140625	16149.0	749.0	-0.33043478260869563	1.1757575757575758	-175.0	-0.44311377245508987	-539.0	-0.6399833193055088	47.0	-2.562327718093215	204.0	-0.039227543232800435	-4.0	
9.403143094923294	1901.0	-0.35037885112689016	2079.0	2.0182384858114575	1291.0	9.45677498467198	-15424.0	-0.15695892090741875	256.0	1.883507050889025	3072.0	0.0	4512.359619140625	16789.0	752.0	-0.3239130434782609	1.185858585858586	-170.0	-0.39121756487025955	-565.0	-1.8808398361888385	32.0	-2.560052098543936	209.0	0.20131790406531044	77.0	
9.54943420150048	1898.0	-0.31747803735511015	2076.0	2.0561749833282	1279.0	9.652973635806253	-15744.0	-0.11771919068056406	192.0	1.9227467811158798	3136.0	0.0	4531.890869140625	17429.0	749.0	-0.33043478260869563	1.183838383838384	-171.0	-0.4131736526946108	-554.0	-1.9526800943525302	45.0	-1.872480602662928	164.0	0.004317675468240131	82.0	
9.45163739023817	1887.0	-0.2084188584520551	2067.0	2.1888177274865352	1287.0	9.496014714898834	-15488.0	-0.11771919068056406	192.0	2.158185162477008	3520.0	0.0	4551.422119140625	18069.0	747.0	-0.3347826086956522	1.195959595959596	-165.0	-0.40319361277445115	-559.0	-0.5475933291496982	79.0	-0.5103098710545674	68.0	-0.5268434583434841	-9.0	
9.40421186703151	1893.0	-0.1450521433376758	2062.0	2.1166879827791063	1291.0	9.45677498467198	-15424.0	-0.03923973022685469	64.0	2.040465971796444	3328.0	0.0	4570.953369140625	18709.0	751.0	-0.32608695652173914	1.1818181818181819	-172.0	-0.4111776447105789	-555.0	0.5246599056214697	197.0	1.0760537733500546	-38.0	-2.332242796774846	-79.0	
9.538322302263499	1895.0	-0.17166416791604192	2064.0	2.093666581343474	1280.0	9.574494175352545	-15616.0	-0.07847946045370938	128.0	2.001226241569589	3264.0	0.0	4590.484619140625	19349.0	752.0	-0.3239130434782609	1.183838383838384	-171.0	-0.439121756487026	-541.0	-0.11276896165863132	231.0	2.3105185255129608	-116.0	-2.842978774261741	-37.0	
9.599641642593333	1895.0	-0.13632452066649597	2061.0	2.094633171219268	1275.0	9.809932556713672	-16000.0	-0.03923973022685469	64.0	1.9619865113427344	3200.0	0.0	4610.015869140625	19989.0	748.0	-0.33260869565217394	1.1919191919191918	-167.0	-0.38522954091816375	-568.0	-0.25678325668282387	210.0	2.937451412468694	-158.0	-2.5221469963305103	-27.0	
9.539416979726413	1899.0	-0.10975919621734821	2059.0	2.046103806750753	1280.0	9.613733905579398	-15680.0	0.03923973022685469	-64.0	2.001226241569589	3264.0	0.0	4629.547119140625	20629.0	745.0	-0.3391304347826087	1.1818181818181819	-172.0	-0.43712574850299407	-542.0	1.237583009757753	194.0	3.2584922887158996	-187.0	-2.293744651390353	-124.0	
9.587939339175545	1898.0	-0.12317275097391056	2060.0	2.058503087568763	1276.0	9.731453096259962	-15872.0	0.15695892090741875	-256.0	1.9619865113427344	3200.0	0.0	4649.078369140625	21269.0	750.0	-0.3282608695652174	1.183838383838384	-171.0	-0.43712574850299407	-542.0	-0.750322025345208	195.0	2.467923611794269	-125.0	-2.289074726514609	5.0	
9.624384428414645	1894.0	-0.08829440701336075	2057.0	2.1074090929850966	1273.0	9.731453096259962	-15872.0	0.03923973022685469	-64.0	2.040465971796444	3328.0	0.0	4668.609619140625	21909.0	750.0	-0.3282608695652174	1.197979797979798	-164.0	-0.38522954091816375	-568.0	-1.7714720959351562	177.0	1.373622297759427	-48.0	-2.0050989672535766	71.0	
9.586838185373956	1891.0	-0.1492222886499741	2062.0	2.1425689300515764	1276.0	9.692213366033108	-15808.0	0.03923973022685469	-64.0	2.040465971796444	3328.0	0.0	4688.140869140625	22549.0	753.0	-0.32173913043478264	1.183838383838384	-171.0	-0.3892215568862276	-566.0	-1.2134971149486513	139.0	1.3416543758565846	-50.0	-1.4327319490026047	35.0	
9.501750065314091	1896.0	-0.18287732419420608	2065.0	2.081140534640114	1283.0	9.574494175352545	-15616.0	-0.11771919068056406	192.0	1.9619865113427344	3200.0	0.0	4707.672119140625	23189.0	749.0	-0.33043478260869563	1.1818181818181819	-172.0	-0.4191616766467066	-551.0	0.0853206559671986	107.0	1.8164966245693879	-89.0	-0.9590281115026378	-49.0	
9.635364862382204	1892.0	-0.1865394660882899	2065.0	2.130632832276192	1272.0	9.731453096259962	-15872.0	0.0	0.0	1.9619865113427344	3200.0	0.0	4727.203369140625	23829.0	747.0	-0.3347826086956522	1.187878787878788	-169.0	-0.4051896207584831	-558.0	-1.392576592814097	44.0	1.941001291879351	-93.0	0.01392576592814097	48.0	
9.756676157953931	1892.0	-0.2499528813318876	2070.0	2.131211811079473	1262.0	9.849172286940528	-16064.0	-0.03923973022685469	64.0	1.9619865113427344	3200.0	0.0	4746.734619140625	24469.0	752.0	-0.3239130434782609	1.1757575757575758	-175.0	-0.3872255489021957	-567.0	-1.4150387751103584	99.0	2.065979758301554	-99.0	-0.8223515133895808	49.0	
9.64731498488193	1892.0	-0.21116617712301644	2067.0	2.1305060663908417	1271.0	9.652973635806253	-15744.0	0.0	0.0	2.001226241569589	3264.0	0.0	4766.265869140625	25109.0	752.0	-0.3239130434782609	1.1757575757575758	-175.0	-0.4271457085828344	-547.0	0.8041222190152084	199.0	2.961867902387867	-165.0	-2.3654556708593537	-96.0	
9.660607603926508	1899.0	-0.1853628578011904	2065.0	2.046559676376915	1270.0	9.770692826486817	-15936.0	-0.07847946045370938	128.0	1.9619865113427344	3200.0	0.0	4785.797119140625	25749.0	750.0	-0.3282608695652174	1.1939393939393939	-166.0	-0.3952095808383234	-563.0	0.8072044498333099	221.0	3.6047225669624674	-207.0	-2.7000872536238085	-96.0	
9.53954196865716	1901.0	-0.12147257255885716	2060.0	2.0218915373344766	1280.0	9.652973635806253	-15744.0	0.0	0.0	1.9619865113427344	3200.0	0.0	4805.328369140625	26389.0	748.0	-0.33260869565217394	1.1898989898989898	-168.0	-0.4111776447105789	-555.0	-1.081295128410788	233.0	3.713477510340142	-205.0	-2.86371176354479	27.0	
9.893350914903989	1908.0	-0.18789509153739312	2065.0	1.9404280522095692	1251.0	10.006131207847945	-16320.0	-0.03923973022685469	64.0	1.8050275904353157	2944.0	0.0	4824.859619140625	27029.0	747.0	-0.3347826086956522	1.185858585858586	-170.0	-0.4191616766467066	-551.0	-0.6823511834638009	141.0	3.839636482496545	-219.0	-1.4684616592680237	2.0	
9.72267687784083	1911.0	-0.22030346860069808	2068.0	1.9022526497550514	1265.0	9.809932556713672	-16000.0	-0.11771919068056406	192.0	1.765787860208461	2880.0	0.0	4844.390869140625	27669.0	747.0	-0.3347826086956522	1.183838383838384	-171.0	-0.39121756487025955	-565.0	-0.2112948977761168	91.0	2.6070174217082887	-141.0	-0.712715948360642	-29.0	
9.712202875934935	1924.0	-0.20476734891443482	2067.0	1.7456767649087588	1266.0	9.849172286940528	-16064.0	-0.07847946045370938	128.0	1.6088289393010422	2624.0	0.0	4863.922119140625	28309.0	743.0	-0.34347826086956523	1.1696969696969697	-178.0	-0.439121756487026	-541.0	-1.6746345711740847	44.0	1.360932377248169	-53.0	0.016746345711740846	66.0	
9.698664596587978	1915.0	-0.2310475382349964	2069.0	1.8537123151618426	1267.0	9.809932556713672	-16000.0	-0.07847946045370938	128.0	1.7265481299816063	2816.0	0.0	4883.453369140625	28949.0	747.0	-0.3347826086956522	1.1616161616161615	-182.0	-0.4191616766467066	-551.0	-2.0065984579074385	44.0	0.39453181638849866	13.0	0.020065984579074384	87.0	
9.686701521410903	1909.0	-0.13470995915500958	2061.0	1.9268452168273775	1268.0	9.770692826486817	-15936.0	-0.03923973022685469	64.0	1.8050275904353157	2944.0	0.0	4902.984619140625	29589.0	745.0	-0.3391304347826087	1.1939393939393939	-166.0	-0.4111776447105789	-555.0	0.6180049253594486	52.0	0.5315689197758592	-8.0	-0.12785305305587588	-84.0	
9.576118523165682	1902.0	-0.1341630389624464	2061.0	2.0100822054444416	1277.0	9.652973635806253	-15744.0	0.11771919068056406	-192.0	1.883507050889025	3072.0	0.0	4922.515869140625	30229.0	749.0	-0.33043478260869563	1.1777777777777778	-174.0	-0.4271457085828344	-547.0	1.0138292871513728	5.0	1.0301490269822648	-45.0	0.583017600664608	-109.0	
9.66219144321462	1906.0	-0.11055233476414887	2059.0	1.9629862706025765	1270.0	9.809932556713672	-16000.0	0.07847946045370938	-128.0	1.9227467811158798	3136.0	0.0	4942.047119140625	30869.0	751.0	-0.32608695652173914	1.1818181818181819	-172.0	-0.4331337325349302	-544.0	-0.023088548109835676	-32.0	1.1397790176055265	-49.0	1.1561244216027713	-41.0	
9.710952986627458	1904.0	-0.0876335854993455	2057.0	1.9877994590715216	1266.0	9.809932556713672	-16000.0	0.03923973022685469	-64.0	1.8050275904353157	2944.0	0.0	4961.578369140625	31509.0	749.0	-0.33043478260869563	1.1919191919191918	-167.0	-0.3932135728542915	-564.0	-0.3909420804115476	-87.0	0.3523113525055497	3.0	1.996304858066473	-17.0	
9.686089529434515	1905.0	-0.14785394549272524	2062.0	1.9749004281285738	1268.0	9.770692826486817	-15936.0	0.11771919068056406	-192.0	1.8050275904353157	2944.0	0.0	4981.109619140625	32149.0	745.0	-0.3391304347826087	1.1797979797979798	-173.0	-0.407185628742515	-557.0	-0.4567596502355418	-119.0	-0.5771181538787474	64.0	2.4836550489738385	-13.0	
9.623554840270135	1901.0	-0.25728881078120935	2071.0	2.0213735036683826	1273.0	9.692213366033108	-15808.0	-0.03923973022685469	64.0	1.883507050889025	3072.0	0.0	5000.640869140625	32789.0	746.0	-0.33695652173913043	1.187878787878788	-169.0	-0.4191616766467066	-551.0	-1.313690153715923	-159.0	-0.9316154890482435	90.0	3.100589373020049	43.0	
9.63587129444387	1903.0	-0.2692484054769558	2072.0	1.9972806867209938	1272.0	9.652973635806253	-15744.0	-0.11771919068056406	192.0	1.9619865113427344	3200.0	0.0	5020.172119140625	33429.0	750.0	-0.3282608695652174	1.1676767676767676	-179.0	-0.407185628742515	-557.0	-1.2086655158295407	-143.0	-0.9291913635409532	90.0	2.856193119036622	36.0	
9.598562076587328	1898.0	-0.2818921717513267	2073.0	2.0570221207351063	1275.0	9.731453096259962	-15872.0	-0.11771919068056406	192.0	1.9619865113427344	3200.0	0.0	5039.703369140625	34069.0	749.0	-0.33043478260869563	1.1818181818181819	-172.0	-0.38522954091816375	-568.0	-0.8437365799196151	-108.0	-0.7383950930892476	77.0	2.3202244380425423	12.0	
9.646595274211258	1894.0	-0.3082112778462369	2075.0	2.105432032734734	1271.0	9.652973635806253	-15744.0	-0.07847946045370938	128.0	1.9619865113427344	3200.0	0.0	5059.234619140625	34709.0	749.0	-0.33043478260869563	1.1797979797979798	-173.0	-0.4271457085828344	-547.0	-0.9368238550330824	-74.0	-0.3214267106436881	51.0	1.804045044633981	18.0	
9.525783934362522	1902.0	-0.29165136796867497	2074.0	2.0080039762663473	1281.0	9.574494175352545	-15616.0	-0.11771919068056406	192.0	1.9227467811158798	3136.0	0.0	5078.765869140625	35349.0	747.0	-0.3347826086956522	1.1898989898989898	-168.0	-0.4111776447105789	-555.0	0.4115246501179593	-25.0	0.19924576550626977	12.0	1.0453144112934971	-70.0	
9.561862691927615	1896.0	-0.26944014034710523	2072.0	2.08087603274472	1278.0	9.652973635806253	-15744.0	-0.11771919068056406	192.0	2.001226241569589	3264.0	0.0	5098.297119140625	35989.0	746.0	-0.33695652173913043	1.1717171717171717	-177.0	-0.43712574850299407	-542.0	0.23738365854501398	-21.0	1.263274700964608	-58.0	0.9862193193080862	-58.0	
9.624028890638428	1897.0	-0.16072058005672446	2063.0	2.070536697563648	1273.0	9.692213366033108	-15808.0	-0.07847946045370938	128.0	2.001226241569589	3264.0	0.0	5117.828369140625	36629.0	750.0	-0.3282608695652174	1.1818181818181819	-172.0	-0.4211576846307386	-550.0	1.3324232348407488	10.0	2.2703870281607195	-129.0	0.5037860338112884	-129.0	
9.587213152166198	1897.0	-0.1843624176745009	2065.0	2.069932121802748	1276.0	9.652973635806253	-15744.0	0.0	0.0	1.9619865113427344	3200.0	0.0	5137.359619140625	37269.0	749.0	-0.33043478260869563	1.1939393939393939	-166.0	-0.3932135728542915	-564.0	1.0103504447011875	11.0	2.3084041631215704	-130.0	0.49179763623739886	-108.0	
9.745581528953414	1897.0	-0.19975350261983313	2066.0	2.0713618947211665	1263.0	9.770692826486817	-15936.0	-0.03923973022685469	64.0	1.9619865113427344	3200.0	0.0	5156.890869140625	37909.0	745.0	-0.3391304347826087	1.183838383838384	-171.0	-0.40918163672654695	-556.0	-0.37960891686546916	0.0	1.2740155383680394	-55.0	0.6729976100812023	-18.0	
9.782636451389347	1896.0	-0.1397793609806909	2061.0	2.0843803781330017	1260.0	9.927651747394236	-16192.0	0.03923973022685469	-64.0	1.9227467811158798	3136.0	0.0	5176.422119140625	38549.0	748.0	-0.33260869565217394	1.1898989898989898	-168.0	-0.42514970059880247	-548.0	0.2348213028113225	-25.0	0.9461770021369826	-37.0	1.0470814447665635	-58.0	
9.758135008311298	1897.0	-0.1634289819533371	2063.0	2.0718506747214103	1262.0	9.849172286940528	-16064.0	0.0	0.0	1.883507050889025	3072.0	0.0	5195.953369140625	39189.0	748.0	-0.33260869565217394	1.183838383838384	-171.0	-0.3952095808383234	-563.0	0.9205708438259648	-43.0	0.18285058757823913	10.0	1.3139882079115501	-103.0	
9.63549201009251	1895.0	-0.21020465377067554	2067.0	2.0942528735632178	1272.0	9.770692826486817	-15936.0	0.07847946045370938	-128.0	2.040465971796444	3328.0	0.0	5215.484619140625	39829.0	748.0	-0.33260869565217394	1.1717171717171717	-177.0	-0.42315369261477054	-549.0	0.331150437864787	-49.0	-0.5294011296872281	60.0	1.4111371648228732	-65.0	
9.671577243996277	1892.0	-0.22384886017173597	2068.0	2.130621862151498	1269.0	9.770692826486817	-15936.0	-0.07847946045370938	128.0	2.001226241569589	3264.0	0.0	5235.015869140625	40469.0	749.0	-0.33043478260869563	1.1777777777777778	-174.0	-0.42514970059880247	-548.0	-0.19334625696626778	-60.0	-0.9643557911280161	91.0	1.5836825119993205	-31.0	
9.670973887138121	1892.0	-0.2848000918729585	2073.0	2.130006316265904	1269.0	9.809932556713672	-16000.0	-0.07847946045370938	128.0	2.001226241569589	3264.0	0.0	5254.547119140625	41109.0	747.0	-0.3347826086956522	1.197979797979798	-164.0	-0.41516966067864275	-553.0	1.065176533384196	-24.0	-0.41535518297883445	50.0	1.0235687669855498	-113.0	
9.646713786803332	1893.0	-0.2840692201651157	2073.0	2.11772283120855	1271.0	9.770692826486817	-15936.0	-0.15695892090741875	256.0	2.040465971796444	3328.0	0.0	5274.078369140625	41749.0	750.0	-0.3282608695652174	1.1797979797979798	-173.0	-0.4131736526946108	-554.0	1.9543105099625608	-38.0	0.8035993043239821	-36.0	1.2276051838737585	-170.0	
9.610630711679127	1897.0	-0.282376825104932	2073.0	2.0691861533235727	1274.0	9.692213366033108	-15808.0	-0.19619865113427343	320.0	1.9619865113427344	3200.0	0.0	5293.609619140625	42389.0	750.0	-0.3282608695652174	1.1737373737373737	-176.0	-0.42514970059880247	-548.0	2.6258371872448345	-1.0	0.989265605762321	-50.0	0.6581522745153844	-214.0	
9.672322860021646	1902.0	-0.27022549553903613	2072.0	2.009683624247235	1269.0	9.770692826486817	-15936.0	-0.15695892090741875	256.0	1.9227467811158798	3136.0	0.0	5313.140869140625	43029.0	748.0	-0.33260869565217394	1.1919191919191918	-167.0	-0.3952095808383234	-563.0	1.6386166110208078	9.0	0.6442697031101012	-22.0	0.5159332255247729	-150.0	
9.684389336333885	1900.0	-0.25875833755176475	2071.0	2.034015346132399	1268.0	9.731453096259962	-15872.0	-0.03923973022685469	64.0	1.9619865113427344	3200.0	0.0	5332.672119140625	43669.0	753.0	-0.32173913043478264	1.185858585858586	-170.0	-0.3892215568862276	-566.0	0.6059451570143175	9.0	0.20639850887267108	12.0	0.5262599400648379	-83.0	
9.598669795281609	1892.0	-0.19799105736582187	2066.0	2.1301513656924103	1275.0	9.652973635806253	-15744.0	0.0	0.0	2.001226241569589	3264.0	0.0	5352.203369140625	44309.0	751.0	-0.32608695652173914	1.185858585858586	-170.0	-0.43113772455089827	-545.0	1.0277445818780744	10.0	-0.5719755534851317	62.0	0.5068328203409151	-111.0	
9.56332154228498	1901.0	-0.18291624096855472	2065.0	2.0215148963866576	1278.0	9.731453096259962	-15872.0	-0.03923973022685469	64.0	1.9227467811158798	3136.0	0.0	5371.734619140625	44949.0	751.0	-0.32608695652173914	1.185858585858586	-170.0	-0.4111776447105789	-555.0	0.2019295102053972	30.0	-1.5068292752409231	129.0	0.21090846155193843	-58.0	
9.574780344179947	1897.0	-0.20849669200075238	2067.0	2.0695664509796226	1277.0	9.652973635806253	-15744.0	-0.07847946045370938	128.0	2.0797057020232983	3392.0	0.0	5391.265869140625	45589.0	755.0	-0.3173913043478261	1.1717171717171717	-177.0	-0.4011976047904192	-560.0	-0.8408670415421015	22.0	-1.5440650816282697	136.0	0.3430094308716948	10.0	
9.538690792717068	1898.0	-0.17094886291793854	2064.0	2.057532840984738	1280.0	9.574494175352545	-15616.0	-0.07847946045370938	128.0	2.001226241569589	3264.0	0.0	5410.797119140625	46229.0	753.0	-0.32173913043478264	1.1737373737373737	-176.0	-0.4131736526946108	-554.0	-0.5719576769843921	7.0	-0.97220649876162	96.0	0.5684572193553953	-7.0	
9.587208834607083	1895.0	-0.16045879499274746	2063.0	2.094267500396143	1276.0	9.652973635806253	-15744.0	0.0	0.0	2.001226241569589	3264.0	0.0	5430.328369140625	46869.0	750.0	-0.3282608695652174	1.195959595959596	-165.0	-0.39121756487025955	-565.0	0.07128422127103337	-20.0	0.016073271975309784	26.0	0.9726711882055407	-48.0	
9.623787547895164	1897.0	-0.18510107273721346	2065.0	2.0702904792094103	1273.0	9.731453096259962	-15872.0	-0.03923973022685469	64.0	1.9619865113427344	3200.0	0.0	5449.859619140625	47509.0	754.0	-0.31956521739130433	1.1898989898989898	-168.0	-0.38522954091816375	-568.0	0.10740600207830786	-6.0	0.77170149370358	-24.0	0.7593822137434756	-50.0	
9.612449417371828	1901.0	-0.14733037536477128	2062.0	2.022362033793564	1274.0	9.770692826486817	-15936.0	0.0	0.0	1.9227467811158798	3136.0	0.0	5469.390869140625	48149.0	752.0	-0.3239130434782609	1.1898989898989898	-168.0	-0.4271457085828344	-547.0	-0.01909480663379379	17.0	0.7495208341828268	-21.0	0.4108373358990376	-42.0	
9.600253634569723	1899.0	-0.12318053432878029	2060.0	2.046577959918072	1275.0	9.613733905579398	-15680.0	0.07847946045370938	-128.0	1.9227467811158798	3136.0	0.0	5488.922119140625	48789.0	750.0	-0.3282608695652174	1.185858585858586	-170.0	-0.3932135728542915	-564.0	-0.34747224473312466	53.0	0.6893295183220692	-14.0	-0.13340740683023528	-21.0	
9.562095399552645	1892.0	-0.1972524023031093	2066.0	2.129793008285748	1278.0	9.652973635806253	-15744.0	-0.03923973022685469	64.0	1.9227467811158798	3136.0	0.0	5508.453369140625	49429.0	751.0	-0.32608695652173914	1.1797979797979798	-173.0	-0.4011976047904192	-560.0	-0.5803342005088791	63.0	0.5766878269010425	-5.0	-0.28317004202532947	-6.0	
9.623416898662038	1893.0	-0.1738645663944401	2064.0	2.1185919088648437	1273.0	9.731453096259962	-15872.0	-0.07847946045370938	128.0	2.001226241569589	3264.0	0.0	5527.984619140625	50069.0	752.0	-0.3239130434782609	1.183838383838384	-171.0	-0.4211576846307386	-550.0	-0.0511298353082457	52.0	1.1478558415471163	-46.0	-0.12116170544919892	-40.0	
9.58598916821342	1889.0	-0.21065039034993222	2067.0	2.16604254440514	1276.0	9.731453096259962	-15872.0	-0.07847946045370938	128.0	2.0797057020232983	3392.0	0.0	5547.515869140625	50709.0	749.0	-0.33043478260869563	1.187878787878788	-169.0	-0.4131736526946108	-554.0	1.4922356761190285	34.0	1.7341347077714915	-93.0	0.13716889799166143	-140.0	
9.671579402775834	1893.0	-0.2358006715126127	2069.0	2.1184541728548	1269.0	9.652973635806253	-15744.0	-0.15695892090741875	256.0	1.9619865113427344	3200.0	0.0	5567.047119140625	51349.0	751.0	-0.32608695652173914	1.1777777777777778	-174.0	-0.3952095808383234	-563.0	1.8159944114011575	81.0	2.59476696933257	-150.0	-0.5808975866995629	-161.0	
9.708160274843474	1896.0	-0.2723947605979554	2072.0	2.08230946237137	1266.0	9.770692826486817	-15936.0	-0.15695892090741875	256.0	1.9227467811158798	3136.0	0.0	5586.578369140625	51989.0	752.0	-0.3239130434782609	1.1797979797979798	-173.0	-0.42514970059880247	-548.0	1.7964411682281942	152.0	3.2540144450803816	-191.0	-1.6605499630130807	-160.0	
9.757772994196403	1897.0	-0.19999972097407062	2066.0	2.071481347190054	1262.0	9.809932556713672	-16000.0	0.03923973022685469	-64.0	1.9619865113427344	3200.0	0.0	5606.109619140625	52629.0	749.0	-0.33043478260869563	1.195959595959596	-165.0	-0.3932135728542915	-564.0	2.5604078639087553	181.0	3.3534174823454785	-200.0	-2.109254268753156	-210.0	
9.684497055028167	1894.0	-0.17485722316625987	2064.0	2.107144591089703	1268.0	9.731453096259962	-15872.0	-0.07847946045370938	128.0	2.040465971796444	3328.0	0.0	5625.640869140625	53269.0	753.0	-0.32173913043478264	1.185858585858586	-170.0	-0.4011976047904192	-560.0	3.1016053252761626	258.0	3.3925792529944374	-202.0	-3.2857689049637884	-246.0	
9.673516621060609	1896.0	-0.07661216409133073	2056.0	2.083920851798608	1269.0	9.770692826486817	-15936.0	0.07847946045370938	-128.0	2.001226241569589	3264.0	0.0	5645.172119140625	53909.0	755.0	-0.3173913043478261	1.183838383838384	-171.0	-0.40918163672654695	-556.0	3.065801665897209	287.0	3.3227587507497875	-196.0	-3.726475507153269	-244.0	
9.722411788522425	1900.0	-0.11321403653154317	2059.0	2.035851013664487	1265.0	9.888412017167381	-16128.0	0.0	0.0	1.9227467811158798	3136.0	0.0	5664.703369140625	54549.0	753.0	-0.32173913043478264	1.187878787878788	-169.0	-0.40319361277445115	-559.0	3.0414921185022235	229.0	3.0792704716720536	-182.0	-2.844103134112779	-242.0	
9.698384395812669	1897.0	-0.040295426779704435	2053.0	2.0724845041481603	1267.0	9.849172286940528	-16064.0	0.15695892090741875	-256.0	1.9227467811158798	3136.0	0.0	5684.234619140625	55189.0	755.0	-0.3173913043478261	1.1757575757575758	-175.0	-0.40319361277445115	-559.0	3.551642814935865	187.0	2.8083175999280305	-168.0	-2.210421371115138	-275.0	
9.711192170591163	1903.0	-0.05130128147797974	2054.0	2.0002133667224564	1266.0	9.731453096259962	-15872.0	0.07847946045370938	-128.0	1.9619865113427344	3200.0	0.0	5703.765869140625	55829.0	755.0	-0.3173913043478261	1.1737373737373737	-176.0	-0.42315369261477054	-549.0	3.464328569746391	165.0	2.9509356784562257	-178.0	-1.8749474682069698	-269.0	
9.711810638906226	1910.0	-0.07401272916289425	2056.0	1.9156550875311678	1266.0	9.770692826486817	-15936.0	0.11771919068056406	-192.0	1.8442673206621703	3008.0	0.0	5723.297119140625	56469.0	753.0	-0.32173913043478264	1.1939393939393939	-166.0	-0.4191616766467066	-551.0	2.768941633658064	132.0	1.9747608124561593	-111.0	-1.3660924581616756	-224.0	
9.675369867226243	1916.0	-0.13279469580519754	2061.0	1.8424137035214387	1269.0	9.652973635806253	-15744.0	0.07847946045370938	-128.0	1.7265481299816063	2816.0	0.0	5742.828369140625	57109.0	753.0	-0.32173913043478264	1.1797979797979798	-173.0	-0.4051896207584831	-558.0	1.5590332946876193	96.0	0.14801381990022386	15.0	-0.8064648576617052	-146.0	
9.57722183574683	1910.0	-0.12006531262725961	2060.0	1.91384867366493	1277.0	9.652973635806253	-15744.0	0.07847946045370938	-128.0	1.7265481299816063	2816.0	0.0	5762.359619140625	57749.0	755.0	-0.3173913043478261	1.1757575757575758	-175.0	-0.4271457085828344	-547.0	0.0349253291662891	44.0	-1.111876080271293	104.0	-3.4925329166289094E-4	-47.0	
9.613664766206373	1905.0	-0.07323515732583308	2056.0	1.9749223683779615	1274.0	9.652973635806253	-15744.0	0.11771919068056406	-192.0	1.883507050889025	3072.0	0.0	5781.890869140625	58389.0	754.0	-0.31956521739130433	1.187878787878788	-169.0	-0.3952095808383234	-563.0	-0.855719381238299	31.0	-1.3576460286368006	124.0	0.20627582499109023	11.0	
9.491385940882038	1904.0	-0.09539190146331475	2058.0	1.9855262054544276	1284.0	9.613733905579398	-15680.0	0.11771919068056406	-192.0	1.9227467811158798	3136.0	0.0	5801.422119140625	59029.0	756.0	-0.31521739130434784	1.185858585858586	-170.0	-0.39720558882235535	-562.0	-0.4310188458854883	46.0	-1.632952274330326	141.0	-0.02610806249171546	-17.0	
9.504064409170667	1906.0	-0.07078075713832763	2056.0	1.961802716038395	1283.0	9.53525444512569	-15552.0	0.03923973022685469	-64.0	1.8442673206621703	3008.0	0.0	5820.953369140625	59669.0	753.0	-0.32173913043478264	1.1595959595959595	-183.0	-0.44111776447105794	-540.0	-0.9778003882135974	35.0	-1.2267757004902666	116.0	0.1466601331597025	19.0	
9.527953860272326	1901.0	-0.060275122503397116	2055.0	2.0223876307511826	1281.0	9.496014714898834	-15488.0	0.0	0.0	1.8442673206621703	3008.0	0.0	5840.484619140625	60309.0	754.0	-0.31956521739130433	1.195959595959596	-165.0	-0.4131736526946108	-554.0	-0.5020825460816898	4.0	-0.16929970053068188	42.0	0.6133858444722237	-11.0	
9.527712517529064	1901.0	-0.08465561518388612	2057.0	2.0221414123969454	1281.0	9.613733905579398	-15680.0	0.07847946045370938	-128.0	1.9227467811158798	3136.0	0.0	5860.015869140625	60949.0	758.0	-0.3108695652173913	1.187878787878788	-169.0	-0.4111776447105789	-555.0	-0.8621394103029086	-11.0	0.4313424281108554	3.0	0.8451232952437135	13.0	
9.600507929990336	1905.0	-0.17051090969355162	2064.0	1.9738180424921241	1275.0	9.692213366033108	-15808.0	-0.03923973022685469	64.0	1.8442673206621703	3008.0	0.0	5879.547119140625	61589.0	756.0	-0.31521739130434784	1.1797979797979798	-173.0	-0.4331337325349302	-544.0	-1.7700813866237233	11.0	0.522911723829161	2.0	0.519601954550648	72.0	
9.662187125655505	1904.0	-0.08664871208239541	2057.0	1.9873216491959715	1270.0	9.731453096259962	-15872.0	0.11771919068056406	-192.0	1.8442673206621703	3008.0	0.0	5899.078369140625	62229.0	755.0	-0.3173913043478261	1.187878787878788	-169.0	-0.42315369261477054	-549.0	-0.3186790759986699	8.0	1.349604260336431	-60.0	0.5507153078702529	-22.0	
9.56428691325803	1901.0	-0.08539427024659865	2057.0	2.022499769803608	1278.0	9.692213366033108	-15808.0	0.07847946045370938	-128.0	1.9619865113427344	3200.0	0.0	5918.609619140625	62869.0	755.0	-0.3173913043478261	1.1939393939393939	-166.0	-0.42514970059880247	-548.0	0.45945355949168837	44.0	1.43728739957572	-68.0	-0.004594535594916883	-73.0	
9.564894587675305	1903.0	-0.04834666122712955	2054.0	1.9987799370958066	1278.0	9.613733905579398	-15680.0	0.07847946045370938	-128.0	1.9227467811158798	3136.0	0.0	5938.140869140625	63509.0	753.0	-0.32173913043478264	1.1757575757575758	-175.0	-0.43712574850299407	-542.0	-1.0510222077384834	54.0	0.9488000132400168	-28.0	-0.14158103267546687	25.0	
9.661331632156296	1899.0	-0.11222137975972336	2059.0	2.047298331439628	1270.0	9.692213366033108	-15808.0	0.07847946045370938	-128.0	1.9619865113427344	3200.0	0.0	5957.672119140625	64149.0	752.0	-0.3239130434782609	1.1797979797979798	-173.0	-0.3932135728542915	-564.0	-1.9824151016145102	46.0	1.3086081134642158	-48.0	-0.010594099934425243	86.0	
9.686324395839101	1902.0	-0.08761801878960604	2057.0	2.011649714372904	1268.0	9.809932556713672	-16000.0	0.11771919068056406	-192.0	1.883507050889025	3072.0	0.0	5977.203369140625	64789.0	755.0	-0.3173913043478261	1.185858585858586	-170.0	-0.3932135728542915	-564.0	-0.2841581870987088	34.0	2.1276367881177127	-111.0	0.1549328366238388	-24.0	
9.686695045072227	1906.0	-0.09885452513237941	2058.0	1.9633482847174701	1268.0	9.849172286940528	-16064.0	0.03923973022685469	-64.0	1.9227467811158798	3136.0	0.0	5996.734619140625	65429.0	753.0	-0.32173913043478264	1.1818181818181819	-172.0	-0.42914171656686634	-546.0	0.5760651912315383	35.0	2.2182986434861984	-121.0	0.13112147736525118	-80.0	
9.723269440801193	1906.0	-0.09959318019509195	2058.0	1.9637066421241327	1265.0	9.809932556713672	-16000.0	0.07847946045370938	-128.0	1.883507050889025	3072.0	0.0	6016.265869140625	533.0	753.0	-0.32173913043478264	1.1656565656565656	-180.0	-0.46307385229540926	-529.0	-0.33673319950949426	41.0	1.5808319254339238	-74.0	0.04899470842095046	-21.0	
9.746799036567518	1902.0	-0.13761009592177165	2061.0	2.0117545400088668	1263.0	9.849172286940528	-16064.0	-0.03923973022685469	64.0	1.9227467811158798	3136.0	0.0	6035.797119140625	1173.0	756.0	-0.31521739130434784	1.1818181818181819	-172.0	-0.3992015968063873	-561.0	-1.5230182621840727	17.0	0.7642388842003707	-15.0	0.4258765704545404	56.0	
9.783621251378422	1905.0	-0.14982369232662535	2062.0	1.9758560478796738	1260.0	9.849172286940528	-16064.0	0.11771919068056406	-192.0	1.8050275904353157	2944.0	0.0	6055.328369140625	1813.0	753.0	-0.32173913043478264	1.1777777777777778	-174.0	-0.43512974051896214	-543.0	-0.9614793855121275	33.0	0.3750695287331633	9.0	0.17691517408325816	19.0	
9.661579451238232	1902.0	-0.12369632110186451	2060.0	2.011041481903773	1270.0	9.731453096259962	-15872.0	0.03923973022685469	-64.0	1.8442673206621703	3008.0	0.0	6074.859619140625	2453.0	753.0	-0.32173913043478264	1.1919191919191918	-167.0	-0.43113772455089827	-545.0	0.22915880672089695	83.0	0.4875369027337004	-2.0	-0.5954474816033307	-59.0	
9.710950827847899	1903.0	-0.07568177415846875	2056.0	1.999967148368219	1266.0	9.770692826486817	-15936.0	0.11771919068056406	-192.0	1.883507050889025	3072.0	0.0	6094.390869140625	3093.0	748.0	-0.33260869565217394	1.1757575757575758	-175.0	-0.4451097804391218	-538.0	0.17724173223522602	105.0	0.23466929406988718	16.0	-0.9295290713147477	-56.0	
9.710946510288784	1901.0	-0.05177815147671533	2054.0	2.024302526961614	1266.0	9.809932556713672	-16000.0	0.19619865113427343	-320.0	1.883507050889025	3072.0	0.0	6113.922119140625	3733.0	755.0	-0.3173913043478261	1.1696969696969697	-178.0	-0.42315369261477054	-549.0	-0.6331657670154631	81.0	0.17152536932457985	23.0	-0.5564059849153968	-3.0	
9.686197248128796	1899.0	-0.06395283110722039	2055.0	2.048029673085878	1268.0	9.731453096259962	-15872.0	-0.07847946045370938	128.0	1.9227467811158798	3136.0	0.0	6133.453369140625	4373.0	754.0	-0.31956521739130433	1.187878787878788	-169.0	-0.3952095808383234	-563.0	-0.1604548507221877	71.0	-0.2872490655870724	51.0	-0.40904183932547783	-34.0	
9.685955905385534	1899.0	-0.08833332378770939	2057.0	2.0477834547316407	1268.0	9.770692826486817	-15936.0	0.11771919068056406	-192.0	1.883507050889025	3072.0	0.0	6152.984619140625	5013.0	756.0	-0.31521739130434784	1.1797979797979798	-173.0	-0.3992015968063873	-561.0	-0.8028134427063952	32.0	-0.6560722407776908	77.0	0.19053764013048605	8.0	
9.6125679299639	1900.0	-0.12318831768365004	2060.0	2.0346528322673803	1274.0	9.613733905579398	-15680.0	0.03923973022685469	-64.0	1.9227467811158798	3136.0	0.0	6172.515869140625	5653.0	751.0	-0.32608695652173914	1.1777777777777778	-174.0	-0.43113772455089827	-545.0	-1.045645714372534	-3.0	-0.9153364540532676	94.0	0.7252853544821284	24.0	
9.72216181066093	1896.0	-0.0897872838485253	2057.0	2.0842755524970396	1265.0	9.849172286940528	-16064.0	0.07847946045370938	-128.0	1.9619865113427344	3200.0	0.0	6192.047119140625	6293.0	750.0	-0.3282608695652174	1.1676767676767676	-179.0	-0.4670658682634731	-527.0	-1.4085734362872615	14.0	-0.11511678813038595	43.0	0.4703594986214278	48.0	
9.625117091762666	1898.0	-0.0629601743354006	2055.0	2.0594769908610187	1273.0	9.731453096259962	-15872.0	0.23543838136112813	-384.0	2.001226241569589	3264.0	0.0	6211.578369140625	6933.0	752.0	-0.3239130434782609	1.1777777777777778	-174.0	-0.4271457085828344	-547.0	0.7706688131525249	63.0	0.6175905508833421	-14.0	-0.2966800721619435	-94.0	
9.576838233836353	1900.0	-0.037117938239225934	2053.0	2.035156239100549	1277.0	9.652973635806253	-15744.0	0.15695892090741875	-256.0	1.9227467811158798	3136.0	0.0	6231.109619140625	7573.0	752.0	-0.3239130434782609	1.1757575757575758	-175.0	-0.4331337325349302	-544.0	0.9321447754120715	91.0	0.30854346573175245	7.0	-0.7241503450925239	-105.0	
9.649480593232617	1889.0	0.044113691024014884	2046.0	2.1692250994690716	1271.0	9.770692826486817	-15936.0	0.19619865113427343	-320.0	2.040465971796444	3328.0	0.0	6250.640869140625	8213.0	752.0	-0.3239130434782609	1.1898989898989898	-168.0	-0.42315369261477054	-549.0	-0.47474059224975934	33.0	-0.06360509247729783	36.0	0.17204778615063449	-13.0	
9.637549899748917	1898.0	-0.03882590000914907	2053.0	2.059842661684144	1272.0	9.692213366033108	-15808.0	0.07847946045370938	-128.0	1.9619865113427344	3200.0	0.0	6270.172119140625	8853.0	755.0	-0.3173913043478261	1.1818181818181819	-172.0	-0.3952095808383234	-563.0	-0.794144278351901	27.0	0.134885258938854	24.0	0.26649657586336695	8.0	
9.576833916277238	1898.0	-0.013214315557472461	2051.0	2.059491617693944	1277.0	9.692213366033108	-15808.0	0.19619865113427343	-320.0	2.001226241569589	3264.0	0.0	6289.703369140625	9493.0	750.0	-0.3282608695652174	1.1717171717171717	-177.0	-0.4211576846307386	-550.0	-0.07174810538702107	4.0	-0.10929595511427521	36.0	0.6090825000652771	-39.0	
9.563562885028244	1901.0	-0.15853574828806571	2063.0	2.021761114740895	1278.0	9.613733905579398	-15680.0	0.0	0.0	1.9227467811158798	3136.0	0.0	6309.234619140625	10133.0	754.0	-0.31956521739130433	1.185858585858586	-170.0	-0.39720558882235535	-562.0	-0.27431113466065066	33.0	0.027392543511381748	29.0	0.17004349157474338	-26.0	
9.612197280730774	1896.0	-0.11195181134087669	2059.0	2.082954261922814	1274.0	9.692213366033108	-15808.0	0.0	0.0	1.9619865113427344	3200.0	0.0	6328.765869140625	10773.0	755.0	-0.3173913043478261	1.1757575757575758	-175.0	-0.44910179640718567	-536.0	-0.6203077456343689	-2.0	0.1950986731991386	18.0	0.7058228493194616	-3.0	
9.612570088743459	1901.0	-0.13514012902452677	2061.0	2.022485142970683	1274.0	9.731453096259962	-15872.0	0.07847946045370938	-128.0	2.001226241569589	3264.0	0.0	6348.297119140625	11413.0	752.0	-0.3239130434782609	1.1797979797979798	-173.0	-0.4271457085828344	-547.0	0.19979798692969938	12.0	1.0760716568626472	-44.0	0.4846940353398285	-56.0	
9.636588846334982	1900.0	-0.1602514934128586	2063.0	2.0345224096737993	1272.0	9.770692826486817	-15936.0	0.03923973022685469	-64.0	1.9227467811158798	3136.0	0.0	6367.828369140625	12053.0	750.0	-0.3282608695652174	1.1919191919191918	-167.0	-0.40918163672654695	-556.0	-0.4794844244275864	22.0	0.8295832879207097	-24.0	0.33939560470054964	-12.0	
9.75837635105456	1897.0	-0.13904848927284807	2061.0	2.072096893075648	1262.0	9.770692826486817	-15936.0	0.03923973022685469	-64.0	2.001226241569589	3264.0	0.0	6387.359619140625	12693.0	755.0	-0.3173913043478261	1.1616161616161615	-182.0	-0.4171656686626747	-552.0	-1.6634588381930002	38.0	-0.6824761536265102	83.0	0.10788934123364105	64.0	
9.684854751583945	1892.0	-0.11438286146377293	2059.0	2.1318492972144543	1268.0	9.770692826486817	-15936.0	0.07847946045370938	-128.0	2.0797057020232983	3392.0	0.0	6406.890869140625	13333.0	755.0	-0.3173913043478261	1.1818181818181819	-172.0	-0.4331337325349302	-544.0	-0.18230891947449054	90.0	-0.6489816807438438	76.0	-0.697796682668373	-33.0	
9.636453063506442	1893.0	-0.08877906036696603	2057.0	2.119573125573563	1272.0	9.731453096259962	-15872.0	0.03923973022685469	-64.0	2.001226241569589	3264.0	0.0	6426.422119140625	13973.0	750.0	-0.3282608695652174	1.1939393939393939	-166.0	-0.4191616766467066	-551.0	-0.09019697462163014	113.0	-0.296572690461444	53.0	-1.0485276880484604	-39.0	
9.661077336735682	1893.0	-0.06489100439495207	2055.0	2.120058248865575	1270.0	9.770692826486817	-15936.0	0.07847946045370938	-128.0	2.001226241569589	3264.0	0.0	6445.953369140625	14613.0	755.0	-0.3173913043478261	1.1737373737373737	-176.0	-0.42914171656686634	-546.0	-0.1025495876580897	110.0	-0.04266547993299972	36.0	-1.0027767854922405	-38.0	
9.759701577362945	1896.0	0.0069960318107182284	2049.0	2.0856187833206516	1262.0	9.809932556713672	-16000.0	0.15695892090741875	-256.0	2.040465971796444	3328.0	0.0	6465.484619140625	15253.0	751.0	-0.32608695652173914	1.1737373737373737	-176.0	-0.42315369261477054	-549.0	0.7609019129652076	132.0	0.6902325209444184	-16.0	-1.3460120609547472	-94.0	
