Device	Device	Device	Device	Device	Device	Device	Device	Device	Device	Device	Device	Device	Device	Device	Device	Device	Device	Device	Device	Device	Device	Device	Device	Device	Device	Device	
Low Noise Accelerometer X	Low Noise Accelerometer X	Low Noise Accelerometer Z	Low Noise Accelerometer Z	Low Noise Accelerometer Y	Low Noise Accelerometer Y	Wide Range Accelerometer X	Wide Range Accelerometer X	Wide Range Accelerometer Z	Wide Range Accelerometer Z	Wide Range Accelerometer Y	Wide Range Accelerometer Y	Event_Marker	Timestamp	Timestamp	Magnetometer Z	Magnetometer Z	Magnetometer X	Magnetometer X	Magnetometer Y	Magnetometer Y	Gyroscope Y	Gyroscope Y	Gyroscope Z	Gyroscope Z	Gyroscope X	Gyroscope X	
CAL	UNCAL	UNCAL	CAL	CAL	UNCAL	UNCAL	CAL	CAL	UNCAL	CAL	UNCAL	CAL	UNCAL	CAL	UNCAL	CAL	CAL	UNCAL	UNCAL	CAL	UNCAL	CAL	CAL	UNCAL	UNCAL	CAL	
m/(s^2)	no units	no units	m/(s^2)	m/(s^2)	no units	no units	m/(s^2)	m/(s^2)	no units	m/(s^2)	no units	no units	no units	ms	no units	local_flux	local_flux	no units	no units	local_flux	no units	deg/s	deg/s	no units	no units	deg/s	
9.600305445279119	1923.0	2084.0	-0.4100240065098216	1.7545534167973311	1275.0	-15808.0	9.692213366033108	-0.27467811158798283	448.0	1.6088289393010422	2624.0	0.0	63469.0	1936.920166015625	701.0	-0.43478260869565216	1.2202020202020203	-153.0	-545.0	-0.43113772455089827	130.0	-1.1497307122882927	-0.09254690701164286	45.0	30.0	-1.296487483751642	
9.539475266774483	1926.0	2086.0	-0.43245810242101973	1.7175761957399196	1280.0	-15616.0	9.574494175352545	-0.27467811158798283	448.0	1.5695892090741874	2560.0	0.0	64109.0	1956.451416015625	703.0	-0.43043478260869567	1.208080808080808	-159.0	-546.0	-0.42914171656686634	131.0	-1.433639240971298	0.6924391827581284	-6.0	49.0	-1.308857523940097	
9.612865400975675	1926.0	2084.0	-0.4095549198659558	1.7185391289074823	1274.0	-15808.0	9.692213366033108	-0.3139178418148375	512.0	1.5303494788473329	2496.0	0.0	64749.0	1975.982666015625	701.0	-0.43478260869565216	1.2	-163.0	-532.0	-0.45708582834331346	124.0	-0.7743828472786386	2.0515917349478774	-100.0	7.0	-1.2089862095500272	
9.722836407244507	1929.0	2085.0	-0.4232458263962346	1.6833573515916147	1265.0	-15936.0	9.770692826486817	-0.3139178418148375	512.0	1.5695892090741874	2560.0	0.0	65389.0	1995.513916015625	699.0	-0.4391304347826087	1.208080808080808	-159.0	-553.0	-0.41516966067864275	166.0	0.7827568395976205	3.3930539996117326	-195.0	-94.0	-1.8633408763807673	
9.613358880359993	1931.0	2085.0	-0.4205529912093614	1.6581931191324697	1274.0	-15936.0	9.770692826486817	-0.23543838136112813	384.0	1.5303494788473329	2496.0	0.0	493.0	2015.045166015625	698.0	-0.44130434782608696	1.204040404040404	-161.0	-528.0	-0.4650698602794412	208.0	0.9943433164623134	3.7037289865829477	-215.0	-108.0	-2.5042400111113916	
9.698938321024615	1930.0	2082.0	-0.38594421566765824	1.6714431940656174	1267.0	-16000.0	9.809932556713672	-0.23543838136112813	384.0	1.5303494788473329	2496.0	0.0	1133.0	2034.576416015625	701.0	-0.43478260869565216	1.206060606060606	-160.0	-531.0	-0.4590818363273454	189.0	0.19060363878363884	2.848560107900611	-155.0	-56.0	-2.2072292303041867	
9.699802449642055	1939.0	2084.0	-0.40817879335383717	1.562795754635171	1267.0	-16064.0	9.849172286940528	-0.27467811158798283	448.0	1.491109748620478	2432.0	0.0	1773.0	2054.107666015625	699.0	-0.4391304347826087	1.187878787878788	-169.0	-542.0	-0.43712574850299407	186.0	0.8915990746895504	2.3031931068163694	-122.0	-102.0	-2.1686118082373897	
9.622783539173696	1935.0	2112.0	-0.7489821207527295	1.6068103033408356	1273.0	-15872.0	9.731453096259962	-0.27467811158798283	448.0	1.491109748620478	2432.0	0.0	2413.0	2073.638916015625	705.0	-0.4260869565217391	1.202020202020202	-162.0	-546.0	-0.42914171656686634	156.0	0.9356949334505645	1.6521879270549713	-80.0	-105.0	-1.712779002566445	
9.627000560842113	1932.0	2074.0	-0.2864680648215415	1.6476221924300847	1273.0	-15744.0	9.652973635806253	-0.19619865113427343	320.0	1.6088289393010422	2624.0	0.0	3053.0	2093.170166015625	704.0	-0.4282608695652174	1.195959595959596	-165.0	-535.0	-0.4510978043912176	208.0	-0.6186231198077954	0.48765561846338984	7.0	-5.0	-2.4881103467486905	
9.74757703428626	1927.0	2080.0	-0.36326390140222264	1.7083009626541412	1263.0	-16000.0	9.809932556713672	-0.23543838136112813	384.0	1.5303494788473329	2496.0	0.0	3693.0	2112.701416015625	700.0	-0.43695652173913047	1.2121212121212122	-157.0	-539.0	-0.44311377245508987	189.0	-1.6337848730320352	-0.02296320130220536	45.0	61.0	-2.1889853451860297	
9.662844452002616	1929.0	2077.0	-0.32449276390309095	1.6837449626641274	1270.0	-15936.0	9.770692826486817	-0.19619865113427343	320.0	1.5695892090741874	2560.0	0.0	4333.0	2132.232666015625	706.0	-0.42391304347826086	1.187878787878788	-169.0	-539.0	-0.44311377245508987	198.0	-0.6684183655603118	-0.03969991380675686	42.0	-2.0	-2.3355211395383133	
9.772574115528185	1932.0	2080.0	-0.36256416311385875	1.6483169669940223	1261.0	-15936.0	9.770692826486817	-0.15695892090741875	256.0	1.5303494788473329	2496.0	0.0	4973.0	2151.763916015625	700.0	-0.43695652173913047	1.195959595959596	-165.0	-536.0	-0.44910179640718567	159.0	-2.1035064403767083	0.12641100294777508	36.0	92.0	-1.7280143652540279	
9.797814698292928	1938.0	2079.0	-0.3494357434858826	1.5764115003914436	1259.0	-16128.0	9.888412017167381	-0.15695892090741875	256.0	1.5695892090741874	2560.0	0.0	5613.0	2171.295166015625	700.0	-0.43695652173913047	1.2101010101010101	-158.0	-556.0	-0.40918163672654695	147.0	-1.6545862581354387	0.3277458380056608	20.0	63.0	-1.5499940613730183	
9.736247538881159	1935.0	2081.0	-0.3733004493932873	1.6117017600515047	1264.0	-16128.0	9.888412017167381	-0.03923973022685469	64.0	1.4518700183936235	2368.0	0.0	6253.0	2190.826416015625	703.0	-0.43043478260869567	1.183838383838384	-171.0	-531.0	-0.4590818363273454	139.0	-1.207597893922601	0.3967160539412376	13.0	34.0	-1.4327909412128652	
9.785498244119195	1936.0	2078.0	-0.3374761487901361	1.6005043173388322	1260.0	-16000.0	9.809932556713672	-0.19619865113427343	320.0	1.4518700183936235	2368.0	0.0	6893.0	2210.357666015625	701.0	-0.43478260869565216	1.195959595959596	-165.0	-535.0	-0.4510978043912176	143.0	-2.191246617039661	0.3176864276649713	23.0	98.0	-1.4837909558828353	
9.83390640853537	1938.0	2083.0	-0.3989353839095731	1.576277421089631	1256.0	-16128.0	9.888412017167381	-0.19619865113427343	320.0	1.4126302881667687	2304.0	0.0	7533.0	2229.888916015625	702.0	-0.4326086956521739	1.206060606060606	-160.0	-551.0	-0.4191616766467066	128.0	-1.711064982728458	0.5300128743498813	6.0	67.0	-1.2604558900966698	
9.711864608395182	1935.0	2081.0	-0.37280801268481234	1.6114628551137298	1266.0	-16064.0	9.849172286940528	-0.27467811158798283	448.0	1.491109748620478	2432.0	0.0	8173.0	2249.420166015625	704.0	-0.4282608695652174	1.1898989898989898	-168.0	-553.0	-0.41516966067864275	115.0	-0.21668697333651504	0.8978555395890837	-26.0	-30.0	-1.077681039011882	
9.626528669253382	1937.0	2083.0	-0.39498810688690317	1.5862913092381221	1273.0	-15744.0	9.652973635806253	-0.19619865113427343	320.0	1.491109748620478	2432.0	0.0	8813.0	2268.951416015625	702.0	-0.4326086956521739	1.1919191919191918	-167.0	-543.0	-0.43512974051896214	141.0	-0.3701048661484985	1.2991635091262426	-51.0	-20.0	-1.4715841224411768	
9.711985279766813	1935.0	2080.0	-0.36061776634456777	1.6115859642908485	1266.0	-15872.0	9.731453096259962	-0.19619865113427343	320.0	1.4518700183936235	2368.0	0.0	9453.0	2288.482666015625	699.0	-0.4391304347826087	1.2101010101010101	-158.0	-544.0	-0.4331337325349302	141.0	-0.9637531435202155	1.7902565416750924	-81.0	19.0	-1.4656476396674596	
9.589590100629962	1936.0	2085.0	-0.41886837950404743	1.5977313135968008	1276.0	-15872.0	9.731453096259962	-0.23543838136112813	384.0	1.4518700183936235	2368.0	0.0	10093.0	2308.013916015625	703.0	-0.43043478260869567	1.1919191919191918	-167.0	-552.0	-0.4171656686626747	139.0	-0.13346645103399807	1.91116190281754	-93.0	-35.0	-1.4435322556417514	
9.650415961575481	1931.0	2081.0	-0.3725306609110959	1.6590439132476071	1271.0	-15872.0	9.731453096259962	-0.23543838136112813	384.0	1.4126302881667687	2304.0	0.0	10733.0	2327.545166015625	704.0	-0.4282608695652174	1.1939393939393939	-166.0	-536.0	-0.44910179640718567	133.0	-1.2117229313465345	1.4278357250525646	-56.0	35.0	-1.341494937986915	
9.637860323438042	1930.0	2083.0	-0.3969033702367152	1.670722822544061	1272.0	-15936.0	9.770692826486817	-0.3139178418148375	512.0	1.5695892090741874	2560.0	0.0	11373.0	2347.076416015625	700.0	-0.43695652173913047	1.197979797979798	-164.0	-530.0	-0.4610778443113773	132.0	-1.5659755798940649	1.286965803143076	-45.0	58.0	-1.3227432860261545	
9.613345927682643	1925.0	2079.0	-0.34884212316410107	1.731199254912655	1274.0	-15808.0	9.692213366033108	-0.4316370324954016	704.0	1.648068669527897	2688.0	0.0	12013.0	2366.607666015625	704.0	-0.4282608695652174	1.206060606060606	-160.0	-549.0	-0.42315369261477054	120.0	-1.272222926422732	1.319190253225838	-49.0	39.0	-1.1431713068574458	
9.575687648388554	1926.0	2089.0	-0.4697674965044658	1.7175652256152258	1277.0	-15552.0	9.53525444512569	-0.19619865113427343	320.0	1.6088289393010422	2624.0	0.0	12653.0	2386.138916015625	704.0	-0.4282608695652174	1.197979797979798	-164.0	-533.0	-0.45508982035928147	176.0	-0.9108071288629412	1.4780291922615745	-59.0	15.0	-1.9984964914490135	
9.588353163999836	1922.0	2081.0	-0.3734454841342184	1.7668478719793785	1276.0	-15808.0	9.692213366033108	-0.19619865113427343	320.0	1.6873083997547516	2752.0	0.0	13293.0	2405.670166015625	703.0	-0.43043478260869567	1.1818181818181819	-172.0	-546.0	-0.42914171656686634	155.0	-0.6175959167572096	2.8541413788236145	-153.0	-3.0	-1.682036968589082	
9.60104890252493	1932.0	2087.0	-0.44444883053624507	1.6457828681897657	1275.0	-15424.0	9.45677498467198	-0.27467811158798283	448.0	1.491109748620478	2432.0	0.0	13933.0	2425.201416015625	706.0	-0.42391304347826086	1.1818181818181819	-172.0	-544.0	-0.4331337325349302	173.0	-0.1241952109355299	3.3554888912250385	-188.0	-35.0	-1.9607352342024318	
9.734784370964675	1928.0	2086.0	-0.43592072609008437	1.6953982750029621	1264.0	-15936.0	9.770692826486817	-0.23543838136112813	384.0	1.5695892090741874	2560.0	0.0	14573.0	2444.732666015625	705.0	-0.4260869565217391	1.187878787878788	-169.0	-538.0	-0.4451097804391218	133.0	-1.237360301404436	3.468600595753722	-192.0	38.0	-1.341238564286336	
9.698214292794827	1930.0	2088.0	-0.4590856937091253	1.6707045390029047	1267.0	-16064.0	9.849172286940528	-0.27467811158798283	448.0	1.491109748620478	2432.0	0.0	15213.0	2464.263916015625	701.0	-0.43478260869565216	1.204040404040404	-161.0	-542.0	-0.43712574850299407	107.0	-0.8695242172054719	3.022384112599777	-165.0	14.0	-0.9494796627709111	
9.758566103372054	1929.0	2092.0	-0.5093162058406586	1.682853944758446	1262.0	-16000.0	9.809932556713672	-0.3531575720416922	576.0	1.5695892090741874	2560.0	0.0	15853.0	2483.795166015625	705.0	-0.4260869565217391	1.183838383838384	-171.0	-546.0	-0.42914171656686634	116.0	-1.2907782863865056	2.472471034808968	-126.0	41.0	-1.0821492513566673	
9.783550231936628	1928.0	2086.0	-0.43690559950703445	1.6958760848785122	1260.0	-16256.0	9.966891477621092	-0.3139178418148375	512.0	1.5695892090741874	2560.0	0.0	16493.0	2503.326416015625	704.0	-0.4282608695652174	1.1818181818181819	-172.0	-524.0	-0.4730538922155689	73.0	-2.4899280085477087	1.6152294310182151	-65.0	119.0	-0.4161653586977929	
9.733454827097173	1927.0	2096.0	-0.5580616244918972	1.7062117633513534	1264.0	-16064.0	9.849172286940528	-0.4316370324954016	704.0	1.6088289393010422	2624.0	0.0	17133.0	2522.857666015625	704.0	-0.4282608695652174	1.195959595959596	-165.0	-554.0	-0.4131736526946108	94.0	-1.6187835317106347	1.5673734408295943	-65.0	62.0	-0.7442684384471523	
9.721985231304414	1926.0	2089.0	-0.47272211675531595	1.718998655241876	1265.0	-16000.0	9.809932556713672	-0.3139178418148375	512.0	1.5695892090741874	2560.0	0.0	17773.0	2542.388916015625	707.0	-0.4217391304347826	1.197979797979798	-164.0	-552.0	-0.4171656686626747	102.0	-0.3603703422395893	1.679557351720138	-78.0	-20.0	-0.8785255741441441	
9.770744615937693	1923.0	2086.0	-0.4378515561496359	1.7559795330075185	1261.0	-16000.0	9.809932556713672	-0.19619865113427343	320.0	1.6088289393010422	2624.0	0.0	18413.0	2561.920166015625	705.0	-0.4260869565217391	1.1919191919191918	-167.0	-539.0	-0.44311377245508987	136.0	-0.36592987555612744	1.640658690892853	-74.0	-20.0	-1.3955802449706745	
9.807810332271414	1927.0	2086.0	-0.43763647121487725	1.708159569935866	1258.0	-16192.0	9.927651747394236	-0.27467811158798283	448.0	1.5695892090741874	2560.0	0.0	19053.0	2581.451416015625	709.0	-0.4173913043478261	1.202020202020202	-162.0	-553.0	-0.41516966067864275	137.0	-0.12173263275143206	1.5193234015757762	-67.0	-36.0	-1.4132313428740066	
9.75916730145065	1928.0	2086.0	-0.4364131627985594	1.6956371799407373	1262.0	-16064.0	9.849172286940528	-0.3139178418148375	512.0	1.5695892090741874	2560.0	0.0	19693.0	2600.982666015625	707.0	-0.4217391304347826	1.185858585858586	-170.0	-553.0	-0.41516966067864275	136.0	0.3053021662005576	1.2341208508315653	-50.0	-64.0	-1.4022925653882412	
9.820734460862424	1931.0	2084.0	-0.4125484568911546	1.660346920280676	1257.0	-16064.0	9.849172286940528	-0.27467811158798283	448.0	1.491109748620478	2432.0	0.0	20333.0	2620.513916015625	703.0	-0.43043478260869567	1.183838383838384	-171.0	-541.0	-0.439121756487026	89.0	0.8591971619470531	0.6572314757977915	-16.0	-100.0	-0.6930026180073033	
9.61372737081356	1934.0	2085.0	-0.41983768621125805	1.6220593787737334	1274.0	-15744.0	9.652973635806253	-0.27467811158798283	448.0	1.491109748620478	2432.0	0.0	20973.0	2640.045166015625	706.0	-0.42391304347826086	1.1939393939393939	-166.0	-541.0	-0.439121756487026	75.0	1.0674185154194227	-0.2203505543132235	41.0	-114.0	-0.48215707488803455	
9.722478710688732	1931.0	2090.0	-0.4837201880987215	1.6586526454668635	1265.0	-16000.0	9.809932556713672	-0.3531575720416922	576.0	1.5303494788473329	2496.0	0.0	21613.0	2659.576416015625	709.0	-0.4173913043478261	1.183838383838384	-171.0	-545.0	-0.43113772455089827	23.0	-0.9513679503440265	-1.8356159283191633	156.0	17.0	0.32890531448442883	
9.662004069960313	1931.0	2086.0	-0.43372811096655595	1.658547819830901	1270.0	-15872.0	9.731453096259962	-0.3139178418148375	512.0	1.5303494788473329	2496.0	0.0	22253.0	2679.107666015625	704.0	-0.4282608695652174	1.185858585858586	-170.0	-538.0	-0.4451097804391218	-4.0	-1.6111138375382685	-2.225913575031278	184.0	60.0	0.7461491611890709	
9.600430434209866	1925.0	2085.0	-0.42173738285133056	1.7303411473810548	1275.0	-15616.0	9.574494175352545	-0.3139178418148375	512.0	1.648068669527897	2688.0	0.0	22893.0	2698.638916015625	705.0	-0.4260869565217391	1.204040404040404	-161.0	-558.0	-0.4051896207584831	-2.0	-0.6251945416374143	-1.8285492117960507	153.0	-4.0	0.705871717279492	
9.697843643561699	1926.0	2087.0	-0.44784918736635193	1.7190059686583385	1267.0	-15872.0	9.731453096259962	-0.27467811158798283	448.0	1.5695892090741874	2560.0	0.0	23533.0	2718.170166015625	703.0	-0.43043478260869567	1.1898989898989898	-168.0	-531.0	-0.4590818363273454	46.0	-0.7770850566872942	0.5950319849159922	-6.0	7.0	-0.022647400383697402	
9.74733353276344	1926.0	2081.0	-0.3756925827418349	1.7202224335966012	1263.0	-16064.0	9.849172286940528	-0.15695892090741875	256.0	1.648068669527897	2688.0	0.0	24173.0	2737.701416015625	708.0	-0.41956521739130437	1.1898989898989898	-168.0	-538.0	-0.4451097804391218	50.0	0.36655629508294396	1.447403239292637	-68.0	-67.0	-0.09492031580254048	
9.771600109436902	1928.0	2084.0	-0.41227888847230787	1.6960028507638623	1261.0	-16064.0	9.849172286940528	-0.27467811158798283	448.0	1.5303494788473329	2496.0	0.0	24813.0	2757.232666015625	706.0	-0.42391304347826086	1.185858585858586	-170.0	-555.0	-0.4111776447105789	40.0	0.3839514189272225	1.5000789034754651	-72.0	-68.0	0.056996987711868466	
9.771600109436902	1928.0	2084.0	-0.41227888847230787	1.6960028507638623	1261.0	-15936.0	9.770692826486817	-0.19619865113427343	320.0	1.491109748620478	2432.0	0.0	25453.0	2776.763916015625	713.0	-0.40869565217391307	1.183838383838384	-171.0	-552.0	-0.4171656686626747	48.0	-0.2785037772170909	1.3711426603016894	-60.0	-25.0	-0.05805146412896978	
9.86949600427526	1929.0	2082.0	-0.3896297076263513	1.685160108749621	1253.0	-16192.0	9.927651747394236	-0.23543838136112813	384.0	1.5695892090741874	2560.0	0.0	26093.0	2796.295166015625	709.0	-0.4173913043478261	1.187878787878788	-169.0	-542.0	-0.43712574850299407	58.0	0.4572612730503361	1.430964589230072	-67.0	-73.0	-0.21750036938449577	
9.747954159858061	1934.0	2084.0	-0.4103558417676262	1.6234964651086148	1263.0	-16064.0	9.849172286940528	-0.23543838136112813	384.0	1.491109748620478	2432.0	0.0	26733.0	2815.826416015625	708.0	-0.41956521739130437	1.197979797979798	-164.0	-548.0	-0.42514970059880247	96.0	2.044067429101919	1.0737756840250485	-49.0	-177.0	-0.8113151990058483	
9.650415961575481	1931.0	2081.0	-0.3725306609110959	1.6590439132476071	1271.0	-15808.0	9.692213366033108	-0.19619865113427343	320.0	1.5303494788473329	2496.0	0.0	27373.0	2835.357666015625	712.0	-0.4108695652173913	1.1818181818181819	-172.0	-554.0	-0.4131736526946108	61.0	0.593864626554863	-0.2109008176625358	42.0	-83.0	-0.26449377934539653	
9.650905123400682	1934.0	2080.0	-0.359625109572748	1.6230332820659898	1271.0	-15936.0	9.770692826486817	-0.19619865113427343	320.0	1.491109748620478	2432.0	0.0	28013.0	2854.888916015625	711.0	-0.41304347826086957	1.1818181818181819	-172.0	-537.0	-0.44710578842315374	70.0	-0.22135729136913232	-0.2536336132408046	49.0	-30.0	-0.3932236894437232	
9.590066309777812	1933.0	2078.0	-0.33425196012043923	1.6347268181953685	1276.0	-15616.0	9.574494175352545	-0.19619865113427343	320.0	1.5695892090741874	2560.0	0.0	28653.0	2874.420166015625	703.0	-0.43043478260869567	1.187878787878788	-169.0	-531.0	-0.4590818363273454	37.0	0.6012609725474715	0.16378873365137922	16.0	-83.0	0.1004512686015215	
9.553496231607966	1935.0	2080.0	-0.3574169277394801	1.6100330821953108	1279.0	-15680.0	9.613733905579398	-0.19619865113427343	320.0	1.491109748620478	2432.0	0.0	29293.0	2893.951416015625	711.0	-0.41304347826086957	1.183838383838384	-171.0	-557.0	-0.407185628742515	32.0	1.441722715943135	1.2566735598216812	-61.0	-137.0	0.16809227854399075	
9.541061264842156	1934.0	2081.0	-0.3695993907248549	1.6218351006688834	1280.0	-15680.0	9.613733905579398	-0.23543838136112813	384.0	1.4518700183936235	2368.0	0.0	29933.0	2913.482666015625	705.0	-0.4260869565217391	1.2	-163.0	-540.0	-0.44111776447105794	8.0	0.6055848359777639	1.6900730932622716	-87.0	-82.0	0.5414726687504885	
9.601900078465025	1935.0	2083.0	-0.39497254017716366	1.6101415645395047	1275.0	-15744.0	9.652973635806253	-0.27467811158798283	448.0	1.4126302881667687	2304.0	0.0	30573.0	2933.013916015625	711.0	-0.41304347826086957	1.1898989898989898	-168.0	-554.0	-0.4131736526946108	21.0	-0.7298804998424735	1.865892744623138	-92.0	5.0	0.35710869092998365	
9.748074831229694	1934.0	2083.0	-0.39816559542738167	1.6236195742857336	1263.0	-16064.0	9.849172286940528	-0.27467811158798283	448.0	1.5303494788473329	2496.0	0.0	31213.0	2952.545166015625	715.0	-0.4043478260869565	1.1818181818181819	-172.0	-546.0	-0.42914171656686634	10.0	-0.7066468644245569	2.487268825810215	-134.0	4.0	0.5241767348039414	
9.723446240441339	1932.0	2083.0	-0.39815002871764216	1.647469829587116	1265.0	-16000.0	9.809932556713672	-0.23543838136112813	384.0	1.491109748620478	2432.0	0.0	31853.0	2972.076416015625	709.0	-0.4173913043478261	1.187878787878788	-169.0	-544.0	-0.4331337325349302	47.0	1.0246298997075254	2.7491015586850662	-158.0	-109.0	-0.05587367542293078	
9.687361006537573	1935.0	2082.0	-0.3845058223165818	1.6111008409988359	1268.0	-15936.0	9.770692826486817	-0.19619865113427343	320.0	1.491109748620478	2432.0	0.0	32493.0	2991.607666015625	713.0	-0.40869565217391307	1.1898989898989898	-168.0	-548.0	-0.42514970059880247	33.0	0.4425186630208388	2.6461668567591663	-149.0	-71.0	0.1628751935979285	
9.735521351871812	1934.0	2086.0	-0.43449011609387767	1.6231307942854896	1264.0	-16000.0	9.809932556713672	-0.27467811158798283	448.0	1.5303494788473329	2496.0	0.0	33133.0	3011.138916015625	708.0	-0.41956521739130437	1.1676767676767676	-179.0	-533.0	-0.45508982035928147	25.0	-0.8052015200778917	2.068471096433206	-105.0	10.0	0.2970253992311972	
9.796112346412741	1932.0	2087.0	-0.44838832420404534	1.647694107691966	1259.0	-16192.0	9.927651747394236	-0.23543838136112813	384.0	1.5303494788473329	2496.0	0.0	33773.0	3030.670166015625	711.0	-0.41304347826086957	1.1939393939393939	-166.0	-542.0	-0.43712574850299407	14.0	-0.4660332176781937	2.053165471125187	-106.0	-12.0	0.4609340964353371	
9.807812491050973	1928.0	2087.0	-0.449588282555754	1.6959918806391685	1258.0	-16128.0	9.888412017167381	-0.27467811158798283	448.0	1.5303494788473329	2496.0	0.0	34413.0	3050.201416015625	712.0	-0.4108695652173913	1.1737373737373737	-176.0	-528.0	-0.4650698602794412	30.0	-0.5517936715531008	1.3942055703533964	-61.0	-7.0	0.21844569336952344	
9.881081953880534	1928.0	2086.0	-0.43887534634093456	1.6968317046296124	1252.0	-16256.0	9.966891477621092	-0.3139178418148375	512.0	1.5695892090741874	2560.0	0.0	35053.0	3069.732666015625	714.0	-0.40652173913043477	1.1797979797979798	-173.0	-552.0	-0.4171656686626747	42.0	-1.1160124622596819	0.40629281979402165	8.0	29.0	0.04157837557316716	
9.83194976123457	1926.0	2087.0	-0.45055758926296463	1.7203199458161011	1256.0	-16128.0	9.888412017167381	-0.27467811158798283	448.0	1.6088289393010422	2624.0	0.0	35693.0	3089.263916015625	709.0	-0.4173913043478261	1.1717171717171717	-177.0	-539.0	-0.44311377245508987	61.0	-0.05208645186335219	-0.34585266758213923	54.0	-41.0	-0.2580342685612144	
9.770988117460513	1924.0	2085.0	-0.42542287481002355	1.7440580620650585	1261.0	-16000.0	9.809932556713672	-0.3139178418148375	512.0	1.6088289393010422	2624.0	0.0	36333.0	3108.795166015625	710.0	-0.4152173913043478	1.195959595959596	-165.0	-554.0	-0.4131736526946108	97.0	0.8491914884152881	-0.22176293031173666	43.0	-100.0	-0.8145755650742671	
9.793080450665052	1925.0	2105.0	-0.6694818033240211	1.7297902033408799	1259.0	-16192.0	9.927651747394236	-0.4316370324954016	704.0	1.5695892090741874	2560.0	0.0	36973.0	3128.326416015625	716.0	-0.40217391304347827	1.1737373737373737	-176.0	-540.0	-0.44111776447105794	84.0	0.06680451424868564	-0.3851125946306525	57.0	-49.0	-0.6090330641538937	
9.794153540332385	1919.0	2090.0	-0.48805871821656005	1.8039043217151338	1259.0	-16192.0	9.927651747394236	-0.3531575720416922	576.0	1.7265481299816063	2816.0	0.0	37613.0	3147.857666015625	712.0	-0.4108695652173913	1.187878787878788	-169.0	-533.0	-0.45508982035928147	113.0	0.322703199057539	-0.44525057253452166	61.0	-66.0	-1.052656689785252	
9.794153540332385	1919.0	2090.0	-0.48805871821656005	1.8039043217151338	1259.0	-16128.0	9.888412017167381	-0.3139178418148375	512.0	1.7265481299816063	2816.0	0.0	38253.0	3167.388916015625	715.0	-0.4043478260869565	1.1737373737373737	-176.0	-554.0	-0.4131736526946108	206.0	0.5928411339600782	0.3571434651187452	10.0	-84.0	-2.469806738335799	
9.879987276417621	1924.0	2091.0	-0.5007803180396282	1.7443944792223338	1252.0	-16192.0	9.927651747394236	-0.3139178418148375	512.0	1.5695892090741874	2560.0	0.0	38893.0	3186.920166015625	708.0	-0.41956521739130437	1.1757575757575758	-175.0	-541.0	-0.439121756487026	261.0	0.8022314100662967	0.6458950454136466	-8.0	-98.0	-3.308402542237545	
9.75867813962545	1925.0	2087.0	-0.44931871413690727	1.7316478111223548	1262.0	-16128.0	9.888412017167381	-0.3531575720416922	576.0	1.5303494788473329	2496.0	0.0	39533.0	3206.451416015625	711.0	-0.41304347826086957	1.1919191919191918	-167.0	-543.0	-0.43512974051896214	262.0	1.8564425969266094	0.1833252143759059	18.0	-167.0	-3.3341537795814338	
9.661387760424807	1925.0	2085.0	-0.42296847462251813	1.7309384097254923	1270.0	-16000.0	9.809932556713672	-0.27467811158798283	448.0	1.6088289393010422	2624.0	0.0	40173.0	3225.982666015625	714.0	-0.40652173913043477	1.1696969696969697	-178.0	-555.0	-0.4111776447105789	281.0	1.9228652989315895	-0.5593640577287208	68.0	-172.0	-3.6237913906319017	
9.710157938955877	1927.0	2087.0	-0.44785697072122166	1.7070808410076472	1266.0	-16128.0	9.888412017167381	-0.39239730226854685	640.0	1.648068669527897	2688.0	0.0	40813.0	3245.513916015625	716.0	-0.40217391304347827	1.183838383838384	-171.0	-545.0	-0.43113772455089827	250.0	0.4274162248338499	-1.7035254251071983	150.0	-75.0	-3.137354010157084	
9.63833653258589	1927.0	2076.0	-0.312286950853107	1.7077183271426286	1272.0	-15808.0	9.692213366033108	-0.11771919068056406	192.0	1.5303494788473329	2496.0	0.0	41453.0	3265.045166015625	711.0	-0.41304347826086957	1.197979797979798	-164.0	-540.0	-0.44111776447105794	215.0	0.02911681281363314	-2.1618641778878946	181.0	-49.0	-2.6010516244019004	
9.636412266978466	1930.0	2095.0	-0.5431863263196492	1.6692455124186358	1272.0	-15744.0	9.652973635806253	-0.510116492949111	832.0	1.5695892090741874	2560.0	0.0	42093.0	3284.576416015625	713.0	-0.40869565217391307	1.1717171717171717	-177.0	-545.0	-0.43113772455089827	258.0	0.11112025014812296	-2.516224515012033	206.0	-55.0	-3.255864054212508	
9.527656609544179	1931.0	2088.0	-0.4554002017504323	1.6569876243189008	1281.0	-15616.0	9.574494175352545	-0.23543838136112813	384.0	1.5695892090741874	2560.0	0.0	42733.0	3304.107666015625	716.0	-0.40217391304347827	1.1777777777777778	-174.0	-543.0	-0.43512974051896214	270.0	0.21822651185500758	-2.3664536931174363	196.0	-62.0	-3.439444622532999	
9.528251331284103	1927.0	2079.0	-0.34664172468570287	1.7062739273912848	1281.0	-15616.0	9.574494175352545	-0.07847946045370938	128.0	1.5695892090741874	2560.0	0.0	43373.0	3323.638916015625	713.0	-0.40869565217391307	1.187878787878788	-169.0	-539.0	-0.44311377245508987	244.0	-0.10440138222306221	-2.7945988908795507	225.0	-41.0	-3.040781081234804	
9.514971664916875	1926.0	2087.0	-0.4441559120527892	1.717214181625026	1282.0	-15616.0	9.574494175352545	-0.27467811158798283	448.0	1.5695892090741874	2560.0	0.0	44013.0	3343.170166015625	714.0	-0.40652173913043477	1.1797979797979798	-173.0	-558.0	-0.4051896207584831	237.0	-0.6231897996869393	-2.59783223092776	214.0	-7.0	-2.929129318733169	
9.393776723157666	1924.0	2079.0	-0.3446486277871935	1.7410936905922585	1292.0	-15488.0	9.496014714898834	-0.23543838136112813	384.0	1.6088289393010422	2624.0	0.0	44653.0	3362.701416015625	715.0	-0.4043478260869565	1.1757575757575758	-175.0	-557.0	-0.407185628742515	229.0	-0.6513483876117303	-2.465806779627152	205.0	-5.0	-2.80717472905164	
9.405843199469905	1922.0	2078.0	-0.33318146979992214	1.7654254124774222	1291.0	-15424.0	9.45677498467198	-0.19619865113427343	320.0	1.648068669527897	2688.0	0.0	45293.0	3382.232666015625	716.0	-0.40217391304347827	1.1919191919191918	-167.0	-555.0	-0.4111776447105789	162.0	-0.5834284318529104	-1.2969016612235293	124.0	-8.0	-1.7888425217651212	
9.441816397120272	1923.0	2084.0	-0.40682316790473394	1.7530005347017934	1288.0	-15488.0	9.496014714898834	-0.27467811158798283	448.0	1.6088289393010422	2624.0	0.0	45933.0	3401.763916015625	717.0	-0.4	1.1757575757575758	-175.0	-536.0	-0.44910179640718567	140.0	-0.8743748514002689	-0.030665505998705572	40.0	12.0	-1.451332297113374	
9.539587303027883	1922.0	2081.0	-0.3724606107172683	1.7663700621038285	1280.0	-15744.0	9.652973635806253	-0.27467811158798283	448.0	1.6088289393010422	2624.0	0.0	46573.0	3421.295166015625	717.0	-0.4	1.1818181818181819	-172.0	-541.0	-0.439121756487026	142.0	-1.6355236989927713	0.6232273337567928	0.0	62.0	-1.474139059588019	
9.685156540154836	1920.0	2085.0	-0.4246530863278321	1.791400215261161	1268.0	-15936.0	9.770692826486817	-0.3139178418148375	512.0	1.5695892090741874	2560.0	0.0	47213.0	3440.826416015625	712.0	-0.4108695652173913	1.2	-163.0	-548.0	-0.42514970059880247	133.0	-1.7464201576853489	1.674945704479509	-70.0	70.0	-1.336147965723527	
9.686126228687003	1922.0	2079.0	-0.3510347382876295	1.7680497100847161	1268.0	-15872.0	9.731453096259962	-0.03923973022685469	64.0	1.6873083997547516	2752.0	0.0	47853.0	3460.357666015625	713.0	-0.40869565217391307	1.195959595959596	-165.0	-557.0	-0.407185628742515	183.0	-1.8803623645739829	2.854116617887099	-146.0	79.0	-2.095264817418899	
9.552145099944882	1924.0	2080.0	-0.3600397127325258	1.7425234635106772	1279.0	-15744.0	9.652973635806253	-0.19619865113427343	320.0	1.5695892090741874	2560.0	0.0	48493.0	3479.888916015625	715.0	-0.4043478260869565	1.1757575757575758	-175.0	-543.0	-0.43512974051896214	227.0	1.733738934593538	4.263526136847268	-255.0	-156.0	-2.800607351323122	
9.845240221499589	1932.0	2084.0	-0.4128024586002619	1.6485412450988723	1255.0	-16128.0	9.888412017167381	-0.27467811158798283	448.0	1.5303494788473329	2496.0	0.0	49133.0	3499.420166015625	712.0	-0.4108695652173913	1.195959595959596	-165.0	-543.0	-0.43512974051896214	214.0	1.0245913568418512	3.750251424330979	-218.0	-110.0	-2.595797244366898	
9.649816922276441	1933.0	2088.0	-0.4573855152940719	1.6340929887686182	1271.0	-15872.0	9.731453096259962	-0.27467811158798283	448.0	1.4518700183936235	2368.0	0.0	49773.0	3518.951416015625	721.0	-0.391304347826087	1.185858585858586	-170.0	-560.0	-0.4011976047904192	190.0	-0.6780578304036174	3.4793424536038406	-193.0	1.0	-2.2137517410875986	
9.747835647265989	1935.0	2086.0	-0.4344978994487474	1.6112056666347985	1263.0	-16000.0	9.809932556713672	-0.23543838136112813	384.0	1.4518700183936235	2368.0	0.0	50413.0	3538.482666015625	710.0	-0.4152173913043478	1.1676767676767676	-179.0	-536.0	-0.44910179640718567	229.0	1.4156218045002291	3.1774385417784665	-181.0	-136.0	-2.827844430972759	
9.748074831229694	1934.0	2083.0	-0.39816559542738167	1.6236195742857336	1263.0	-16000.0	9.809932556713672	-0.3531575720416922	576.0	1.5303494788473329	2496.0	0.0	51053.0	3558.013916015625	717.0	-0.4	1.1898989898989898	-168.0	-549.0	-0.42315369261477054	230.0	0.9219958591197275	2.942538205129694	-163.0	-104.0	-2.8381172969942394	
9.711864608395182	1935.0	2081.0	-0.37280801268481234	1.6114628551137298	1266.0	-15936.0	9.770692826486817	-0.27467811158798283	448.0	1.4518700183936235	2368.0	0.0	51693.0	3577.545166015625	717.0	-0.4	1.187878787878788	-169.0	-548.0	-0.42514970059880247	229.0	-0.6554137236114406	1.7323772172336898	-75.0	-2.0	-2.8071340756916427	
9.822305347473188	1932.0	2072.0	-0.2660270658088527	1.6497796502865223	1257.0	-16192.0	9.927651747394236	-0.11771919068056406	192.0	1.491109748620478	2432.0	0.0	52333.0	3597.076416015625	715.0	-0.4043478260869565	1.1818181818181819	-172.0	-538.0	-0.4451097804391218	220.0	-0.18359772775346778	1.1993109150627161	-42.0	-33.0	-2.674970106372655	
9.664191266106583	1938.0	2075.0	-0.2979663562282919	1.575589959942156	1270.0	-15808.0	9.692213366033108	-0.27467811158798283	448.0	1.491109748620478	2432.0	0.0	52973.0	3616.607666015625	715.0	-0.4043478260869565	1.1656565656565656	-180.0	-536.0	-0.44910179640718567	200.0	1.0413353847278677	0.6071356463656313	-9.0	-113.0	-2.383036927991766	
9.60311326852001	1938.0	2076.0	-0.30892551079734876	1.5748695884205997	1275.0	-15744.0	9.652973635806253	-0.15695892090741875	256.0	1.4518700183936235	2368.0	0.0	53613.0	3636.138916015625	718.0	-0.3978260869565217	1.1919191919191918	-167.0	-549.0	-0.42315369261477054	76.0	-0.682941441182369	-0.2778271812922386	53.0	0.0	-0.4798626007973018	
9.614813413158242	1934.0	2076.0	-0.3101254691490575	1.6231673613678024	1274.0	-15808.0	9.692213366033108	-0.07847946045370938	128.0	1.4518700183936235	2368.0	0.0	54253.0	3655.670166015625	718.0	-0.3978260869565217	1.1777777777777778	-174.0	-543.0	-0.43512974051896214	44.0	-1.1389817149475556	-0.32552447383905037	57.0	30.0	0.011389817149475557	
9.565446354107692	1935.0	2082.0	-0.38204363877420666	1.609906316309961	1278.0	-15808.0	9.692213366033108	-0.15695892090741875	256.0	1.491109748620478	2432.0	0.0	54893.0	3675.201416015625	716.0	-0.40217391304347827	1.1939393939393939	-166.0	-543.0	-0.43512974051896214	54.0	-2.5299643115344344	0.39206421874667385	16.0	121.0	-0.12679161163750738	
9.759402167855239	1925.0	2081.0	-0.3761772360954402	1.7323864661850674	1262.0	-16064.0	9.849172286940528	-0.19619865113427343	320.0	1.6088289393010422	2624.0	0.0	55533.0	3694.732666015625	719.0	-0.39565217391304347	1.185858585858586	-170.0	-558.0	-0.4051896207584831	66.0	-2.3717536951176172	1.0480233049897414	-28.0	111.0	-0.3108832235050976	
9.66176272721705	1931.0	2088.0	-0.458108603647045	1.6583016014766634	1270.0	-15936.0	9.770692826486817	-0.19619865113427343	320.0	1.5695892090741874	2560.0	0.0	56173.0	3714.263916015625	718.0	-0.3978260869565217	1.1818181818181819	-172.0	-545.0	-0.43113772455089827	103.0	-0.6873867235174856	1.2231659369360612	-46.0	1.0	-0.8904645358066503	
9.747346485440788	1932.0	2087.0	-0.4474034507870953	1.647216297816416	1263.0	-16000.0	9.809932556713672	-0.27467811158798283	448.0	1.5695892090741874	2560.0	0.0	56813.0	3733.795166015625	715.0	-0.4043478260869565	1.183838383838384	-171.0	-555.0	-0.4111776447105789	55.0	-1.9389156134460883	1.1911158042737886	-40.0	83.0	-0.147911224093676	
9.771360925473198	1929.0	2087.0	-0.44861119249367365	1.6835889431129272	1261.0	-16128.0	9.888412017167381	-0.3531575720416922	576.0	1.648068669527897	2688.0	0.0	57453.0	3753.326416015625	717.0	-0.4	1.1818181818181819	-172.0	-543.0	-0.43512974051896214	80.0	-1.5767223249646576	0.9562287206488773	-25.0	59.0	-0.5317612938606197	
9.625188331488088	1931.0	2088.0	-0.45736994858433244	1.6579432440700008	1273.0	-15744.0	9.652973635806253	-0.27467811158798283	448.0	1.5695892090741874	2560.0	0.0	58093.0	3772.857666015625	719.0	-0.39565217391304347	1.1797979797979798	-173.0	-539.0	-0.44311377245508987	94.0	-1.6882209881884909	0.7626110854016528	-11.0	66.0	-0.7435740638823737	
9.697725130969626	1927.0	2089.0	-0.47199124504747314	1.7067151701845222	1267.0	-16000.0	9.809932556713672	-0.3531575720416922	576.0	1.5695892090741874	2560.0	0.0	58733.0	3792.388916015625	715.0	-0.4043478260869565	1.187878787878788	-169.0	-544.0	-0.4331337325349302	80.0	-2.4318483920473764	1.390558088620983	-50.0	115.0	-0.5232100331897924	
9.722338610301076	1922.0	2082.0	-0.38834413237107557	1.7680387399600224	1265.0	-16064.0	9.849172286940528	-0.27467811158798283	448.0	1.6873083997547516	2752.0	0.0	59373.0	3811.920166015625	715.0	-0.4043478260869565	1.1757575757575758	-175.0	-555.0	-0.4111776447105789	101.0	-0.7096793996487841	2.033095979555577	-100.0	3.0	-0.8598233580947668	
9.746482356823346	1923.0	2085.0	-0.42516887310091633	1.7558637372468624	1263.0	-15936.0	9.770692826486817	-0.27467811158798283	448.0	1.648068669527897	2688.0	0.0	60013.0	3831.451416015625	714.0	-0.40652173913043477	1.1696969696969697	-178.0	-542.0	-0.43712574850299407	141.0	-0.5263778305982205	2.554417918546396	-134.0	-9.0	-1.4700213927966796	
9.747092190020178	1926.0	2083.0	-0.40007307542232395	1.7199762152423637	1263.0	-16064.0	9.849172286940528	-0.27467811158798283	448.0	1.5695892090741874	2560.0	0.0	60653.0	3850.982666015625	715.0	-0.4043478260869565	1.1898989898989898	-168.0	-541.0	-0.439121756487026	160.0	-1.042910399592642	1.8373098295552017	-83.0	24.0	-1.7538294511371535	
9.758548833135587	1921.0	2084.0	-0.4137017151136449	1.7801954591320261	1262.0	-16000.0	9.809932556713672	-0.19619865113427343	320.0	1.7265481299816063	2816.0	0.0	61293.0	3870.513916015625	716.0	-0.40217391304347827	1.1737373737373737	-176.0	-533.0	-0.45508982035928147	124.0	-0.6231102691025422	1.8311681110330582	-86.0	-3.0	-1.2104989353317883	
9.624194896380782	1918.0	2083.0	-0.3995183718748911	1.8151383315101186	1273.0	-15936.0	9.770692826486817	-0.19619865113427343	320.0	1.6873083997547516	2752.0	0.0	61933.0	3890.045166015625	717.0	-0.4	1.1797979797979798	-173.0	-545.0	-0.43113772455089827	146.0	0.4191418599163827	2.026883956989733	-103.0	-71.0	-1.5555222170782514	
9.660646461958557	1917.0	2083.0	-0.4004954619369714	1.82754126903636	1270.0	-15808.0	9.692213366033108	-0.3139178418148375	512.0	1.648068669527897	2688.0	0.0	62573.0	3909.576416015625	715.0	-0.4043478260869565	1.185858585858586	-170.0	-550.0	-0.4211576846307386	146.0	-0.20562980668456388	2.4751656661845587	-130.0	-30.0	-1.549274500412242	
9.648579985646313	1919.0	2084.0	-0.4119626199242428	1.803209547151196	1271.0	-15808.0	9.692213366033108	-0.3139178418148375	512.0	1.8050275904353157	2944.0	0.0	63213.0	3929.107666015625	717.0	-0.4	1.1818181818181819	-172.0	-546.0	-0.42914171656686634	156.0	-0.007408292805295806	2.4974381065049274	-132.0	-43.0	-1.7033479703038865	
9.647737444824454	1920.0	2092.0	-0.5092461556468311	1.7901800936146675	1271.0	-15936.0	9.770692826486817	-0.39239730226854685	640.0	1.6873083997547516	2752.0	0.0	63853.0	3948.638916015625	719.0	-0.39565217391304347	1.1777777777777778	-174.0	-543.0	-0.43512974051896214	126.0	-0.24812371179683332	2.5259259565926486	-134.0	-27.0	-1.244667051855416	
9.672486706984442	1922.0	2091.0	-0.49707147601632606	1.7664529474904036	1269.0	-16064.0	9.849172286940528	-0.39239730226854685	640.0	1.6873083997547516	2752.0	0.0	64493.0	3968.170166015625	715.0	-0.4043478260869565	1.1757575757575758	-175.0	-542.0	-0.43712574850299407	119.0	-1.3271331353868459	1.9520887961720181	-91.0	43.0	-1.1274130792925194	
9.793550183474228	1919.0	2095.0	-0.5490099499177826	1.80328877582954	1259.0	-16000.0	9.809932556713672	-0.3531575720416922	576.0	1.6873083997547516	2752.0	0.0	65133.0	3987.701416015625	716.0	-0.40217391304347827	1.1737373737373737	-176.0	-551.0	-0.4191616766467066	148.0	-1.9931014698812937	1.7911952215822735	-76.0	86.0	-1.561818034730845	
9.73331472670952	1918.0	2088.0	-0.46268556876425126	1.8155978578445122	1264.0	-16000.0	9.809932556713672	-0.3531575720416922	576.0	1.6873083997547516	2752.0	0.0	237.0	4007.232666015625	714.0	-0.40652173913043477	1.1696969696969697	-178.0	-536.0	-0.44910179640718567	226.0	-0.07172116660305108	1.7349046314532495	-78.0	-40.0	-2.767343624835871	
9.721496069479215	1923.0	2090.0	-0.4856276680936638	1.7550092864234936	1265.0	-16000.0	9.809932556713672	-0.3531575720416922	576.0	1.648068669527897	2688.0	0.0	877.0	4026.763916015625	718.0	-0.3978260869565217	1.185858585858586	-170.0	-558.0	-0.4051896207584831	281.0	-0.2221224390338592	1.344050027364409	-49.0	-31.0	-3.602341513252247	
9.660418071892643	1923.0	2091.0	-0.49658682266272075	1.7542889149019374	1270.0	-15936.0	9.770692826486817	-0.27467811158798283	448.0	1.7265481299816063	2816.0	0.0	1517.0	4046.295166015625	712.0	-0.4108695652173913	1.185858585858586	-170.0	-547.0	-0.4271457085828344	260.0	-1.261767160135169	-0.11060924400689892	52.0	36.0	-3.272553431060246	
9.745878999965191	1923.0	2090.0	-0.48612010480213885	1.7552481913612688	1263.0	-16064.0	9.849172286940528	-0.3139178418148375	512.0	1.6088289393010422	2624.0	0.0	2157.0	4065.826416015625	716.0	-0.40217391304347827	1.1777777777777778	-174.0	-549.0	-0.42315369261477054	226.0	-2.733801478485944	-0.49360768228797675	83.0	132.0	-2.740722821717042	
9.80866150821151	1930.0	2082.0	-0.3881601808557959	1.6725182662856048	1258.0	-16192.0	9.927651747394236	-0.19619865113427343	320.0	1.491109748620478	2432.0	0.0	2797.0	4085.357666015625	717.0	-0.4	1.1797979797979798	-173.0	-556.0	-0.40918163672654695	284.0	-1.9347959384425535	-1.0536634317048688	119.0	79.0	-3.6308421546840157	
9.527038141229117	1924.0	2086.0	-0.43268875406551777	1.7415459035101897	1281.0	-15680.0	9.613733905579398	-0.3139178418148375	512.0	1.648068669527897	2688.0	0.0	3437.0	4104.888916015625	714.0	-0.40652173913043477	1.1757575757575758	-175.0	-552.0	-0.4171656686626747	230.0	-1.636413900944084	-1.197237555030134	125.0	60.0	-2.8125331993936014	
9.661756250878376	1928.0	2085.0	-0.4222531696244148	1.694804669366756	1270.0	-15936.0	9.770692826486817	-0.3139178418148375	512.0	1.6088289393010422	2624.0	0.0	4077.0	4124.420166015625	710.0	-0.4152173913043478	1.1474747474747475	-189.0	-546.0	-0.42914171656686634	268.0	-2.0529104753743828	-0.8302889440167072	104.0	87.0	-3.386315001710135	
9.551918868658525	1931.0	2089.0	-0.46808288479915183	1.657103420079557	1279.0	-15680.0	9.613733905579398	-0.39239730226854685	640.0	1.5303494788473329	2496.0	0.0	4717.0	4143.951416015625	711.0	-0.41304347826086957	1.1616161616161615	-182.0	-523.0	-0.47504990019960086	294.0	-0.5158143830527798	-0.20181316163794913	56.0	-13.0	-3.797123224990765	
9.612871877314351	1929.0	2087.0	-0.44541035388858596	1.6820360610173897	1274.0	-15872.0	9.731453096259962	-0.27467811158798283	448.0	1.5695892090741874	2560.0	0.0	5357.0	4163.482666015625	714.0	-0.40652173913043477	1.1696969696969697	-178.0	-550.0	-0.4211576846307386	276.0	-0.9803955816615815	0.6441588255899446	1.0	18.0	-3.5187131544495442	
9.650181095170893	1934.0	2086.0	-0.43276658761421505	1.6222946270032772	1271.0	-15744.0	9.652973635806253	-0.27467811158798283	448.0	1.6088289393010422	2624.0	0.0	5997.0	4183.013916015625	714.0	-0.40652173913043477	1.1656565656565656	-180.0	-538.0	-0.4451097804391218	283.0	-0.8877470427143915	0.8068865836416853	-10.0	12.0	-3.6261035181660124	
9.699186140106551	1933.0	2083.0	-0.39741915700979935	1.6351863445297623	1267.0	-15936.0	9.770692826486817	-0.15695892090741875	256.0	1.491109748620478	2432.0	0.0	6637.0	4202.545166015625	715.0	-0.4043478260869565	1.185858585858586	-170.0	-557.0	-0.407185628742515	290.0	-0.543714497260231	1.5518181647655784	-61.0	-10.0	-3.73600772194755	
9.710526429409446	1930.0	2087.0	-0.4471416657231183	1.670947100648911	1266.0	-15872.0	9.731453096259962	-0.3139178418148375	512.0	1.4518700183936235	2368.0	0.0	7277.0	4222.076416015625	716.0	-0.40217391304347827	1.1777777777777778	-174.0	-550.0	-0.4211576846307386	266.0	0.045588479187283815	1.7960519921110762	-81.0	-48.0	-3.3768817403051807	
9.638961477239631	1937.0	2081.0	-0.37085383256065163	1.5866569800612471	1272.0	-16000.0	9.809932556713672	-0.19619865113427343	320.0	1.491109748620478	2432.0	0.0	7917.0	4241.607666015625	713.0	-0.40869565217391307	1.1636363636363636	-181.0	-534.0	-0.45309381237524954	305.0	2.1326198641047265	2.36417601587606	-127.0	-184.0	-3.990907947690477	
9.60227072769815	1939.0	2084.0	-0.40620904651993706	1.561840134884071	1275.0	-15872.0	9.731453096259962	-0.27467811158798283	448.0	1.3733905579399142	2240.0	0.0	8557.0	4261.138916015625	716.0	-0.40217391304347827	1.1797979797979798	-173.0	-557.0	-0.407185628742515	256.0	1.8434222226352104	1.8597416621026237	-94.0	-165.0	-3.242768822986809	
9.65078445202905	1934.0	2081.0	-0.37181535591299253	1.622910172888871	1271.0	-15808.0	9.692213366033108	-0.15695892090741875	256.0	1.5303494788473329	2496.0	0.0	9197.0	4280.670166015625	716.0	-0.40217391304347827	1.1737373737373737	-176.0	-557.0	-0.407185628742515	196.0	-1.0338741473087814	1.7536345208437742	-76.0	23.0	-2.301448330770258	
9.833412929151054	1933.0	2082.0	-0.3879373125661676	1.6366234308646435	1256.0	-16192.0	9.927651747394236	-0.15695892090741875	256.0	1.5303494788473329	2496.0	0.0	9837.0	4300.201416015625	715.0	-0.4043478260869565	1.1757575757575758	-175.0	-536.0	-0.44910179640718567	196.0	-1.7532144279339832	1.9536256418565476	-86.0	70.0	-2.2942549279640065	
9.809385536441296	1930.0	2076.0	-0.31501870281432887	1.6732569213483175	1258.0	-16128.0	9.888412017167381	-0.15695892090741875	256.0	1.5303494788473329	2496.0	0.0	10477.0	4319.732666015625	710.0	-0.4152173913043478	1.185858585858586	-170.0	-548.0	-0.42514970059880247	210.0	-1.2822640326699168	3.218719926951159	-172.0	40.0	-2.511892188570639	
9.785256901375933	1936.0	2080.0	-0.36185664147062513	1.6002580989845947	1260.0	-16000.0	9.809932556713672	-0.27467811158798283	448.0	1.5303494788473329	2496.0	0.0	11117.0	4339.263916015625	714.0	-0.40652173913043477	1.1676767676767676	-179.0	-542.0	-0.43712574850299407	262.0	0.5681719946213678	3.3464521166621677	-187.0	-81.0	-3.321271073558381	
9.809876857046053	1934.0	2076.0	-0.3140649628168577	1.6250786008700024	1258.0	-16128.0	9.888412017167381	-0.11771919068056406	192.0	1.5695892090741874	2560.0	0.0	11757.0	4358.795166015625	715.0	-0.4043478260869565	1.1757575757575758	-175.0	-536.0	-0.44910179640718567	201.0	-1.0202222486447308	3.1950065336119033	-172.0	23.0	-2.3776304771333243	
10.004815312003117	1932.0	2075.0	-0.306291080143149	1.6512021097884786	1242.0	-16512.0	10.123850398528509	-0.19619865113427343	320.0	1.4518700183936235	2368.0	0.0	12397.0	4378.326416015625	713.0	-0.40869565217391307	1.1818181818181819	-172.0	-556.0	-0.40918163672654695	188.0	-0.5794522886276953	4.100947935279503	-235.0	-5.0	-2.184319545554788	
9.957148446053196	1938.0	2072.0	-0.2673048577092587	1.5788261467268123	1246.0	-16320.0	10.006131207847945	-0.15695892090741875	256.0	1.4518700183936235	2368.0	0.0	13037.0	4397.857666015625	715.0	-0.4043478260869565	1.1717171717171717	-177.0	-546.0	-0.42914171656686634	245.0	1.9736583528192562	3.9729207444665717	-236.0	-172.0	-3.076770804060512	
9.79853656774316	1937.0	2072.0	-0.2643424541035388	1.5893178447508536	1259.0	-16128.0	9.888412017167381	-0.11771919068056406	192.0	1.4126302881667687	2304.0	0.0	13677.0	4417.388916015625	711.0	-0.41304347826086957	1.183838383838384	-171.0	-542.0	-0.43712574850299407	206.0	1.743450905553864	3.380509300877886	-197.0	-157.0	-2.4813128360517367	
9.774397138780003	1938.0	2071.0	-0.25142133605545147	1.5771574688706185	1261.0	-16128.0	9.888412017167381	-0.11771919068056406	192.0	1.491109748620478	2432.0	0.0	14317.0	4436.920166015625	714.0	-0.40652173913043477	1.1797979797979798	-173.0	-553.0	-0.41516966067864275	142.0	0.3009244889979477	2.422483523380884	-129.0	-63.0	-1.4935035414679263	
9.760623993028458	1932.0	2078.0	-0.3379374520791322	1.6484437328793724	1262.0	-16128.0	9.888412017167381	-0.15695892090741875	256.0	1.5695892090741874	2560.0	0.0	14957.0	4456.451416015625	717.0	-0.4	1.1737373737373737	-176.0	-551.0	-0.4191616766467066	65.0	0.1869155466917231	2.128701875583378	-112.0	-55.0	-0.32126079044790584	
9.748680346867408	1935.0	2079.0	-0.34916617506703584	1.61206743087463	1263.0	-16064.0	9.849172286940528	-0.27467811158798283	448.0	1.491109748620478	2432.0	0.0	15597.0	4475.982666015625	711.0	-0.41304347826086957	1.1555555555555554	-185.0	-529.0	-0.46307385229540926	69.0	1.096906770554632	2.6375150889073513	-150.0	-114.0	-0.39119720458767565	
9.662975917272039	1934.0	2081.0	-0.3720615742672301	1.6230296253577585	1270.0	-16000.0	9.809932556713672	-0.23543838136112813	384.0	1.5303494788473329	2496.0	0.0	16237.0	4495.513916015625	711.0	-0.41304347826086957	1.1737373737373737	-176.0	-548.0	-0.42514970059880247	112.0	1.7529701420210582	2.902870345285171	-169.0	-157.0	-1.0517502337396023	
9.626772170776201	1938.0	2082.0	-0.3825594255472909	1.5743698382956621	1273.0	-15872.0	9.731453096259962	-0.27467811158798283	448.0	1.4518700183936235	2368.0	0.0	16877.0	4515.045166015625	716.0	-0.40217391304347827	1.1595959595959595	-183.0	-543.0	-0.43512974051896214	156.0	1.3876582033387144	2.3403714633808006	-128.0	-134.0	-1.7172986352653266	
9.662613903157144	1934.0	2084.0	-0.40863231328796357	1.6226602978264022	1270.0	-15936.0	9.770692826486817	-0.23543838136112813	384.0	1.4518700183936235	2368.0	0.0	17517.0	4534.576416015625	716.0	-0.40217391304347827	1.1676767676767676	-179.0	-537.0	-0.44710578842315374	143.0	0.9248012351635917	1.899909946926737	-97.0	-104.0	-1.514951434404868	
9.712108109918002	1936.0	2080.0	-0.3603793313452	1.5995413841712698	1266.0	-16000.0	9.809932556713672	-0.19619865113427343	320.0	1.5303494788473329	2496.0	0.0	18157.0	4554.107666015625	715.0	-0.4043478260869565	1.1757575757575758	-175.0	-551.0	-0.4191616766467066	102.0	-0.2543596928826652	1.5372464767917629	-69.0	-27.0	-0.8795856806377134	
9.735398521720622	1933.0	2086.0	-0.4347285510932455	1.6351753744050683	1264.0	-16064.0	9.849172286940528	-0.3531575720416922	576.0	1.5303494788473329	2496.0	0.0	18797.0	4573.638916015625	717.0	-0.4	1.1696969696969697	-178.0	-537.0	-0.44710578842315374	106.0	0.2027694263396692	1.267983690199919	-53.0	-57.0	-0.9449934737310773	
9.674691173367178	1937.0	2088.0	-0.4569242120050757	1.5861535732280783	1269.0	-15936.0	9.770692826486817	-0.3139178418148375	512.0	1.5303494788473329	2496.0	0.0	19437.0	4593.170166015625	712.0	-0.4108695652173913	1.1818181818181819	-172.0	-538.0	-0.4451097804391218	109.0	0.8302493401492559	1.1361811607670502	-47.0	-98.0	-0.9968956492950288	
9.649700568463928	1935.0	2091.0	-0.4934793843160698	1.6096345009981046	1271.0	-15872.0	9.731453096259962	-0.3531575720416922	576.0	1.3733905579399142	2240.0	0.0	20077.0	4612.701416015625	710.0	-0.4152173913043478	1.1737373737373737	-176.0	-526.0	-0.46906187624750506	116.0	0.8062510185024971	0.3774923079323218	4.0	-97.0	-1.1031195444055573	
9.649944069986748	1936.0	2090.0	-0.48105070297645747	1.5977130300556448	1271.0	-15744.0	9.652973635806253	-0.27467811158798283	448.0	1.4126302881667687	2304.0	0.0	20717.0	4632.232666015625	716.0	-0.40217391304347827	1.1515151515151516	-187.0	-544.0	-0.4331337325349302	154.0	0.0907116160729233	6.366086200755502E-4	34.0	-51.0	-1.6739109184420982	
9.68688695616928	1939.0	2090.0	-0.4810740530410667	1.5619376471035709	1268.0	-15936.0	9.770692826486817	-0.27467811158798283	448.0	1.491109748620478	2432.0	0.0	21357.0	4651.763916015625	714.0	-0.40652173913043477	1.1696969696969697	-178.0	-529.0	-0.46307385229540926	206.0	-0.639510748675167	-0.09681497878237544	46.0	-4.0	-2.4574832195094465	
9.61470569446396	1940.0	2083.0	-0.39402658353456227	1.5500381164104984	1274.0	-15808.0	9.692213366033108	-0.27467811158798283	448.0	1.491109748620478	2432.0	0.0	21997.0	4671.295166015625	716.0	-0.40217391304347827	1.1797979797979798	-173.0	-546.0	-0.42914171656686634	228.0	-0.6481133696385856	-0.6225623408776042	82.0	-4.0	-2.791997953756086	
9.491584328317765	1940.0	2093.0	-0.5134668633946322	1.5476124999504357	1284.0	-15616.0	9.574494175352545	-0.3139178418148375	512.0	1.3733905579399142	2240.0	0.0	22637.0	4690.826416015625	711.0	-0.41304347826086957	1.1515151515151516	-187.0	-533.0	-0.45508982035928147	188.0	-1.8266711601994374	-0.9096969056219217	105.0	73.0	-2.1718473568390704	
9.590320605198425	1939.0	2082.0	-0.38158233548521053	1.5619669007694208	1276.0	-15744.0	9.652973635806253	-0.23543838136112813	384.0	1.4126302881667687	2304.0	0.0	23277.0	4710.357666015625	717.0	-0.4	1.1696969696969697	-178.0	-534.0	-0.45309381237524954	174.0	-2.975501847206593	-0.8982254150648871	109.0	148.0	-1.9474312933150066	
9.516445626731148	1938.0	2087.0	-0.44129469206037575	1.5726792201900808	1282.0	-15488.0	9.496014714898834	-0.3531575720416922	576.0	1.4126302881667687	2304.0	0.0	23917.0	4729.888916015625	713.0	-0.40869565217391307	1.1616161616161615	-182.0	-549.0	-0.42315369261477054	199.0	-2.886078577976762	-0.7842926228911166	102.0	142.0	-2.3285536628894343	
9.601779407093392	1935.0	2084.0	-0.4071627865174082	1.610018455362386	1275.0	-15808.0	9.692213366033108	-0.27467811158798283	448.0	1.491109748620478	2432.0	0.0	24557.0	4749.420166015625	714.0	-0.40652173913043477	1.1696969696969697	-178.0	-556.0	-0.40918163672654695	172.0	-2.478284477133515	-0.31935582038683286	68.0	116.0	-1.921985216065167	
9.540106687766896	1939.0	2094.0	-0.5268804181511946	1.5600117807684457	1280.0	-15808.0	9.692213366033108	-0.4316370324954016	704.0	1.4126302881667687	2304.0	0.0	25197.0	4768.951416015625	710.0	-0.4152173913043478	1.1777777777777778	-174.0	-541.0	-0.439121756487026	244.0	-2.1715625393546913	0.7525738764813978	-2.0	96.0	-3.020109469663488	
9.600824830018134	1940.0	2097.0	-0.5644438139437479	1.548195135461948	1275.0	-15808.0	9.692213366033108	-0.4316370324954016	704.0	1.3733905579399142	2240.0	0.0	25837.0	4788.482666015625	712.0	-0.4108695652173913	1.1676767676767676	-179.0	-551.0	-0.4191616766467066	186.0	-3.0673837803033988	0.83960787874127	-6.0	155.0	-2.1290219796874608	
9.56460597206539	1937.0	2091.0	-0.4912789858376716	1.5847091734767347	1278.0	-15744.0	9.652973635806253	-0.3531575720416922	576.0	1.4518700183936235	2368.0	0.0	26477.0	4808.013916015625	715.0	-0.4043478260869565	1.1575757575757575	-184.0	-541.0	-0.439121756487026	270.0	-3.2475964804303303	0.9782158630076924	-11.0	166.0	-3.4047863926101454	
9.512336323757012	1935.0	2118.0	-0.8199076336060588	1.6049965760581357	1282.0	-15680.0	9.613733905579398	-0.510116492949111	832.0	1.4518700183936235	2368.0	0.0	27117.0	4827.545166015625	710.0	-0.4152173913043478	1.1717171717171717	-177.0	-534.0	-0.45309381237524954	222.0	-3.549280883459888	0.7751090278203648	2.0	186.0	-2.671731525766162	
9.479125614976816	1928.0	2083.0	-0.394179401630363	1.693259100687681	1285.0	-15488.0	9.496014714898834	-0.39239730226854685	640.0	1.6088289393010422	2624.0	0.0	27757.0	4847.076416015625	710.0	-0.4152173913043478	1.1737373737373737	-176.0	-552.0	-0.4171656686626747	300.0	-3.195625667246381	2.0273324036011213	-80.0	163.0	-3.86157986500054	
9.6110402189443	1919.0	2092.0	-0.5087459355834864	1.8018663163275837	1274.0	-15744.0	9.652973635806253	-0.3531575720416922	576.0	1.6873083997547516	2752.0	0.0	28397.0	4866.607666015625	708.0	-0.41956521739130437	1.1616161616161615	-182.0	-534.0	-0.45309381237524954	309.0	-2.296158072378106	3.094642525278837	-155.0	105.0	-4.007456670226789	
9.513389984408319	1920.0	2094.0	-0.5309182464307074	1.7886198981026673	1282.0	-15680.0	9.613733905579398	-0.5493562231759657	896.0	1.7265481299816063	2816.0	0.0	29037.0	4886.138916015625	710.0	-0.4152173913043478	1.1696969696969697	-178.0	-540.0	-0.44111776447105794	464.0	-2.2129672025655878	4.56245936351424	-247.0	99.0	-6.365703027594116	
9.576653019361604	1926.0	2081.0	-0.3722455257825097	1.718550099032176	1277.0	-15808.0	9.692213366033108	-0.4316370324954016	704.0	1.648068669527897	2688.0	0.0	29677.0	4905.670166015625	708.0	-0.41956521739130437	1.1797979797979798	-173.0	-554.0	-0.4131736526946108	306.0	-0.4299649079122536	5.496663519408262	-324.0	-15.0	-3.9804912254455926	
9.601772930754718	1932.0	2081.0	-0.37130735249477803	1.6465215232524784	1275.0	-15808.0	9.692213366033108	-0.19619865113427343	320.0	1.491109748620478	2432.0	0.0	30317.0	4925.201416015625	710.0	-0.4152173913043478	1.1636363636363636	-181.0	-553.0	-0.41516966067864275	351.0	-1.0671441167766509	5.388477573223227	-312.0	26.0	-4.658530079744781	
9.845720748206558	1931.0	2079.0	-0.3520896618984071	1.661201371104045	1255.0	-16256.0	9.966891477621092	-0.19619865113427343	320.0	1.5303494788473329	2496.0	0.0	30957.0	4944.732666015625	705.0	-0.4260869565217391	1.1757575757575758	-175.0	-538.0	-0.4451097804391218	210.0	-3.6813322813996097	4.270252798202176	-231.0	197.0	-2.4879015060833427	
9.809883333384729	1937.0	2079.0	-0.3499203968394879	1.5885755329799098	1258.0	-16128.0	9.888412017167381	-0.3139178418148375	512.0	1.4518700183936235	2368.0	0.0	31597.0	4964.263916015625	709.0	-0.4173913043478261	1.1636363636363636	-181.0	-528.0	-0.4650698602794412	270.0	-3.030688385713437	2.7172419981461307	-128.0	153.0	-3.4069554735573147	
9.904889591642611	1941.0	2104.0	-0.6556925621820295	1.538275102824726	1250.0	-16448.0	10.084610668301655	-0.8240343347639485	1344.0	1.3733905579399142	2240.0	0.0	32237.0	4983.795166015625	707.0	-0.4217391304347826	1.1656565656565656	-180.0	-551.0	-0.4191616766467066	133.0	-4.615485166486974	1.7696851028552207	-63.0	257.0	-1.3074573156355107	
9.95704720369759	1947.0	2082.0	-0.3870614061173937	1.469193833879416	1246.0	-16320.0	10.006131207847945	-0.19619865113427343	320.0	1.3341508277130594	2176.0	0.0	32877.0	5003.326416015625	704.0	-0.4282608695652174	1.1676767676767676	-179.0	-527.0	-0.4670658682634731	231.0	-3.025541046223431	1.1039521102748324	-22.0	152.0	-2.8138510534160925	
9.78671359295374	1940.0	2072.0	-0.2633809307511979	1.5530646519232296	1260.0	-16064.0	9.849172286940528	-0.15695892090741875	256.0	1.5303494788473329	2496.0	0.0	33517.0	5022.857666015625	708.0	-0.41956521739130437	1.1676767676767676	-179.0	-546.0	-0.42914171656686634	117.0	-2.798086565702	0.6289625688119662	4.0	138.0	-1.0822852940387975	
9.846705548195631	1940.0	2080.0	-0.36213399324434153	1.5526770408507173	1255.0	-16192.0	9.927651747394236	-0.3531575720416922	576.0	1.4126302881667687	2304.0	0.0	34157.0	5042.388916015625	709.0	-0.4173913043478261	1.1454545454545455	-190.0	-536.0	-0.44910179640718567	130.0	-3.357957074121406	0.09113065526819375	43.0	174.0	-1.274405220133311	
9.895352896575512	1941.0	2082.0	-0.3872609243424128	1.540864052252451	1251.0	-16192.0	9.927651747394236	-0.27467811158798283	448.0	1.4126302881667687	2304.0	0.0	34797.0	5061.920166015625	707.0	-0.4217391304347826	1.1595959595959595	-183.0	-534.0	-0.45309381237524954	163.0	-3.740803132442883	0.6775829214872786	7.0	199.0	-1.7724779002345068	
9.809891968502962	1941.0	2083.0	-0.3977276422029947	1.5399047757931197	1258.0	-16064.0	9.849172286940528	-0.23543838136112813	384.0	1.4518700183936235	2368.0	0.0	35437.0	5081.451416015625	704.0	-0.4282608695652174	1.1777777777777778	-174.0	-551.0	-0.4191616766467066	150.0	-2.1990659131427766	1.1770619194500063	-34.0	99.0	-1.5901766412488005	
9.797207023875657	1936.0	2082.0	-0.38648335250535165	1.6001313330992448	1259.0	-16128.0	9.888412017167381	-0.23543838136112813	384.0	1.4518700183936235	2368.0	0.0	36077.0	5100.982666015625	706.0	-0.42391304347826086	1.1555555555555554	-185.0	-537.0	-0.44710578842315374	133.0	-1.2762167966860558	1.1174819193695504	-35.0	39.0	-1.34084999933352	
9.725036556068128	1942.0	2080.0	-0.3591949397032308	1.5273933559226847	1265.0	-16000.0	9.809932556713672	-0.19619865113427343	320.0	1.3341508277130594	2176.0	0.0	36717.0	5120.513916015625	701.0	-0.43478260869565216	1.1737373737373737	-176.0	-538.0	-0.4451097804391218	131.0	-1.440736908333914	1.517520886553493	-61.0	50.0	-1.3087865472664708	
9.6885979431677	1949.0	2086.0	-0.42992871768641083	1.441984282616258	1268.0	-15872.0	9.731453096259962	-0.19619865113427343	320.0	1.3341508277130594	2176.0	0.0	37357.0	5140.045166015625	705.0	-0.4260869565217391	1.1737373737373737	-176.0	-553.0	-0.41516966067864275	70.0	-0.4716564418101166	2.342497852307549	-123.0	-12.0	-0.39072069793931336	
9.943881732363318	1943.0	2086.0	-0.4365299131216054	1.5167602651803684	1247.0	-16256.0	9.966891477621092	-0.3139178418148375	512.0	1.25567136725935	2048.0	0.0	37997.0	5159.576416015625	706.0	-0.42391304347826086	1.1636363636363636	-181.0	-546.0	-0.42914171656686634	21.0	-1.6051941333332558	3.3511024295860605	-187.0	63.0	0.3658618272648915	
9.773699015904915	1950.0	2089.0	-0.4679845501874391	1.4304065422475356	1261.0	-16064.0	9.849172286940528	-0.3139178418148375	512.0	1.3341508277130594	2176.0	0.0	38637.0	5179.107666015625	705.0	-0.4260869565217391	1.1717171717171717	-177.0	-533.0	-0.45508982035928147	25.0	0.7933835601534232	3.8462650471129742	-231.0	-93.0	0.281039548428884	
9.82185072612092	1945.0	2089.0	-0.47016159860122814	1.4911072527209794	1257.0	-16064.0	9.849172286940528	-0.4316370324954016	704.0	1.4126302881667687	2304.0	0.0	39277.0	5198.638916015625	711.0	-0.41304347826086957	1.1656565656565656	-180.0	-554.0	-0.4131736526946108	-22.0	-0.675106305310241	3.6200287108931906	-211.0	3.0	1.010553344421924	
9.932058757573897	1946.0	2086.0	-0.4355683897692645	1.4805070723527447	1248.0	-16256.0	9.966891477621092	-0.3531575720416922	576.0	1.3733905579399142	2240.0	0.0	39917.0	5218.170166015625	706.0	-0.42391304347826086	1.1575757575757575	-184.0	-533.0	-0.45508982035928147	9.0	1.0929629822470277	4.400388125207988	-270.0	-112.0	0.5213897618125108	
9.894874528648103	1943.0	2088.0	-0.45992553238514433	1.5160362369505809	1251.0	-16320.0	10.006131207847945	-0.27467811158798283	448.0	1.3733905579399142	2240.0	0.0	40557.0	5237.701416015625	703.0	-0.43043478260869567	1.1595959595959595	-183.0	-529.0	-0.46307385229540926	29.0	2.221386772300001	3.974197039845507	-246.0	-186.0	0.20592301440627758	
9.834167180294656	1947.0	2090.0	-0.48212119329697456	1.4670144357735908	1256.0	-16128.0	9.888412017167381	-0.3531575720416922	576.0	1.3341508277130594	2176.0	0.0	41197.0	5257.232666015625	707.0	-0.4217391304347826	1.1757575757575758	-175.0	-552.0	-0.4171656686626747	19.0	1.367626609309988	2.8581198046456753	-168.0	-131.0	0.36655187078902945	
9.796500265882333	1944.0	2096.0	-0.5552393212738325	1.502051163662952	1259.0	-16064.0	9.849172286940528	-0.4316370324954016	704.0	1.4518700183936235	2368.0	0.0	41837.0	5276.763916015625	710.0	-0.4152173913043478	1.1656565656565656	-180.0	-549.0	-0.42315369261477054	-31.0	1.3559888581212147	2.4686914512228206	-144.0	-130.0	1.1271245220651758	
9.7716260147916	1940.0	2096.0	-0.5557006245628286	1.549990579203492	1261.0	-16192.0	9.927651747394236	-0.47087676272225626	768.0	1.4126302881667687	2304.0	0.0	42477.0	5296.295166015625	702.0	-0.4326086956521739	1.1717171717171717	-177.0	-532.0	-0.45708582834331346	-31.0	1.4195838887083112	2.6891527933158477	-159.0	-134.0	1.126488571759305	
9.83428353410717	1945.0	2087.0	-0.44602732427497666	1.4914729235441044	1256.0	-16128.0	9.888412017167381	-0.27467811158798283	448.0	1.3733905579399142	2240.0	0.0	43117.0	5315.826416015625	706.0	-0.42391304347826086	1.1717171717171717	-177.0	-547.0	-0.4271457085828344	2.0	2.515530128390714	3.817358776763278	-238.0	-205.0	0.61362796867807	
9.918774773647554	1943.0	2092.0	-0.5091789544545974	1.515782705179881	1249.0	-16320.0	10.006131207847945	-0.3531575720416922	576.0	1.3341508277130594	2176.0	0.0	43757.0	5335.357666015625	709.0	-0.4173913043478261	1.1535353535353536	-186.0	-545.0	-0.43113772455089827	28.0	2.438554348762423	2.6541259854177546	-159.0	-201.0	0.2189604641169385	
9.821615859716331	1948.0	2094.0	-0.5303975253043474	1.4543579664766495	1257.0	-16128.0	9.888412017167381	-0.3139178418148375	512.0	1.3341508277130594	2176.0	0.0	44397.0	5354.888916015625	705.0	-0.4260869565217391	1.1656565656565656	-180.0	-532.0	-0.45708582834331346	22.0	2.173364723482209	0.59996747598181	-21.0	-185.0	0.31286711322145166	
9.759085488111067	1946.0	2105.0	-0.663736013274585	1.4764956634230633	1262.0	-15872.0	9.731453096259962	-0.47087676272225626	768.0	1.2949110974862048	2112.0	0.0	45037.0	5374.420166015625	708.0	-0.41956521739130437	1.1757575757575758	-175.0	-537.0	-0.44710578842315374	-31.0	-0.3808719118975302	-0.8586989012528398	86.0	-19.0	1.1444931297653633	
9.759807357561296	1945.0	2098.0	-0.5786427238922411	1.4894020077824732	1262.0	-16128.0	9.888412017167381	-0.510116492949111	832.0	1.3341508277130594	2176.0	0.0	45677.0	5393.951416015625	709.0	-0.4173913043478261	1.1555555555555554	-185.0	-532.0	-0.45708582834331346	-22.0	0.7345687274137234	-1.2157158557921932	105.0	-92.0	0.9964565940946842	
9.540975133943457	1950.0	2098.0	-0.5730186185191269	1.4270289627446042	1280.0	-15680.0	9.613733905579398	-0.3139178418148375	512.0	1.2949110974862048	2112.0	0.0	46317.0	5413.482666015625	706.0	-0.42391304347826086	1.1717171717171717	-177.0	-536.0	-0.44910179640718567	55.0	2.0667910127652505	-0.3470516917530991	44.0	-179.0	-0.18796829035578938	
9.407468055569625	1948.0	2091.0	-0.4854553622395383	1.4506659100658306	1291.0	-15424.0	9.45677498467198	-0.39239730226854685	640.0	1.2949110974862048	2112.0	0.0	46957.0	5433.013916015625	704.0	-0.4282608695652174	1.1717171717171717	-177.0	-546.0	-0.42914171656686634	53.0	1.5659058512786954	0.18134580913649823	11.0	-146.0	-0.1525411877903535	
9.481110326411871	1953.0	2092.0	-0.497930743708369	1.3910366151041431	1285.0	-15552.0	9.53525444512569	-0.39239730226854685	640.0	1.25567136725935	2048.0	0.0	47597.0	5452.545166015625	709.0	-0.4173913043478261	1.1676767676767676	-179.0	-547.0	-0.4271457085828344	95.0	0.5414883113631549	1.207731833096907	-51.0	-79.0	-0.7810802823531754	
9.5302338839396	1951.0	2087.0	-0.4384412554228321	1.4162191311044443	1281.0	-15616.0	9.574494175352545	-0.39239730226854685	640.0	1.2949110974862048	2112.0	0.0	48237.0	5472.076416015625	705.0	-0.4260869565217391	1.1676767676767676	-179.0	-529.0	-0.46307385229540926	72.0	0.9554401069497921	2.3493361887887634	-130.0	-105.0	-0.4354099143774827	
9.55558002661907	1950.0	2078.0	-0.3294599100684743	1.429610598755867	1279.0	-15680.0	9.613733905579398	-0.23543838136112813	384.0	1.3341508277130594	2176.0	0.0	48877.0	5491.607666015625	709.0	-0.4173913043478261	1.1656565656565656	-180.0	-546.0	-0.42914171656686634	50.0	1.3518117440459811	3.2828774360568036	-195.0	-130.0	-0.10477287029217085	
9.579238928875258	1950.0	2084.0	-0.4030938248184164	1.4291108486309294	1277.0	-15744.0	9.652973635806253	-0.19619865113427343	320.0	1.2949110974862048	2112.0	0.0	49517.0	5511.138916015625	712.0	-0.4108695652173913	1.1575757575757575	-184.0	-546.0	-0.42914171656686634	55.0	0.7521908065770437	3.252690359659069	-190.0	-91.0	-0.1748222882939073	
9.639099418847726	1945.0	2088.0	-0.4542780769474209	1.4894385748647856	1272.0	-15872.0	9.731453096259962	-0.23543838136112813	384.0	1.3733905579399142	2240.0	0.0	50157.0	5530.670166015625	710.0	-0.4152173913043478	1.1595959595959595	-183.0	-532.0	-0.45708582834331346	6.0	-0.33033554089294365	3.2232617887707917	-185.0	-20.0	0.5812501234697659	
9.700050268723993	1942.0	2085.0	-0.41965373469597833	1.526538905099316	1267.0	-15872.0	9.731453096259962	-0.19619865113427343	320.0	1.4126302881667687	2304.0	0.0	50797.0	5550.201416015625	704.0	-0.4282608695652174	1.1636363636363636	-181.0	-530.0	-0.4610778443113773	13.0	-0.021171529469782333	3.550830114915716	-208.0	-40.0	0.47169460502853816	
9.748094260245718	1943.0	2092.0	-0.5057318974952721	1.514110370615456	1263.0	-15936.0	9.770692826486817	-0.39239730226854685	640.0	1.4126302881667687	2304.0	0.0	51437.0	5569.732666015625	709.0	-0.4173913043478261	1.1515151515151516	-187.0	-543.0	-0.43512974051896214	-18.0	0.3075250917993005	3.7189885669597973	-222.0	-61.0	0.9398905285496877	
9.735902795002731	1943.0	2092.0	-0.5054856791410347	1.5139909181465683	1264.0	-15936.0	9.770692826486817	-0.39239730226854685	640.0	1.4126302881667687	2304.0	0.0	52077.0	5589.263916015625	704.0	-0.4282608695652174	1.1757575757575758	-175.0	-529.0	-0.46307385229540926	-46.0	0.24247220820414855	2.926871832223152	-170.0	-57.0	1.366396570693624	
9.64971999747995	1944.0	2100.0	-0.6010456863839603	1.500125297327827	1271.0	-15872.0	9.731453096259962	-0.47087676272225626	768.0	1.3733905579399142	2240.0	0.0	52717.0	5608.795166015625	706.0	-0.42391304347826086	1.1474747474747475	-189.0	-528.0	-0.4650698602794412	-54.0	-0.7130962133305624	2.403804828032965	-131.0	5.0	1.4976252587112524	
9.783576137291327	1940.0	2098.0	-0.5803273355975551	1.549863813318142	1260.0	-16064.0	9.849172286940528	-0.4316370324954016	704.0	1.3733905579399142	2240.0	0.0	53357.0	5628.326416015625	710.0	-0.4152173913043478	1.1737373737373737	-176.0	-542.0	-0.43712574850299407	-61.0	-1.7718250598557308	2.3233087631367777	-121.0	74.0	1.6146764255035004	
9.697988061508472	1937.0	2097.0	-0.5671288657757514	1.5852844955717846	1267.0	-15936.0	9.770692826486817	-0.3531575720416922	576.0	1.4126302881667687	2304.0	0.0	53997.0	5647.857666015625	708.0	-0.41956521739130437	1.1636363636363636	-181.0	-526.0	-0.46906187624750506	12.0	0.5571358476583037	3.0452039402566857	-177.0	-78.0	0.4811206567325425	
9.686050891686095	1943.0	2101.0	-0.6142130227862852	1.5124051256769493	1268.0	-15872.0	9.731453096259962	-0.39239730226854685	640.0	1.2949110974862048	2112.0	0.0	54637.0	5667.388916015625	707.0	-0.4217391304347826	1.1656565656565656	-180.0	-540.0	-0.44111776447105794	62.0	1.3181886281570132	3.1725779551658055	-187.0	-128.0	-0.2869461448367032	
9.79710362274049	1944.0	2091.0	-0.49428808957260995	1.502666709548546	1259.0	-15936.0	9.770692826486817	-0.3531575720416922	576.0	1.3733905579399142	2240.0	0.0	55277.0	5686.920166015625	712.0	-0.4108695652173913	1.1434343434343435	-191.0	-536.0	-0.44910179640718567	47.0	-0.5012219966203759	2.1056756632631917	-108.0	-10.0	-0.04061515645965176	
9.833309528015889	1941.0	2091.0	-0.49574204963342583	1.5391588073139446	1256.0	-16128.0	9.888412017167381	-0.3139178418148375	512.0	1.3733905579399142	2240.0	0.0	55917.0	5706.451416015625	706.0	-0.42391304347826086	1.1616161616161615	-182.0	-527.0	-0.4670658682634731	38.0	-1.641437386758597	1.5198892043281678	-64.0	64.0	0.10766912671929701	
9.808687413566206	1942.0	2094.0	-0.5315819169463165	1.5265059947252346	1258.0	-16192.0	9.927651747394236	-0.3139178418148375	512.0	1.4518700183936235	2368.0	0.0	56557.0	5725.982666015625	708.0	-0.41956521739130437	1.1515151515151516	-187.0	-507.0	-0.5069860279441119	66.0	-1.1742703465133713	1.0846184939118932	-36.0	33.0	-0.32285805699114006	
9.881963352734441	1945.0	2096.0	-0.5567244147541273	1.490842750825586	1252.0	-16128.0	9.888412017167381	-0.23543838136112813	384.0	1.3341508277130594	2176.0	0.0	57197.0	5745.513916015625	708.0	-0.41956521739130437	1.1535353535353536	-186.0	-538.0	-0.4451097804391218	105.0	-0.7826965378678508	0.9311661550903506	-26.0	7.0	-0.919929688613717	
9.736519104538237	1949.0	2093.0	-0.5162453154850725	1.441600328251977	1264.0	-16064.0	9.849172286940528	-0.27467811158798283	448.0	1.3341508277130594	2176.0	0.0	57837.0	5765.045166015625	703.0	-0.43043478260869567	1.1737373737373737	-176.0	-527.0	-0.4670658682634731	120.0	0.12194473496885336	1.0722311465117242	-39.0	-52.0	-1.1571129834713616	
9.798321130354594	1949.0	2086.0	-0.43214468287454844	1.4430593548362458	1259.0	-16128.0	9.888412017167381	-0.27467811158798283	448.0	1.2949110974862048	2112.0	0.0	58477.0	5784.576416015625	704.0	-0.4282608695652174	1.1616161616161615	-182.0	-514.0	-0.4930139720558883	142.0	0.4301188206043507	1.5289338767616487	-70.0	-72.0	-1.4947954847839904	
9.785769809776273	1950.0	2090.0	-0.4804210148819212	1.4304028855393045	1260.0	-16128.0	9.888412017167381	-0.27467811158798283	448.0	1.3341508277130594	2176.0	0.0	59117.0	5804.107666015625	711.0	-0.41304347826086957	1.1575757575757575	-184.0	-528.0	-0.4650698602794412	147.0	0.3209818211995508	1.4346241107783981	-63.0	-65.0	-1.5697497421663682	
9.77370333346403	1952.0	2091.0	-0.4918881728691926	1.4060711636541408	1261.0	-16064.0	9.849172286940528	-0.3139178418148375	512.0	1.2949110974862048	2112.0	0.0	59757.0	5823.638916015625	704.0	-0.4282608695652174	1.1373737373737374	-194.0	-518.0	-0.4850299401197605	139.0	0.2722430446257741	1.0433443120245676	-37.0	-62.0	-1.447589350598349	
9.774311007881304	1954.0	2088.0	-0.4548405638497235	1.3823513309463393	1261.0	-16128.0	9.888412017167381	-0.3139178418148375	512.0	1.25567136725935	2048.0	0.0	60397.0	5843.170166015625	707.0	-0.4217391304347826	1.1676767676767676	-179.0	-538.0	-0.4451097804391218	114.0	-0.5244792467283068	0.7987294868131335	-18.0	-10.0	-1.059393990802679	
9.688242405391481	1952.0	2092.0	-0.5023548907297746	1.4051118871948094	1268.0	-16000.0	9.809932556713672	-0.3531575720416922	576.0	1.2949110974862048	2112.0	0.0	61037.0	5862.701416015625	709.0	-0.4173913043478261	1.1555555555555554	-185.0	-536.0	-0.44910179640718567	124.0	0.5023889245586443	0.8083056310223055	-23.0	-77.0	-1.2217539272684002	
9.603996826153478	1956.0	2087.0	-0.43872639055141827	1.3567129453198754	1275.0	-15808.0	9.692213366033108	-0.3139178418148375	512.0	1.2164316370324952	1984.0	0.0	61677.0	5882.232666015625	707.0	-0.4217391304347826	1.1535353535353536	-186.0	-528.0	-0.4650698602794412	137.0	0.8861640704280909	1.0143911823388294	-38.0	-102.0	-1.423310309905802	
9.639972182583401	1958.0	2094.0	-0.5243198999971068	1.3321203782475493	1272.0	-15872.0	9.731453096259962	-0.3531575720416922	576.0	1.1771919068056407	1920.0	0.0	62317.0	5901.763916015625	712.0	-0.4108695652173913	1.1676767676767676	-179.0	-540.0	-0.44111776447105794	164.0	0.05567562428578435	1.2535365749330272	-49.0	-48.0	-1.8256518132770785	
9.56743754188142	1963.0	2094.0	-0.5216504148748428	1.2711807628363305	1278.0	-15744.0	9.652973635806253	-0.4316370324954016	704.0	1.0987124463519313	1792.0	0.0	62957.0	5921.295166015625	710.0	-0.4152173913043478	1.1616161616161615	-182.0	-533.0	-0.45508982035928147	149.0	0.2023385188076361	1.8788810233585502	-92.0	-57.0	-1.5989815600930193	
9.604608818129867	1960.0	2086.0	-0.4255824042137026	1.3086577340186791	1275.0	-15680.0	9.613733905579398	-0.39239730226854685	640.0	1.137952176578786	1856.0	0.0	63597.0	5940.826416015625	709.0	-0.4173913043478261	1.1656565656565656	-180.0	-531.0	-0.4590818363273454	129.0	0.8771806238883585	3.0641225235591567	-175.0	-100.0	-1.3015474716381232	
9.605328528800538	1958.0	2078.0	-0.3285373034904821	1.3337317676747869	1275.0	-15616.0	9.574494175352545	-0.15695892090741875	256.0	1.2164316370324952	1984.0	0.0	64237.0	5960.357666015625	707.0	-0.4217391304347826	1.1616161616161615	-182.0	-538.0	-0.4451097804391218	180.0	2.099338741908657	4.809187384289638	-295.0	-179.0	-2.08943445205787	
9.752233786133669	1960.0	2075.0	-0.29444431472186317	1.3114453645936357	1263.0	-16064.0	9.849172286940528	-0.19619865113427343	320.0	1.137952176578786	1856.0	0.0	64877.0	5979.888916015625	712.0	-0.4108695652173913	1.1575757575757575	-184.0	-522.0	-0.4770459081836328	234.0	1.882884836765208	5.471796940787401	-336.0	-165.0	-2.908562688671835	
9.837214187499253	1961.0	2079.0	-0.344690393563136	1.2997445150477944	1256.0	-16256.0	9.966891477621092	-0.3139178418148375	512.0	1.1771919068056407	1920.0	0.0	65517.0	5999.420166015625	707.0	-0.4217391304347826	1.1616161616161615	-182.0	-526.0	-0.46906187624750506	110.0	0.32551718654171796	4.395307189524223	-262.0	-63.0	-1.0070574532342387	
9.886467051516846	1963.0	2077.0	-0.3208179043008615	1.2763793830384247	1252.0	-16256.0	9.966891477621092	-0.19619865113427343	320.0	1.0987124463519313	1792.0	0.0	621.0	6018.951416015625	714.0	-0.40652173913043477	1.1535353535353536	-186.0	-534.0	-0.45309381237524954	63.0	0.10552201373545136	3.1676328940598015	-181.0	-49.0	-0.29002860416777276	
9.946821020873632	1963.0	2082.0	-0.3830002277732716	1.2763610994972683	1247.0	-16448.0	10.084610668301655	-0.3139178418148375	512.0	1.0987124463519313	1792.0	0.0	1261.0	6038.482666015625	708.0	-0.41956521739130437	1.1494949494949496	-188.0	-534.0	-0.45309381237524954	27.0	-0.7339017703256516	1.554980236452191	-71.0	5.0	0.26589415078310447	
9.835878167293075	1957.0	2086.0	-0.43097585794231874	1.347061071286278	1256.0	-16192.0	9.927651747394236	-0.27467811158798283	448.0	1.1771919068056407	1920.0	0.0	1901.0	6058.013916015625	712.0	-0.4108695652173913	1.1555555555555554	-185.0	-527.0	-0.4670658682634731	11.0	0.03533858473425305	-0.03752811487300638	31.0	-46.0	0.5015477548370683	
9.762488033091882	1957.0	2088.0	-0.4538790404973826	1.3460981381187156	1262.0	-16064.0	9.849172286940528	-0.23543838136112813	384.0	1.137952176578786	1856.0	0.0	2541.0	6077.545166015625	709.0	-0.4173913043478261	1.1636363636363636	-181.0	-529.0	-0.46307385229540926	-19.0	-0.4140456104102856	-0.9240521503488448	91.0	-17.0	0.9623153610470686	
9.676779285937398	1954.0	2088.0	-0.45287081701582343	1.3813957111952393	1269.0	-15936.0	9.770692826486817	-0.3531575720416922	576.0	1.25567136725935	2048.0	0.0	3181.0	6097.076416015625	707.0	-0.4217391304347826	1.1494949494949496	-188.0	-521.0	-0.4790419161676647	5.0	-0.08163137334656986	-1.0825124582734649	101.0	-39.0	0.5939722072695874	
9.676425906940736	1958.0	2095.0	-0.5372488014000638	1.332355626477093	1269.0	-15936.0	9.770692826486817	-0.4316370324954016	704.0	1.2164316370324952	1984.0	0.0	3821.0	6116.607666015625	704.0	-0.4282608695652174	1.1696969696969697	-178.0	-527.0	-0.4670658682634731	21.0	-1.0366564338941384	-1.186218918732683	113.0	23.0	0.3601764502705003	
9.639732998619698	1959.0	2097.0	-0.5606522040184725	1.3197064705966142	1272.0	-15872.0	9.731453096259962	-0.5493562231759657	896.0	1.137952176578786	1856.0	0.0	4461.0	6136.138916015625	706.0	-0.42391304347826086	1.1676767676767676	-179.0	-537.0	-0.44710578842315374	43.0	-0.9128257909608872	-0.7466708923669342	84.0	15.0	0.024337383384894044	
9.76175968730298	1955.0	2092.0	-0.5031168958570962	1.3696948616493982	1262.0	-16128.0	9.888412017167381	-0.3531575720416922	576.0	1.2949110974862048	2112.0	0.0	5101.0	6155.670166015625	709.0	-0.4173913043478261	1.1494949494949496	-188.0	-518.0	-0.4850299401197605	54.0	-0.7222972532953964	0.05635553901947367	30.0	3.0	-0.14486828221989775	
9.664835639776346	1957.0	2089.0	-0.464099540003727	1.3450194091904968	1270.0	-16000.0	9.809932556713672	-0.3531575720416922	576.0	1.2164316370324952	1984.0	0.0	5741.0	6175.201416015625	706.0	-0.42391304347826086	1.1616161616161615	-182.0	-525.0	-0.471057884231537	137.0	0.3015609357159104	0.8751695155372858	-26.0	-64.0	-1.4174642785586802	
9.713849319830237	1960.0	2090.0	-0.4765593547628182	1.309240369530192	1266.0	-15872.0	9.731453096259962	-0.39239730226854685	640.0	1.2164316370324952	1984.0	0.0	6381.0	6194.732666015625	709.0	-0.4173913043478261	1.1535353535353536	-186.0	-537.0	-0.44710578842315374	149.0	-0.9898448319388429	0.8374192034610601	-17.0	20.0	-1.5870597265855546	
9.726396322849443	1957.0	2084.0	-0.40437940007369205	1.3462322174205281	1265.0	-16000.0	9.809932556713672	-0.39239730226854685	640.0	1.1771919068056407	1920.0	0.0	7021.0	6214.263916015625	709.0	-0.4173913043478261	1.1454545454545455	-190.0	-538.0	-0.4451097804391218	108.0	-0.6939586067829892	0.6419575189294857	-7.0	1.0	-0.9664444443504211	
9.726521311780191	1959.0	2085.0	-0.41609277641520104	1.3220199480042518	1265.0	-15936.0	9.770692826486817	-0.27467811158798283	448.0	1.1771919068056407	1920.0	0.0	7661.0	6233.795166015625	706.0	-0.42391304347826086	1.1555555555555554	-185.0	-527.0	-0.4670658682634731	79.0	-0.7456826892009646	1.1676450644469798	-43.0	5.0	-0.5248625647429714	
9.738954119766444	1959.0	2083.0	-0.3919585020889495	1.3223856188273768	1264.0	-16000.0	9.809932556713672	-0.27467811158798283	448.0	1.137952176578786	1856.0	0.0	8301.0	6253.326416015625	709.0	-0.4173913043478261	1.1494949494949496	-188.0	-539.0	-0.44311377245508987	64.0	-1.003923466243241	1.206478154740203	-45.0	22.0	-0.294143274843271	
9.787232977692753	1957.0	2085.0	-0.41780073818512414	1.3467063705878468	1260.0	-16128.0	9.888412017167381	-0.27467811158798283	448.0	1.1771919068056407	1920.0	0.0	8941.0	6272.857666015625	708.0	-0.41956521739130437	1.1474747474747475	-189.0	-526.0	-0.46906187624750506	17.0	-1.478655168117325	0.5962336716239397	-4.0	53.0	0.4254329395138729	
9.763341367811535	1961.0	2085.0	-0.41635456147917793	1.2982891451717569	1262.0	-16256.0	9.966891477621092	-0.39239730226854685	640.0	1.1771919068056407	1920.0	0.0	9581.0	6292.388916015625	706.0	-0.42391304347826086	1.1717171717171717	-177.0	-526.0	-0.46906187624750506	33.0	-0.758952646834028	0.6758162464318122	-12.0	6.0	0.17488990669647717	
9.775045830008882	1959.0	2087.0	-0.4414581425126401	1.3222515395255643	1261.0	-16064.0	9.849172286940528	-0.47087676272225626	768.0	1.0987124463519313	1792.0	0.0	10221.0	6311.920166015625	708.0	-0.41956521739130437	1.1434343434343435	-191.0	-536.0	-0.44910179640718567	27.0	-0.691486151555824	1.1922080194307885	-47.0	2.0	0.2654699945954062	
9.861489399290946	1967.0	2086.0	-0.4290839446571159	1.2268541750282655	1254.0	-16256.0	9.966891477621092	-0.39239730226854685	640.0	1.020232985898222	1664.0	0.0	10861.0	6331.451416015625	707.0	-0.4217391304347826	1.1535353535353536	-186.0	-523.0	-0.47504990019960086	64.0	-0.1533483680579354	1.8519258040684246	-92.0	-33.0	-0.3026490258251241	
9.752128226218947	1967.0	2083.0	-0.39029724044824476	1.2261484303396344	1263.0	-16000.0	9.809932556713672	-0.3139178418148375	512.0	1.0987124463519313	1792.0	0.0	11501.0	6350.982666015625	706.0	-0.42391304347826086	1.1676767676767676	-179.0	-525.0	-0.471057884231537	71.0	1.0636939288706555	2.41615587650469	-135.0	-112.0	-0.4212833271214062	
9.801374613897865	1966.0	2078.0	-0.33056931716334004	1.239286366220357	1259.0	-16064.0	9.849172286940528	-0.19619865113427343	320.0	1.137952176578786	1856.0	0.0	12141.0	6370.513916015625	710.0	-0.4152173913043478	1.1575757575757575	-184.0	-538.0	-0.4451097804391218	88.0	1.3870356230549803	2.778806093615803	-160.0	-133.0	-0.6830718771430974	
9.850142633649378	1967.0	2079.0	-0.3435060019211668	1.2275964867992095	1255.0	-16192.0	9.927651747394236	-0.23543838136112813	384.0	1.137952176578786	1856.0	0.0	12781.0	6390.045166015625	705.0	-0.4260869565217391	1.1515151515151516	-187.0	-526.0	-0.46906187624750506	69.0	1.3487401944378146	3.2646651437744967	-193.0	-130.0	-0.3937155388265075	
9.812954087164465	1962.0	2079.0	-0.3439595218552932	1.2874610299904408	1258.0	-16256.0	9.966891477621092	-0.23543838136112813	384.0	1.0594727161250765	1728.0	0.0	13421.0	6409.576416015625	709.0	-0.4173913043478261	1.1636363636363636	-181.0	-532.0	-0.45708582834331346	19.0	1.2587696499037193	2.7157712115390917	-158.0	-124.0	0.3676404403830921	
9.824656390582254	1959.0	2080.0	-0.3571112915478786	1.3235911136409457	1257.0	-16192.0	9.927651747394236	-0.3139178418148375	512.0	1.1771919068056407	1920.0	0.0	14061.0	6429.107666015625	714.0	-0.40652173913043477	1.1616161616161615	-182.0	-540.0	-0.44111776447105794	-30.0	1.5108606896241317	2.6234382779986145	-155.0	-140.0	1.1103666782748614	
9.750783570894535	1959.0	2086.0	-0.4287754594639206	1.3221357437649082	1263.0	-16064.0	9.849172286940528	-0.3139178418148375	512.0	1.1771919068056407	1920.0	0.0	14701.0	6448.638916015625	711.0	-0.41304347826086957	1.1454545454545455	-190.0	-524.0	-0.4730538922155689	-51.0	2.5950037150572025	3.28483144543553	-205.0	-210.0	1.4189168830015193	
9.68923152293967	1963.0	2095.0	-0.5363028447574625	1.2722521783480867	1268.0	-15936.0	9.770692826486817	-0.39239730226854685	640.0	1.0987124463519313	1792.0	0.0	15341.0	6468.170166015625	705.0	-0.4260869565217391	1.1676767676767676	-179.0	-524.0	-0.4730538922155689	-49.0	2.242111061589675	3.3256020079030186	-206.0	-187.0	1.3920275585856243	
9.762134654095222	1961.0	2095.0	-0.5382570248816231	1.2970580534005693	1262.0	-16000.0	9.809932556713672	-0.39239730226854685	640.0	1.2164316370324952	1984.0	0.0	15981.0	6487.701416015625	709.0	-0.4173913043478261	1.1636363636363636	-181.0	-537.0	-0.44710578842315374	-69.0	0.3763702958630081	2.153934942478536	-120.0	-66.0	1.7148674757485944	
9.810286364311228	1956.0	2095.0	-0.540434073295412	1.3577587638740132	1258.0	-16256.0	9.966891477621092	-0.510116492949111	832.0	1.2164316370324952	1984.0	0.0	16621.0	6507.232666015625	707.0	-0.4217391304347826	1.1535353535353536	-186.0	-517.0	-0.48702594810379246	-62.0	0.1970546396542421	1.211153627403686	-56.0	-55.0	1.610196753983686	
9.713114497702659	1955.0	2091.0	-0.48994177609990164	1.369340160950967	1266.0	-16064.0	9.849172286940528	-0.4316370324954016	704.0	1.2164316370324952	1984.0	0.0	17261.0	6526.763916015625	708.0	-0.41956521739130437	1.1656565656565656	-180.0	-522.0	-0.4770459081836328	4.0	1.0120277033294016	0.8347635034716254	-32.0	-109.0	0.5982447419781128	
9.725792965991287	1957.0	2089.0	-0.4653306317749146	1.3456166715349342	1265.0	-15936.0	9.770692826486817	-0.3139178418148375	512.0	1.25567136725935	2048.0	0.0	17901.0	6546.295166015625	709.0	-0.4173913043478261	1.1616161616161615	-182.0	-537.0	-0.44710578842315374	34.0	0.5857624378775257	0.10307232161486948	20.0	-82.0	0.14623363037407647	
9.67738696035467	1956.0	2085.0	-0.4158232079963543	1.357675878487438	1269.0	-15936.0	9.770692826486817	-0.3531575720416922	576.0	1.2164316370324952	1984.0	0.0	18541.0	6565.826416015625	705.0	-0.4260869565217391	1.1535353535353536	-186.0	-511.0	-0.4990019960079841	2.0	0.2184483522458342	-0.28063539608480415	46.0	-58.0	0.6365987864395188	
9.65312901879944	1958.0	2086.0	-0.4270441476293882	1.333224704133387	1271.0	-15872.0	9.731453096259962	-0.39239730226854685	640.0	1.137952176578786	1856.0	0.0	19181.0	6585.357666015625	712.0	-0.4108695652173913	1.1717171717171717	-177.0	-533.0	-0.45508982035928147	-8.0	0.3777713000225313	0.15196718900360176	16.0	-68.0	0.7870968117146038	
9.725917954922036	1959.0	2090.0	-0.47704400811642356	1.3214044021186582	1265.0	-15936.0	9.770692826486817	-0.3139178418148375	512.0	1.1771919068056407	1920.0	0.0	19821.0	6604.888916015625	711.0	-0.41304347826086957	1.1414141414141414	-192.0	-512.0	-0.4970059880239522	25.0	-0.8361183083797605	0.5114025150939187	-1.0	11.0	0.2973345671142159	
9.714207016386013	1958.0	2085.0	-0.41608499306033125	1.3339450756549431	1266.0	-16000.0	9.809932556713672	-0.3531575720416922	576.0	1.2164316370324952	1984.0	0.0	20461.0	6624.420166015625	706.0	-0.42391304347826086	1.1434343434343435	-191.0	-517.0	-0.48702594810379246	35.0	-0.3526360993717286	-0.10087184263983784	38.0	-21.0	0.14040849027128385	
9.690433919096868	1961.0	2083.0	-0.39049675867326383	1.2978186487126693	1268.0	-15936.0	9.770692826486817	-0.3139178418148375	512.0	1.2164316370324952	1984.0	0.0	21101.0	6643.951416015625	709.0	-0.4173913043478261	1.1373737373737374	-194.0	-497.0	-0.5269461077844312	34.0	-0.49187133336399524	-0.2267219691061209	47.0	-12.0	0.15700996808649167	
9.776377532655943	1961.0	2078.0	-0.33126905545170393	1.2992703618804757	1261.0	-16128.0	9.888412017167381	-0.19619865113427343	320.0	1.137952176578786	1856.0	0.0	21741.0	6663.482666015625	707.0	-0.4217391304347826	1.1676767676767676	-179.0	-535.0	-0.4510978043912176	44.0	-1.012390876941646	0.05546990128701264	31.0	22.0	0.01012390876941646	
9.752604435366795	1964.0	2076.0	-0.30568082106463657	1.263143934938202	1263.0	-15936.0	9.770692826486817	-0.23543838136112813	384.0	1.0987124463519313	1792.0	0.0	22381.0	6683.013916015625	707.0	-0.4217391304347826	1.1494949494949496	-188.0	-524.0	-0.4730538922155689	74.0	-0.5115459203677434	-0.0510929796089444	37.0	-11.0	-0.45115830505487775	
9.740527165156767	1961.0	2072.0	-0.25738892234752436	1.2996506595365256	1264.0	-16000.0	9.809932556713672	-0.19619865113427343	320.0	1.137952176578786	1856.0	0.0	23021.0	6702.545166015625	706.0	-0.42391304347826086	1.1575757575757575	-184.0	-520.0	-0.48103792415169666	39.0	-1.1385518691569538	-0.3585812236973852	59.0	30.0	0.0874311460679954	
9.716025722078715	1962.0	2074.0	-0.28103854332017053	1.2871209561249344	1266.0	-16000.0	9.809932556713672	-0.15695892090741875	256.0	1.1771919068056407	1920.0	0.0	23661.0	6722.076416015625	708.0	-0.41956521739130437	1.1656565656565656	-180.0	-534.0	-0.45309381237524954	19.0	-0.8075651035184666	0.20591494695898538	19.0	9.0	0.388303787917314	
9.776864535701582	1963.0	2076.0	-0.30641169277247937	1.2754274199955558	1261.0	-16064.0	9.849172286940528	-0.15695892090741875	256.0	1.137952176578786	1856.0	0.0	24301.0	6741.607666015625	708.0	-0.41956521739130437	1.1575757575757575	-184.0	-536.0	-0.44910179640718567	-49.0	-0.8385620440710763	0.6764486401649532	-15.0	12.0	1.4228342896422317	
