Device	Device	Device	Device	Device	Device	Device	Device	Device	Device	Device	Device	Device	Device	Device	Device	Device	Device	Device	Device	Device	
Low Noise Accelerometer X	Low Noise Accelerometer X	Low Noise Accelerometer Z	Low Noise Accelerometer Z	Low Noise Accelerometer Y	Low Noise Accelerometer Y	Event_Marker	Timestamp	Timestamp	Magnetometer Z	Magnetometer Z	Magnetometer X	Magnetometer X	Magnetometer Y	Magnetometer Y	Gyroscope Y	Gyroscope Y	Gyroscope Z	Gyroscope Z	Gyroscope X	Gyroscope X	
UNCAL	CAL	UNCAL	CAL	CAL	UNCAL	CAL	UNCAL	CAL	CAL	UNCAL	CAL	UNCAL	UNCAL	CAL	CAL	UNCAL	UNCAL	CAL	UNCAL	CAL	
no units	m/(s^2)	no units	m/(s^2)	m/(s^2)	no units	no units	no units	ms	local_flux	no units	local_flux	no units	no units	local_flux	deg/s	no units	no units	deg/s	no units	deg/s	
2222.0	-1.2950595631939972	1277.0	9.779757966314566	-2.2149457977514317	2199.0	0.0	45287.0	1382.049560546875	0.645	779.0	-0.7064777327935223	-759.0	-183.0	-0.020242914979757085	-26.838966202783304	-1330.0	-470.0	7.956024262777586	1616.0	19.336887233574533	
2223.0	-1.114572371369304	1261.0	9.971334291641046	-2.2213575920977395	2184.0	0.0	45927.0	1401.580810546875	0.645	779.0	-0.7064777327935223	-759.0	-183.0	-0.020242914979757085	-19.54427282459092	-1311.0	-314.0	5.267789976946752	1139.0	19.018459701211853	
2219.0	-1.3028208667628256	1243.0	10.19410379990791	-2.170591915802	2200.0	0.0	46567.0	1421.112060546875	0.6725	790.0	-0.6700404858299596	-741.0	-200.0	0.01417004048582996	-8.839272059948005	-1417.0	-308.0	4.731084970875309	439.0	20.639607918912375	
2215.0	-1.5175559535767418	1247.0	10.149166547087713	-2.1254452406422057	2218.0	0.0	47207.0	1440.643310546875	0.6725	790.0	-0.6700404858299596	-741.0	-200.0	0.01417004048582996	-10.536779324055667	-1406.0	-306.0	4.769904774892034	550.0	20.47120679671317	
2218.0	-1.5879913419149465	1239.0	10.248484856124392	-2.1603078066581074	2224.0	0.0	47847.0	1460.174560546875	0.6725	790.0	-0.6700404858299596	-741.0	-200.0	0.01417004048582996	-15.32344395167457	-1261.0	-290.0	4.737508118810088	863.0	18.24593269972424	
2209.0	-1.4091009238304129	1236.0	10.280383807434893	-2.049447188511293	2209.0	0.0	48487.0	1479.705810546875	0.6675	788.0	-0.6659919028340081	-739.0	-201.0	0.016194331983805668	-20.813580058112862	-1226.0	-287.0	4.9163195045550285	1222.0	17.710663885547316	
2206.0	-1.1238133636869698	1239.0	10.237711250350635	-2.011303185738291	2185.0	0.0	49127.0	1499.237060546875	0.6675	788.0	-0.6659919028340081	-739.0	-201.0	0.016194331983805668	-20.232451445175105	-1214.0	-186.0	3.34146604605886	1184.0	17.51078154706486	
2197.0	-1.1707022687210435	1233.0	10.310725508848039	-1.901878054678924	2189.0	0.0	49767.0	1518.768310546875	0.6675	788.0	-0.6659919028340081	-739.0	-201.0	0.016194331983805668	-14.497629606973545	-1261.0	-98.0	1.7513823717176606	809.0	18.216071442253313	
2180.0	-1.3033554452267175	1247.0	10.140645953518712	-1.7017869004421338	2200.0	0.0	50407.0	1538.299560546875	0.6675	788.0	-0.6659919028340081	-739.0	-201.0	0.016194331983805668	-17.49502982107356	-1232.0	-78.0	1.5681016309208582	1005.0	17.769248608759725	
2174.0	-1.0404134100657272	1238.0	10.244373279141563	-1.624793776951561	2178.0	0.0	51047.0	1557.830810546875	0.685	795.0	-0.6417004048582996	-727.0	-219.0	0.05263157894736842	-18.687872763419485	-1087.0	5.0	0.3614588567590752	1083.0	15.532232050589995	
2171.0	-1.1373426158423556	1252.0	10.075262225288238	-1.5930007117731406	2186.0	0.0	51687.0	1577.362060546875	0.685	795.0	-0.6417004048582996	-727.0	-219.0	0.05263157894736842	-17.800886985777645	-1070.0	73.0	-0.7172970606984845	1025.0	15.260588269227297	
2164.0	-0.9956197271455584	1261.0	9.961836809253686	-1.5095146418092733	2174.0	0.0	52327.0	1596.893310546875	0.685	795.0	-0.6417004048582996	-727.0	-219.0	0.05263157894736842	-18.12203700871693	-1002.0	176.0	-2.2782323524972643	1046.0	14.201554027556814	
2160.0	-0.8741627976897061	1241.0	10.202767850077008	-1.4552886806139111	2164.0	0.0	52967.0	1616.424560546875	0.6950000000000001	799.0	-0.631578947368421	-722.0	-224.0	0.06275303643724696	-18.85609420400673	-940.0	194.0	-2.5162131666623835	1094.0	13.247816232611418	
2150.0	-0.969028094097224	1238.0	10.240047733134737	-1.3350098082059882	2172.0	0.0	53607.0	1635.955810546875	0.6950000000000001	799.0	-0.631578947368421	-722.0	-224.0	0.06275303643724696	-17.984401284600093	-928.0	167.0	-2.1339570511219805	1037.0	13.067504989869326	
2155.0	-0.6369747355927208	1248.0	10.11205025025173	-1.394490188134025	2144.0	0.0	54247.0	1655.487060546875	0.6950000000000001	799.0	-0.631578947368421	-722.0	-224.0	0.06275303643724696	-23.99449457103533	-733.0	129.0	-1.2791915954548898	1430.0	10.08387833109164	
2152.0	-0.39880904612965745	1247.0	10.119095387034255	-1.3558230501904909	2124.0	0.0	54887.0	1675.018310546875	0.6950000000000001	799.0	-0.631578947368421	-722.0	-224.0	0.06275303643724696	-20.614772901055208	-665.0	212.0	-2.6805327366897638	1209.0	9.026440030926796	
2155.0	-0.26629463266939374	1234.0	10.275298637822532	-1.3875184193533756	2113.0	0.0	55527.0	1694.549560546875	0.7025	802.0	-0.6052631578947368	-709.0	-221.0	0.05668016194331984	-16.516286894020492	-559.0	254.0	-3.4741821125170094	941.0	7.391988269407284	
2153.0	-0.2899798790189353	1233.0	10.287726383820756	-1.363410331354738	2115.0	0.0	56167.0	1714.080810546875	0.7025	802.0	-0.6052631578947368	-709.0	-221.0	0.05668016194331984	-10.536779324055667	-594.0	213.0	-3.0880993885920733	550.0	7.932906024680905	
2145.0	-0.38703700881393016	1248.0	10.105822928130793	-1.2716334295978124	2123.0	0.0	56807.0	1733.612060546875	0.7025	802.0	-0.6052631578947368	-709.0	-221.0	0.05668016194331984	-15.124636794616915	-569.0	82.0	-0.8858945854283174	850.0	7.571315981259421	
2148.0	-0.160400756329582	1244.0	10.150400557517992	-1.304620092798478	2104.0	0.0	57447.0	1753.143310546875	0.7125	806.0	-0.5890688259109311	-701.0	-220.0	0.05465587044534413	-19.039608502829182	-395.0	65.0	-0.44114255969588445	1106.0	4.905823345003012	
2149.0	-0.042716777628969416	1255.0	10.014036522817346	-1.318218726476569	2094.0	0.0	58087.0	1772.674560546875	0.7125	806.0	-0.5890688259109311	-701.0	-220.0	0.05465587044534413	-16.378651169903655	-469.0	2.0	0.410060788486842	932.0	6.049827169186081	
2141.0	0.05127352436773395	1265.0	9.889257198678157	-1.2233888677707112	2086.0	0.0	58727.0	1792.205810546875	0.7125	806.0	-0.5890688259109311	-701.0	-220.0	0.05465587044534413	-10.643829331702095	-584.0	-18.0	0.4706606764588779	557.0	7.8150487887501665	
2142.0	-0.2342602491217361	1264.0	9.90730842115973	-1.2379313738270588	2110.0	0.0	59367.0	1811.737060546875	0.7275	812.0	-0.582995951417004	-698.0	-218.0	0.05060728744939271	-6.193607585257685	-713.0	-73.0	1.1188162957834704	266.0	9.800968736841524	
2140.0	-0.2708230841714493	1271.0	9.82245348761698	-1.2158977153062422	2113.0	0.0	60007.0	1831.268310546875	0.7275	812.0	-0.582995951417004	-698.0	-218.0	0.05060728744939271	-12.081358005811287	-787.0	-241.0	3.9269083981325754	651.0	10.964541448566258	
2150.0	0.13362573474876757	1273.0	9.791144903448185	-1.3329613265112594	2079.0	0.0	60647.0	1850.799560546875	0.7275	812.0	-0.582995951417004	-698.0	-218.0	0.05060728744939271	-16.363358311668453	-812.0	-285.0	4.771086822540516	931.0	11.35659532426346	
2149.0	0.16920973809606457	1274.0	9.778116666749316	-1.3208178584406793	2076.0	0.0	61287.0	1870.330810546875	0.7275	812.0	-0.582995951417004	-698.0	-218.0	0.05060728744939271	-10.353265025233217	-1051.0	-279.0	4.401753215192201	538.0	15.02023358248183	
2142.0	0.15583610969482453	1286.0	9.6312300171015	-1.239551978320058	2077.0	0.0	61927.0	1889.862060546875	0.735	815.0	-0.5708502024291499	-692.0	-224.0	0.06275303643724696	-3.4714788193913444	-1256.0	-332.0	4.91023391828277	88.0	18.17093753942834	
2128.0	0.08525834530219467	1279.0	9.716310720695656	-1.0698814430969201	2083.0	0.0	62567.0	1909.393310546875	0.735	815.0	-0.5708502024291499	-692.0	-224.0	0.06275303643724696	2.6150787582199118	-1422.0	-386.0	5.471885046971459	-310.0	20.723738337963965	
2120.0	-0.09316493715338818	1278.0	9.73112533228023	-0.9749838415211098	2098.0	0.0	63207.0	1928.924560546875	0.735	815.0	-0.5708502024291499	-692.0	-224.0	0.06275303643724696	6.071264719376052	-1447.0	-499.0	7.067836016494655	-536.0	21.12330993911232	
2115.0	-0.01107339215444024	1288.0	9.60694649884169	-0.9164055388844696	2091.0	0.0	63847.0	1948.455810546875	0.73	813.0	-0.5850202429149798	-699.0	-241.0	0.09716599190283401	5.597186114084723	-1379.0	-542.0	7.75860103513781	-505.0	20.086792700546255	
2108.0	-0.03586178121574972	1296.0	9.509059973663126	-0.8342738038810638	2093.0	0.0	64487.0	1967.987060546875	0.73	813.0	-0.5850202429149798	-699.0	-241.0	0.09716599190283401	6.851200489371465	-1302.0	-587.0	8.412391533308691	-587.0	18.91180536385235	
2085.0	-0.048401362641675216	1301.0	9.445578021546762	-0.5585604050027104	2094.0	0.0	65127.0	1987.518310546875	0.73	813.0	-0.5850202429149798	-699.0	-241.0	0.09716599190283401	12.004893714635266	-1277.0	-574.0	8.010150913772394	-924.0	18.52417086620386	
2079.0	-0.25257741382492493	1316.0	9.266068141317035	-0.4919032064926315	2111.0	0.0	231.0	2007.049560546875	0.73	813.0	-0.5850202429149798	-699.0	-241.0	0.09716599190283401	16.179844012846	-1160.0	-565.0	7.722694453406924	-1197.0	16.72599171359959	
2085.0	-0.5729589592962878	1308.0	9.370770737037887	-0.565302126659434	2138.0	0.0	871.0	2026.580810546875	0.7225	810.0	-0.5890688259109311	-701.0	-266.0	0.14777327935222673	15.659886832849061	-1113.0	-655.0	9.134965820420245	-1163.0	16.018923695337854	
2072.0	-0.9069723898783	1314.0	9.30276101217	-0.4133759494385155	2166.0	0.0	1511.0	2046.112060546875	0.7225	810.0	-0.5890688259109311	-701.0	-266.0	0.14777327935222673	7.2488148034867725	-1158.0	-834.0	12.217617969110576	-613.0	16.740251981440377	
2069.0	-0.6446362533916709	1310.0	9.345898470356728	-0.3737452605966617	2144.0	0.0	2151.0	2065.643310546875	0.7225	810.0	-0.5890688259109311	-701.0	-266.0	0.14777327935222673	-4.541978895855636	-1019.0	-956.0	14.586975977512234	158.0	14.631062333045033	
2070.0	-0.6458540724220845	1320.0	9.224116567315361	-0.3882412696188774	2144.0	0.0	2791.0	2085.174560546875	0.7075	804.0	-0.576923076923077	-695.0	-268.0	0.15182186234817813	-10.123872151705156	-1028.0	-977.0	15.131843444050856	523.0	14.774611360633545	
2063.0	-0.6807162964400363	1313.0	9.309322736948758	-0.3025484190687987	2147.0	0.0	3431.0	2104.705810546875	0.7075	804.0	-0.576923076923077	-695.0	-268.0	0.15182186234817813	-12.38721517051537	-992.0	-909.0	14.182003238775204	671.0	14.21271154688829	
2066.0	-0.9653943449001035	1305.0	9.41294646237061	-0.3394673033582153	2171.0	0.0	4071.0	2124.237060546875	0.7075	804.0	-0.576923076923077	-695.0	-268.0	0.15182186234817813	-16.072794005199572	-916.0	-846.0	13.37208751157389	912.0	13.038431631598785	
2066.0	-0.8955648552362601	1318.0	9.253038285897805	-0.3419671719910329	2165.0	0.0	4711.0	2143.768310546875	0.7125	806.0	-0.5465587044534413	-680.0	-296.0	0.20850202429149797	-25.3555589539685	-773.0	-769.0	12.580986667111615	1519.0	10.8362594600423	
2076.0	-0.5871883127269306	1327.0	9.138311584449792	-0.46165986830574335	2139.0	0.0	5351.0	2163.299560546875	0.7125	806.0	-0.5465587044534413	-680.0	-296.0	0.20850202429149797	-32.971402355100174	-665.0	-706.0	11.933175546878102	2017.0	9.172577113762474	
2063.0	-0.08730442881498177	1327.0	9.126699975644682	-0.30026675561862964	2097.0	0.0	5991.0	2182.830810546875	0.7125	806.0	-0.5465587044534413	-680.0	-296.0	0.20850202429149797	-32.06912371922313	-740.0	-533.0	9.224717827403232	1958.0	10.296328810927093	
2059.0	-0.2647476752318102	1318.0	9.239518191104699	-0.2515920526892602	2112.0	0.0	6631.0	2202.362060546875	0.7125	806.0	-0.5465587044534413	-680.0	-296.0	0.20850202429149797	-24.07095886221135	-815.0	-346.0	6.017123088397907	1435.0	11.415089137896409	
2071.0	-0.14339337873122132	1299.0	9.47018593640168	-0.3903434680713269	2102.0	0.0	7271.0	2221.893310546875	0.7375	816.0	-0.52834008097166	-671.0	-298.0	0.2125506072874494	-23.765101697507266	-768.0	-188.0	3.581948902751288	1415.0	10.669546664108072	
2077.0	-0.11592434259939595	1269.0	9.836137168631835	-0.45503890969191146	2100.0	0.0	7911.0	2241.424560546875	0.7375	816.0	-0.52834008097166	-671.0	-298.0	0.2125506072874494	-20.737115766936842	-974.0	-121.0	2.3987274760546775	1217.0	13.818678083414838	
2053.0	-0.7318289286066813	1244.0	10.1504404726652	-0.16575526296529292	2152.0	0.0	8551.0	2260.955810546875	0.7375	816.0	-0.52834008097166	-671.0	-298.0	0.2125506072874494	-16.959779782841416	-1505.0	-170.0	2.9198329132770553	970.0	21.971809960251388	
2036.0	-0.25477938336022415	1236.0	10.2363473782633	0.04555264770756737	2112.0	0.0	9191.0	2280.487060546875	0.7425	818.0	-0.5	-657.0	-320.0	0.25708502024291496	-28.59764489983178	-1646.0	-326.0	5.7630582994868575	1731.0	24.163814409909094	
2038.0	0.2089278462297871	1240.0	10.178498908692998	0.024936365069892774	2073.0	0.0	9831.0	2300.018310546875	0.7425	818.0	-0.5	-657.0	-320.0	0.25708502024291496	-38.17097415506959	-1772.0	-321.0	6.049717509942153	2357.0	26.100085942937383	
2030.0	0.93496278195206	1240.0	10.162944861872656	0.1282711756593834	2012.0	0.0	10471.0	2319.549560546875	0.7425	818.0	-0.5	-657.0	-320.0	0.25708502024291496	-46.15384615384616	-1701.0	42.0	0.7966959302707866	2879.0	24.958097387413805	
2014.0	0.7686760394858918	1237.0	10.200937281922503	0.320139240973068	2026.0	0.0	11111.0	2339.080810546875	0.7425	818.0	-0.5	-657.0	-320.0	0.25708502024291496	-39.02737421624102	-1634.0	421.0	-5.307344066517052	2413.0	23.868976582351554	
1994.0	0.6644562787784002	1213.0	10.493246925459069	0.5659070916584111	2035.0	0.0	11751.0	2358.612060546875	0.75	821.0	-0.4534412955465587	-634.0	-337.0	0.291497975708502	-34.08778100627008	-1565.0	691.0	-9.647113323158598	2090.0	22.766809517374522	
1987.0	0.8415205704854825	1225.0	10.342533239024432	0.6490008102443796	2020.0	0.0	12391.0	2378.143310546875	0.75	821.0	-0.4534412955465587	-634.0	-337.0	0.291497975708502	-35.46413824743845	-1490.0	748.0	-10.457257842749165	2180.0	21.60787179781925	
1988.0	1.2573733110387246	1231.0	10.261140627681973	0.6394832926519785	1985.0	0.0	13031.0	2397.674560546875	0.75	821.0	-0.4534412955465587	-634.0	-337.0	0.291497975708502	-37.80394555742468	-1325.0	758.0	-10.492166150330924	2333.0	19.07568291115282	
1970.0	1.6513488665748028	1221.0	10.372981895575519	0.8625273434447283	1952.0	0.0	13671.0	2417.205810546875	0.765	827.0	-0.4190283400809717	-617.0	-336.0	0.2894736842105263	-35.70882397920172	-1270.0	883.0	-12.490112863374938	2196.0	18.211756842825515	
1968.0	1.5315913438143738	1227.0	10.301991524294523	0.8840063463336727	1962.0	0.0	14311.0	2436.737060546875	0.765	827.0	-0.4190283400809717	-617.0	-336.0	0.2894736842105263	-29.530509252179236	-1113.0	1056.0	-15.373995281938868	1792.0	15.773834084314265	
1954.0	1.6865490978670006	1225.0	10.321576453366736	1.0546223212508241	1949.0	0.0	14951.0	2456.268310546875	0.765	827.0	-0.4190283400809717	-617.0	-336.0	0.2894736842105263	-27.60360911454351	-1008.0	1077.0	-15.757948410870897	1666.0	14.15882376892183	
1961.0	1.9476782543502604	1231.0	10.244015911216513	0.9713450525750618	1927.0	0.0	15591.0	2475.799560546875	0.76	825.0	-0.4008097165991903	-608.0	-342.0	0.3016194331983806	-26.456644746903198	-799.0	1079.0	-15.802517055636125	1591.0	10.95138099792607	
1970.0	1.9462262653372022	1243.0	10.098817009910698	0.8599928197190558	1927.0	0.0	16231.0	2495.330810546875	0.76	825.0	-0.4008097165991903	-608.0	-342.0	0.3016194331983806	-20.87475149105368	-693.0	1019.0	-15.086664285382303	1226.0	9.332024257867369	
1957.0	1.9923572609517834	1255.0	9.950011809464062	1.0141045316903652	1923.0	0.0	16871.0	2514.862060546875	0.76	825.0	-0.4008097165991903	-608.0	-342.0	0.3016194331983806	-15.675179691084265	-812.0	933.0	-13.990143340937014	886.0	11.168983022628684	
1961.0	2.181093365692006	1269.0	9.776003235867272	0.9643189501814944	1907.0	0.0	17511.0	2534.393310546875	0.76	825.0	-0.4008097165991903	-608.0	-342.0	0.3016194331983806	-16.332772595198044	-746.0	867.0	-12.938588994596795	929.0	10.166762644655844	
1969.0	2.2017382796426976	1295.0	9.459542249984018	0.8618106374346616	1905.0	0.0	18151.0	2553.924560546875	0.7575000000000001	824.0	-0.402834008097166	-609.0	-334.0	0.28542510121457493	-13.30478666462762	-589.0	817.0	-12.266572349901478	731.0	7.764398876777187	
1972.0	2.4748868911240494	1300.0	9.393451017166843	0.8270757205798784	1882.0	0.0	18791.0	2573.455810546875	0.7575000000000001	824.0	-0.402834008097166	-609.0	-334.0	0.28542510121457493	-6.331243309374523	-547.0	877.0	-13.461884802817117	275.0	7.107977438606785	
1963.0	2.000975493886353	1282.0	9.621358912444817	0.93532849945282	1922.0	0.0	19431.0	2592.987060546875	0.7575000000000001	824.0	-0.402834008097166	-609.0	-334.0	0.28542510121457493	6.315950451139319	-741.0	985.0	-15.658604059165787	-552.0	10.06284007571953	
1945.0	1.7403206990500735	1272.0	9.746355619293057	1.1520893555209402	1944.0	0.0	20071.0	2612.518310546875	0.765	827.0	-0.41700404858299595	-616.0	-339.0	0.29554655870445345	7.20293622878116	-998.0	844.0	-13.564831097814018	-610.0	14.027310105471148	
1953.0	1.8725973295186777	1261.0	9.878780570915415	1.0596750786893987	1933.0	0.0	20711.0	2632.049560546875	0.765	827.0	-0.41700404858299595	-616.0	-339.0	0.29554655870445345	-0.45878574705612485	-943.0	664.0	-10.481426293987289	-109.0	13.214197552312546	
1963.0	2.0394863576501927	1259.0	9.901016717400221	0.9413067641895665	1919.0	0.0	21351.0	2651.580810546875	0.765	827.0	-0.41700404858299595	-616.0	-339.0	0.29554655870445345	-2.584493041749503	-902.0	651.0	-10.190166654361454	30.0	12.587986318725683	
1952.0	2.216545832011922	1271.0	9.74982129643029	1.072583570995713	1904.0	0.0	21991.0	2671.112060546875	0.765	827.0	-0.41700404858299595	-616.0	-339.0	0.29554655870445345	8.349900596421472	-923.0	802.0	-12.953208018922874	-685.0	12.882590061900691	
1934.0	1.7406731583603785	1269.0	9.781601550323554	1.285327919216581	1944.0	0.0	22631.0	2690.643310546875	0.7475	820.0	-0.4311740890688259	-623.0	-342.0	0.3016194331983806	26.27313044808075	-992.0	1011.0	-16.89522072236348	-1857.0	13.901939307276905	
1928.0	1.3282276615523503	1235.0	10.20371853618742	1.361934960592284	1979.0	0.0	23271.0	2710.174560546875	0.7475	820.0	-0.4311740890688259	-623.0	-342.0	0.3016194331983806	36.97813121272366	-919.0	924.0	-15.974055743400196	-2557.0	12.79100365002342	
1933.0	1.5596205138397072	1192.0	10.7239561458755	1.3144126774534972	1960.0	0.0	23911.0	2729.705810546875	0.7475	820.0	-0.4311740890688259	-623.0	-342.0	0.3016194331983806	31.120966508640468	-775.0	706.0	-12.364703777082246	-2174.0	10.61749152291661	
1930.0	2.1191501934855648	1191.0	10.724543158080266	1.3561642928073043	1913.0	0.0	24551.0	2749.237060546875	0.71	805.0	-0.4736842105263158	-644.0	-365.0	0.3481781376518219	32.390273742162414	-746.0	667.0	-11.811173812652019	-2257.0	10.178036796475292	
1928.0	1.4396155733969134	1200.0	10.628224006357994	1.371538949114141	1970.0	0.0	25191.0	2768.768310546875	0.71	805.0	-0.4736842105263158	-644.0	-365.0	0.3481781376518219	58.58693989906714	-947.0	791.0	-14.7969831518607	-3970.0	13.232419918366311	
1900.0	0.4960032583543713	1227.0	10.314611549722846	1.693179974421374	2049.0	0.0	25831.0	2788.299560546875	0.71	805.0	-0.4736842105263158	-644.0	-365.0	0.3481781376518219	83.63664168833155	-1445.0	803.0	-16.059847452236145	-5608.0	20.861344137108762	
1905.0	0.22530232829722893	1202.0	10.62547092496099	1.6364491887701436	2072.0	0.0	26471.0	2807.830810546875	0.6625	786.0	-0.5465587044534413	-680.0	-368.0	0.354251012145749	80.71570576540756	-1312.0	612.0	-12.984899809823812	-5417.0	18.85127728700227	
1899.0	-0.6545050595283896	1194.0	10.73997023763724	1.7022302577719186	2146.0	0.0	27111.0	2827.362060546875	0.6625	786.0	-0.5465587044534413	-680.0	-368.0	0.354251012145749	73.55864811133202	-1117.0	474.0	-10.54618928547928	-4949.0	15.88349007891136	
1887.0	-0.13666654342697115	1242.0	10.142869466826696	1.840044940769734	2102.0	0.0	27751.0	2846.893310546875	0.6625	786.0	-0.5465587044534413	-680.0	-368.0	0.354251012145749	52.68389662027833	-953.0	310.0	-7.163683706090687	-3584.0	13.400819814772762	
1902.0	0.36142252685232057	1257.0	9.951776494755865	1.660481080464845	2060.0	0.0	28391.0	2866.424560546875	0.6625	786.0	-0.5465587044534413	-680.0	-368.0	0.354251012145749	37.89570270683591	-539.0	428.0	-8.323619162067615	-2617.0	7.03660422574928	
1887.0	-0.7332478718055804	1254.0	10.008546152775281	1.8313926612049196	2152.0	0.0	29031.0	2885.955810546875	0.6325000000000001	774.0	-0.5870445344129555	-700.0	-383.0	0.38461538461538464	42.46826731916195	-475.0	677.0	-12.326480963151301	-2916.0	6.0145286536184495	
1878.0	-1.0324026913786555	1267.0	9.85496895737253	1.9337633040408928	2177.0	0.0	29671.0	2905.487060546875	0.6325000000000001	774.0	-0.5870445344129555	-700.0	-383.0	0.38461538461538464	34.42422388744457	-403.0	707.0	-12.455125799708709	-2390.0	4.908439381867883	
1896.0	-0.4733353300163962	1270.0	9.809324141217516	1.7215736114518974	2130.0	0.0	30311.0	2925.018310546875	0.6325000000000001	774.0	-0.5870445344129555	-700.0	-383.0	0.38461538461538464	8.426364887597492	-34.0	419.0	-6.929055223255347	-690.0	-0.6984143822156746	
1910.0	-0.14139303482152404	1281.0	9.670220327371405	1.5534362593317428	2102.0	0.0	30951.0	2944.549560546875	0.585	755.0	-0.6093117408906883	-711.0	-369.0	0.35627530364372473	-1.6669215476372536	122.0	421.0	-6.532190555575624	-30.0	-3.0881851862063625	
1911.0	-0.4740486789913738	1276.0	9.737989243719758	1.5394168884459272	2130.0	0.0	31591.0	2964.080810546875	0.585	755.0	-0.6093117408906883	-711.0	-369.0	0.35627530364372473	1.6975072641076618	-15.0	634.0	-9.963865495622668	-250.0	-1.0203076744437212	
1883.0	-0.4873256961190417	1287.0	9.600763721429164	1.8738890054192	2131.0	0.0	32231.0	2983.612060546875	0.585	755.0	-0.6093117408906883	-711.0	-369.0	0.35627530364372473	-0.9328643523474538	-314.0	777.0	-12.103978216354719	-78.0	3.5462918121283056	
1888.0	-0.3430284063160065	1275.0	9.744778416018393	1.8179713083535933	2119.0	0.0	32871.0	3003.143310546875	0.585	755.0	-0.6093117408906883	-711.0	-369.0	0.35627530364372473	-9.756843554060255	-232.0	710.0	-10.707965497677687	499.0	2.3020042793488336	
1887.0	0.037968131900974963	1274.0	9.74919414247845	1.8339177810360485	2087.0	0.0	33511.0	3022.674560546875	0.5925	758.0	-0.6153846153846154	-714.0	-381.0	0.3805668016194332	-14.252943875210278	-239.0	581.0	-8.545101778922112	793.0	2.4310443021432637	
1882.0	0.25220477034114636	1274.0	9.744286557924159	1.896202959584786	2069.0	0.0	34151.0	3042.205810546875	0.5925	758.0	-0.6153846153846154	-714.0	-381.0	0.3805668016194332	-7.998164857011776	-346.0	625.0	-9.488436154657299	384.0	4.0634707098052765	
1877.0	7.86150477179906E-4	1286.0	9.602424571527516	1.9510924975136352	2090.0	0.0	34791.0	3061.737060546875	0.5925	758.0	-0.6153846153846154	-714.0	-381.0	0.3805668016194332	3.318550237039303	-559.0	650.0	-10.35825774857143	-356.0	7.32314751304674	
1884.0	-0.20337424433367265	1301.0	9.424480328537493	1.861154659308136	2107.0	0.0	35431.0	3081.268310546875	0.59	757.0	-0.6295546558704453	-721.0	-379.0	0.3765182186234818	12.601315185808229	-588.0	591.0	-9.826518736481821	-963.0	7.773454929253258	
1888.0	-0.2735646236621887	1291.0	9.548299538543036	1.8147363686306242	2113.0	0.0	36071.0	3100.799560546875	0.59	757.0	-0.6295546558704453	-721.0	-379.0	0.3765182186234818	15.384615384615387	-706.0	496.0	-8.494776765293054	-1145.0	9.597421420623885	
1887.0	-0.2712496836016984	1272.0	9.779793544592069	1.831437590923294	2113.0	0.0	36711.0	3120.330810546875	0.59	757.0	-0.6295546558704453	-721.0	-379.0	0.3765182186234818	14.528215323443954	-891.0	379.0	-6.6893654792222605	-1089.0	12.4542050102377	
1887.0	-0.438370473043181	1276.0	9.73438126711046	1.8288581374792472	2127.0	0.0	37351.0	3139.862060546875	0.5575	744.0	-0.6497975708502024	-731.0	-372.0	0.3623481781376518	12.738950909925066	-1165.0	262.0	-4.860298575075108	-972.0	16.676884201605393	
1880.0	-0.546109745141856	1281.0	9.674739771528687	1.9109252642442154	2136.0	0.0	37991.0	3159.393310546875	0.5575	744.0	-0.6497975708502024	-731.0	-372.0	0.3623481781376518	12.953050925217925	-1420.0	185.0	-3.7236715075931937	-986.0	20.601093805102067	
1875.0	-0.4884324518398243	1296.0	9.490088149350907	1.9680499685891015	2131.0	0.0	38631.0	3178.924560546875	0.5575	744.0	-0.6497975708502024	-731.0	-372.0	0.3623481781376518	9.236886374063314	-1525.0	-8.0	-0.6226726985050671	-743.0	22.243274577296063	
1868.0	-0.6067331682418422	1290.0	9.564778413911014	2.052698116113874	2141.0	0.0	39271.0	3198.455810546875	0.5575	744.0	-0.6497975708502024	-731.0	-372.0	0.3623481781376518	7.417036244074018	-1543.0	-135.0	1.4007025704770872	-624.0	22.539709035832132	
1870.0	-0.7818530442438126	1262.0	9.909933670856834	2.033753636950602	2156.0	0.0	39911.0	3217.987060546875	0.5325	734.0	-0.6639676113360324	-738.0	-382.0	0.3825910931174089	10.016822144058725	-1547.0	-63.0	0.18869663602015896	-794.0	22.588966911120064	
1859.0	-0.9112076316412272	1249.0	10.069713026353458	2.168185798668488	2167.0	0.0	40551.0	3237.518310546875	0.5325	734.0	-0.6639676113360324	-738.0	-382.0	0.3825910931174089	7.554671968190855	-1606.0	-60.0	0.23197832287353382	-633.0	23.494724263817965	
1839.0	-0.864597457034313	1257.0	9.968825725140126	2.4075980098119776	2163.0	0.0	41191.0	3257.049560546875	0.5325	734.0	-0.6639676113360324	-738.0	-382.0	0.3825910931174089	1.498700107050008	-1722.0	-31.0	0.010354540995109018	-237.0	25.27246813034167	
1834.0	-0.9258219614633074	1271.0	9.798756234621626	2.4638253388127387	2168.0	0.0	41831.0	3276.580810546875	0.55	741.0	-0.6821862348178138	-747.0	-391.0	0.4008097165991903	-5.7195289799663565	-1649.0	-20.0	0.14106736853078466	235.0	24.153627951573906	
1832.0	-0.8652153990720567	1262.0	9.907031521365766	2.490693295713703	2163.0	0.0	42471.0	3296.112060546875	0.55	741.0	-0.6821862348178138	-747.0	-391.0	0.4008097165991903	-8.793393485242392	-1520.0	-19.0	0.2684213483780356	436.0	22.175463099474268	
1819.0	-0.8987439234046106	1244.0	10.125607659538927	2.651356039257937	2166.0	0.0	43111.0	3315.643310546875	0.55	741.0	-0.6821862348178138	-747.0	-391.0	0.4008097165991903	-2.7221287658663407	-1352.0	93.0	-1.6712684139712606	39.0	19.578192947285793	
1806.0	-0.9009538218371612	1262.0	9.90461781628388	2.803540649432607	2166.0	0.0	43751.0	3335.174560546875	0.55	741.0	-0.6821862348178138	-747.0	-391.0	0.4008097165991903	6.973543355253097	-1364.0	268.0	-4.7525220663274945	-595.0	19.73151421465973	
1810.0	-1.0346788283098092	1285.0	9.627355264257181	2.748465377243009	2177.0	0.0	44391.0	3354.705810546875	0.5025000000000001	722.0	-0.7024291497975709	-757.0	-397.0	0.41295546558704455	11.622572258755163	-1309.0	421.0	-7.28327476055859	-899.0	18.862260086520546	
1805.0	-0.8310036341729808	1274.0	9.756779439844774	2.813331576551551	2160.0	0.0	45031.0	3374.237060546875	0.5025000000000001	722.0	-0.7024291497975709	-757.0	-397.0	0.41295546558704455	7.340571952897998	-1139.0	413.0	-6.962883174185832	-619.0	16.256901780503043	
1815.0	-1.0567709139282055	1271.0	9.799099083369914	2.6914383689136585	2179.0	0.0	45671.0	3393.768310546875	0.5025000000000001	722.0	-0.7024291497975709	-757.0	-397.0	0.41295546558704455	1.4834072488148036	-1024.0	409.0	-6.6494527773162	-236.0	14.495420463787374	
1801.0	-0.7118628491139571	1273.0	9.766096040985234	2.862902087509288	2150.0	0.0	46311.0	3413.299560546875	0.485	715.0	-0.7165991902834008	-764.0	-420.0	0.45951417004048584	-5.398378957027069	-1166.0	318.0	-4.996351157523429	214.0	16.690868159439038	
1802.0	-0.47698370539577106	1299.0	9.444486603280044	2.8467704974212813	2130.0	0.0	46951.0	3432.830810546875	0.485	715.0	-0.7165991902834008	-764.0	-420.0	0.45951417004048584	-8.915736351124027	-1360.0	272.0	-4.177923554116454	444.0	19.675882265149337	
1795.0	-0.7260885895355853	1292.0	9.533998189298611	2.930407029697845	2151.0	0.0	47591.0	3452.362060546875	0.485	715.0	-0.7165991902834008	-764.0	-420.0	0.45951417004048584	-4.266707447621961	-1498.0	239.0	-3.877475929269264	140.0	21.796425486219047	
1789.0	-0.6891696821665524	1282.0	9.654460354773327	3.005474618707536	2148.0	0.0	48231.0	3471.893310546875	0.51	725.0	-0.7206477732793523	-766.0	-422.0	0.46356275303643724	-11.0261507875822	-1542.0	54.0	-0.768444627924977	582.0	22.502673080189986	
1787.0	-0.609146863882068	1309.0	9.32340884988844	3.0237502023348513	2141.0	0.0	48871.0	3491.424560546875	0.51	725.0	-0.7206477732793523	-766.0	-422.0	0.46356275303643724	-20.06423000458786	-1535.0	-88.0	1.7781773340548679	1173.0	22.42072791420291	
1782.0	-0.2614242062972461	1288.0	9.571865084561106	3.0924375174595746	2112.0	0.0	49511.0	3510.955810546875	0.51	725.0	-0.7206477732793523	-766.0	-422.0	0.46356275303643724	-20.048937146352657	-1445.0	-152.0	2.775739827394803	1172.0	21.049700009905067	
1774.0	0.08263776817830544	1297.0	9.454253008306736	3.189911437847918	2083.0	0.0	50151.0	3530.487060546875	0.51	725.0	-0.7206477732793523	-766.0	-422.0	0.46356275303643724	-3.211500229392874	-1630.0	-154.0	2.104686659035291	71.0	23.88171895497458	
1782.0	0.09247743315230328	1314.0	9.247743315230329	3.089494098467455	2082.0	0.0	50791.0	3550.018310546875	0.4975	720.0	-0.708502024291498	-760.0	-435.0	0.4898785425101215	16.929194066371007	-1718.0	-117.0	0.7165513463797337	-1246.0	25.21815216376302	
1752.0	-0.4887024875461027	1297.0	9.463084578723073	3.449434907662856	2131.0	0.0	51431.0	3569.549560546875	0.4975	720.0	-0.708502024291498	-760.0	-435.0	0.4898785425101215	22.526380180455728	-1666.0	-131.0	0.7159945733828867	-1612.0	24.420233445810553	
1739.0	-0.5825961782692338	1286.0	9.597525030219483	3.607811285809649	2139.0	0.0	52071.0	3589.080810546875	0.4975	720.0	-0.708502024291498	-760.0	-435.0	0.4898785425101215	13.840036702859766	-1474.0	-246.0	2.8616537769404693	-1044.0	21.495549175486147	
1738.0	-0.3684766248203846	1287.0	9.580908946532968	3.6216683524414917	2121.0	0.0	52711.0	3608.612060546875	0.4425	698.0	-0.7550607287449392	-783.0	-427.0	0.4736842105263158	6.453586175256156	-1349.0	-261.0	3.4069716041063574	-561.0	19.582941896492194	
1742.0	-0.524177836256445	1295.0	9.486978279117404	3.570039955894482	2134.0	0.0	53351.0	3628.143310546875	0.4425	698.0	-0.7550607287449392	-783.0	-427.0	0.4736842105263158	-2.003364428811745	-1246.0	-273.0	3.9455875714576503	-8.0	18.00784623937884	
1738.0	-0.3696956481871365	1297.0	9.45900660985778	3.6192181154743204	2121.0	0.0	53991.0	3647.674560546875	0.4425	698.0	-0.7550607287449392	-783.0	-427.0	0.4736842105263158	-4.159657439975532	-1118.0	-272.0	4.0360889319657645	133.0	16.044657344743936	
1733.0	-0.3816040398755978	1297.0	9.458643631487838	3.6793327358454584	2122.0	0.0	54631.0	3667.205810546875	0.4425	698.0	-0.7550607287449392	-783.0	-427.0	0.4736842105263158	1.0705000764642914	-1064.0	-245.0	3.4199095505324544	-209.0	15.209893433390855	
1736.0	-0.5852816426851025	1308.0	9.328978588632598	3.6385580806470053	2139.0	0.0	55271.0	3686.737060546875	0.48	713.0	-0.7388663967611336	-775.0	-466.0	0.5526315789473685	4.679614619972473	-987.0	-342.0	4.7793024237458965	-445.0	14.041962120447375	
1732.0	-0.3812395372019105	1294.0	9.49509389885657	3.6921135789906545	2122.0	0.0	55911.0	3706.268310546875	0.48	713.0	-0.7388663967611336	-775.0	-466.0	0.5526315789473685	5.061936075852578	-941.0	-393.0	5.555485102849654	-470.0	13.343877698964665	
1734.0	-0.7500886964024333	1293.0	9.5149398835662	3.664725621550673	2153.0	0.0	56551.0	3725.799560546875	0.48	713.0	-0.7388663967611336	-775.0	-466.0	0.5526315789473685	2.9209359229239946	-907.0	-397.0	5.707855991860806	-330.0	12.82368896347853	
1727.0	-0.47622071426441237	1292.0	9.520785716415899	3.7519185674266375	2130.0	0.0	57191.0	3745.330810546875	0.47000000000000003	709.0	-0.7368421052631579	-774.0	-473.0	0.5668016194331984	0.8105214864658206	-1005.0	-381.0	5.531136665110255	-192.0	14.325681168707264	
1713.0	-0.5730412654040864	1305.0	9.362540126258034	3.9164601489072646	2138.0	0.0	57831.0	3764.862060546875	0.47000000000000003	709.0	-0.7368421052631579	-774.0	-473.0	0.5668016194331984	5.123107508793394	-1179.0	-338.0	4.670583175955091	-474.0	16.987015790329448	
1703.0	-0.5028581120935998	1315.0	9.23799831444955	4.035153071915043	2132.0	0.0	58471.0	3784.393310546875	0.47000000000000003	709.0	-0.7368421052631579	-774.0	-473.0	0.5668016194331984	1.9421929958709285	-1096.0	-380.0	5.456531536233258	-266.0	15.72128313030786	
1695.0	-0.3239664896727279	1312.0	9.270017699393874	4.133967918006812	2117.0	0.0	59111.0	3803.924560546875	0.4325	694.0	-0.7530364372469636	-782.0	-475.0	0.5708502024291499	1.2234286588163328	-879.0	-441.0	6.45679679469973	-219.0	12.401532829079422	
1696.0	-0.4786960954244015	1312.0	9.273247600416989	4.120437027198674	2130.0	0.0	59751.0	3823.455810546875	0.4325	694.0	-0.7530364372469636	-782.0	-475.0	0.5708502024291499	6.040679002905644	-827.0	-450.0	6.410530779003035	-534.0	11.60315701869996	
1697.0	-0.5141581964350234	1310.0	9.29846607078338	4.108538582824811	2133.0	0.0	60391.0	3842.987060546875	0.4325	694.0	-0.7530364372469636	-782.0	-475.0	0.5708502024291499	8.518122037008718	-874.0	-552.0	7.873064283217442	-696.0	12.338973085673974	
1686.0	-0.5399266215350872	1326.0	9.10257594172937	4.236893216474659	2135.0	0.0	61031.0	3862.518310546875	0.4325	694.0	-0.7530364372469636	-782.0	-475.0	0.5708502024291499	9.420400672885764	-1011.0	-612.0	8.738799554730795	-755.0	14.44982469955222	
1677.0	-0.6119611922861282	1331.0	9.04197600948242	4.343394607061968	2141.0	0.0	61671.0	3882.049560546875	0.4575	704.0	-0.742914979757085	-777.0	-483.0	0.5870445344129555	7.814650558189326	-932.0	-700.0	10.16864661856344	-650.0	13.251908961198678	
1677.0	-0.4562551635047149	1323.0	9.136388411433279	4.346839915388799	2128.0	0.0	62311.0	3901.580810546875	0.4575	704.0	-0.742914979757085	-777.0	-483.0	0.5870445344129555	10.750879339348526	-889.0	-680.0	9.750192463009881	-842.0	12.587911622343773	
1680.0	-0.7171284719512417	1315.0	9.239533757256778	4.31014951090755	2150.0	0.0	62951.0	3921.112060546875	0.4575	704.0	-0.742914979757085	-777.0	-483.0	0.5870445344129555	15.430493959320998	-974.0	-697.0	9.811457171672089	-1148.0	13.892805380371012	
1664.0	-0.7762938843564786	1312.0	9.275373469114037	4.503045735357993	2155.0	0.0	63591.0	3940.643310546875	0.48	713.0	-0.7348178137651822	-773.0	-492.0	0.6052631578947368	11.974307998164859	-1147.0	-776.0	11.13822363864125	-922.0	16.56066871789631	
1656.0	-0.6824254846964506	1323.0	9.13840391130733	4.597630570367134	2147.0	0.0	64231.0	3960.174560546875	0.48	713.0	-0.7348178137651822	-773.0	-492.0	0.6052631578947368	5.123107508793394	-1193.0	-843.0	12.435694123965565	-474.0	17.279489671023303	
1651.0	-0.6953090950783133	1331.0	9.040519063597237	4.655785001164535	2148.0	0.0	64871.0	3979.705810546875	0.48	713.0	-0.7348178137651822	-773.0	-492.0	0.6052631578947368	1.9574858541061326	-1146.0	-888.0	13.261649501750009	-267.0	16.566558492869273	
1647.0	-0.6466073113665091	1322.0	9.148792672872908	4.706630262271504	2144.0	0.0	65511.0	3999.237060546875	0.48	713.0	-0.7348178137651822	-773.0	-492.0	0.6052631578947368	0.948157210582658	-1120.0	-881.0	13.198342801718555	-201.0	16.166968850757712	
1646.0	-0.6358032667261537	1331.0	9.038720946432237	4.7165850609601785	2143.0	0.0	615.0	4018.768310546875	0.42	689.0	-0.7449392712550608	-778.0	-496.0	0.6133603238866396	6.698271907019422	-1148.0	-842.0	12.364217464463843	-577.0	16.58827313981266	
1644.0	-0.7086827234795534	1343.0	8.893632413949422	4.737050881285156	2149.0	0.0	1255.0	4038.299560546875	0.42	689.0	-0.7449392712550608	-778.0	-496.0	0.6133603238866396	13.473008105214866	-1160.0	-736.0	10.46105861259482	-1020.0	16.753375355191473	
1647.0	-0.959482196969438	1350.0	8.813685064960962	4.696799361257236	2170.0	0.0	1895.0	4057.830810546875	0.42	689.0	-0.7449392712550608	-778.0	-496.0	0.6133603238866396	13.56476525462609	-1150.0	-685.0	9.674506737047603	-1026.0	16.592064999854752	
1636.0	-0.9358126069922934	1351.0	8.79969168172303	4.829286309974177	2168.0	0.0	2535.0	4077.362060546875	0.4325	694.0	-0.7307692307692307	-771.0	-529.0	0.680161943319838	4.5113931793852275	-1097.0	-723.0	10.629204184273226	-434.0	15.788354340446386	
1635.0	-0.8040344248974338	1344.0	8.882271795970901	4.844303886851167	2157.0	0.0	3175.0	4096.893310546875	0.4325	694.0	-0.7307692307692307	-771.0	-529.0	0.680161943319838	-0.5352500382321457	-1184.0	-715.0	10.694655675967887	-104.0	17.123978933620197	
1627.0	-0.8897986963690345	1364.0	8.639177982144167	4.934969910028591	2164.0	0.0	3815.0	4116.424560546875	0.4325	694.0	-0.7307692307692307	-771.0	-529.0	0.680161943319838	0.5046643217617374	-1377.0	-639.0	9.45451734669707	-172.0	20.073062896345597	
1626.0	-0.9502869694326249	1372.0	8.542731628166075	4.944484292989477	2169.0	0.0	4455.0	4135.955810546875	0.455	703.0	-0.6983805668016194	-755.0	-524.0	0.6700404858299596	-0.16822144058724578	-1350.0	-578.0	8.547349322609127	-128.0	19.649690157335346	
1618.0	-0.7229325506279463	1362.0	8.659125889586324	5.045471264574603	2150.0	0.0	5095.0	4155.487060546875	0.455	703.0	-0.6983805668016194	-755.0	-524.0	0.6700404858299596	-2.6303716164551156	-1254.0	-527.0	7.876138461917575	33.0	18.169907617548436	
1614.0	-0.8400106306541977	1346.0	8.856079791723095	5.096432332901413	2160.0	0.0	5735.0	4175.018310546875	0.455	703.0	-0.6983805668016194	-755.0	-524.0	0.6700404858299596	-0.2752714482336749	-1319.0	-395.0	5.741717130152235	-121.0	19.1459548420089	
1608.0	-0.8067487933854204	1366.0	8.610834947172247	5.164149211009591	2157.0	0.0	6375.0	4194.549560546875	0.455	703.0	-0.6983805668016194	-755.0	-524.0	0.6700404858299596	0.12234286588163329	-1390.0	-328.0	4.684413029319711	-147.0	20.224840140727448	
1609.0	-0.8445270387928708	1383.0	8.40443897785578	5.147595316398102	2160.0	0.0	7015.0	4214.080810546875	0.4025	682.0	-0.6943319838056681	-753.0	-546.0	0.7145748987854251	-3.9149717082122653	-1386.0	-328.0	4.846503182614463	117.0	20.165083107627893	
1604.0	-0.47421866456126044	1372.0	8.530514496254904	5.214060874363822	2129.0	0.0	7655.0	4233.612060546875	0.4025	682.0	-0.6943319838056681	-753.0	-546.0	0.7145748987854251	-7.126471937605139	-1211.0	-306.0	4.663424870557789	327.0	17.47796768433547	
1595.0	-0.5565708749422941	1364.0	8.628626791484875	5.323633333104371	2136.0	0.0	8295.0	4253.143310546875	0.4025	682.0	-0.6943319838056681	-753.0	-546.0	0.7145748987854251	0.1529285823520416	-1195.0	-161.0	2.1445297683609135	-149.0	17.207266994783502	
1586.0	-0.7448253920175071	1346.0	8.850794131582623	5.4346278696753325	2152.0	0.0	8935.0	4272.674560546875	0.4	681.0	-0.708502024291498	-760.0	-531.0	0.6842105263157895	4.159657439975532	-1296.0	-81.0	0.7383233954156059	-411.0	18.742997780524668	
1590.0	-0.6747472803349603	1357.0	8.715748156980151	5.3844349602157715	2146.0	0.0	9575.0	4292.205810546875	0.4	681.0	-0.708502024291498	-760.0	-531.0	0.6842105263157895	0.7799357699954123	-1357.0	-63.0	0.5872867509216386	-190.0	19.677500917225345	
1594.0	-0.7009852497366514	1377.0	8.472903597763422	5.331122918253082	2148.0	0.0	10215.0	4311.737060546875	0.4	681.0	-0.708502024291498	-760.0	-531.0	0.6842105263157895	-5.887750420553602	-1234.0	-126.0	1.8418241394458186	246.0	17.802674801161224	
1598.0	-0.7841751201020144	1376.0	8.487249894560469	5.282385174401032	2155.0	0.0	10855.0	4331.268310546875	0.4	681.0	-0.708502024291498	-760.0	-531.0	0.6842105263157895	-12.417800886985779	-1040.0	-88.0	1.5482983513567727	673.0	14.822909713604103	
1604.0	-0.5560724265685492	1360.0	8.678471628859365	5.2162014793958384	2136.0	0.0	11495.0	4350.799560546875	0.46	705.0	-0.6295546558704453	-721.0	-558.0	0.7388663967611336	-12.509558036397005	-885.0	6.0	0.1299630253659405	679.0	12.430331393334832	
1595.0	-0.6883502613734921	1371.0	8.545926243603184	5.320661528282425	2147.0	0.0	12135.0	4370.330810546875	0.46	705.0	-0.6295546558704453	-721.0	-558.0	0.7388663967611336	-0.4434928888209207	-1013.0	233.0	-3.863691650998505	-110.0	14.354488754811177	
1598.0	-0.722347125671335	1357.0	8.717668385247446	5.287611824159078	2150.0	0.0	12775.0	4389.862060546875	0.46	705.0	-0.6295546558704453	-721.0	-558.0	0.7388663967611336	7.64642911760208	-1163.0	367.0	-6.271285847884376	-639.0	16.632085361561053	
1587.0	-0.7917022536881984	1340.0	8.925012726418261	5.423595280184254	2156.0	0.0	13415.0	4409.393310546875	0.40750000000000003	684.0	-0.6639676113360324	-738.0	-561.0	0.7449392712550608	7.860529132894939	-1339.0	449.0	-7.56807086978473	-653.0	19.319746635172034	
1566.0	-0.5777286893027891	1342.0	8.893797736387755	5.6781227642202685	2138.0	0.0	14055.0	4428.924560546875	0.40750000000000003	684.0	-0.6639676113360324	-738.0	-561.0	0.7449392712550608	5.168986083499006	-1556.0	462.0	-7.693663353600873	-477.0	22.648243664146975	
1550.0	-0.8069405472297133	1367.0	8.591659562742954	5.862558966505453	2157.0	0.0	14695.0	4448.455810546875	0.40750000000000003	684.0	-0.6639676113360324	-738.0	-561.0	0.7449392712550608	3.1656216546872615	-1619.0	517.0	-8.469141941957467	-346.0	23.60719134872528	
1536.0	-0.5095200601058703	1368.0	8.571803513222498	6.033810749181463	2132.0	0.0	15335.0	4467.987060546875	0.365	667.0	-0.6680161943319838	-740.0	-556.0	0.7348178137651822	-7.998164857011776	-1355.0	493.0	-7.612992686322734	384.0	19.564809155536654	
1533.0	-0.5332065107917501	1367.0	8.584110825586897	6.0699646092351465	2134.0	0.0	15975.0	4487.518310546875	0.365	667.0	-0.6680161943319838	-740.0	-556.0	0.7348178137651822	-12.341336595809757	-1114.0	473.0	-7.0946924634812785	668.0	15.871971596156962	
1540.0	-0.4025158150362612	1369.0	8.557942305897688	5.9864107964013265	2123.0	0.0	16615.0	4507.049560546875	0.365	667.0	-0.6680161943319838	-740.0	-556.0	0.7348178137651822	-9.95565071111791	-1031.0	406.0	-6.1468680845898716	512.0	14.607857696321512	
1534.0	-0.32091308372035227	1383.0	8.384882104155247	6.0560547763061425	2116.0	0.0	17255.0	4526.580810546875	0.365	667.0	-0.6680161943319838	-740.0	-556.0	0.7348178137651822	-4.00672885762349	-1067.0	307.0	-4.867634256635461	123.0	15.173051446293552	
1531.0	-0.41711087547692965	1391.0	8.288912452307036	6.089317983664865	2124.0	0.0	17895.0	4546.112060546875	0.43	693.0	-0.5991902834008097	-706.0	-552.0	0.7267206477732794	0.9940357852882705	-1060.0	198.0	-3.3900733561441334	-204.0	15.080415669691591	
1525.0	-0.5122151592124451	1390.0	8.302293602565022	6.160923720459176	2132.0	0.0	18535.0	4565.643310546875	0.43	693.0	-0.5991902834008097	-706.0	-552.0	0.7267206477732794	-0.8869857776418414	-983.0	51.0	-1.0420614563364712	-81.0	13.92237054701405	
1515.0	-0.523763865572572	1387.0	8.337899157028518	6.2820022721956885	2133.0	0.0	19175.0	4585.174560546875	0.43	693.0	-0.5991902834008097	-706.0	-552.0	0.7267206477732794	-2.584493041749503	-963.0	-95.0	1.2744844135513669	30.0	13.63864633255043	
1519.0	-0.4309781349065616	1407.0	8.092662699820028	6.22983262927384	2125.0	0.0	19815.0	4604.705810546875	0.395	679.0	-0.6133603238866396	-713.0	-545.0	0.7125506072874495	-3.349135953509711	-1077.0	-189.0	2.733362925970245	80.0	15.402506254700858	
1516.0	-0.36054274656835705	1415.0	7.993344390783348	6.264695195289742	2119.0	0.0	20455.0	4624.237060546875	0.395	679.0	-0.6133603238866396	-713.0	-545.0	0.7125506072874495	-5.214864658204619	-1068.0	-261.0	3.916776656018928	202.0	15.276240039078221	
1507.0	-0.45565064331288707	1414.0	8.006364240139863	6.3724382482491855	2127.0	0.0	21095.0	4643.768310546875	0.395	679.0	-0.6133603238866396	-713.0	-545.0	0.7125506072874495	-4.282000305857165	-1034.0	-305.0	4.561433691595861	141.0	14.760974165057743	
1494.0	-0.45566629968528416	1414.0	8.004798602900156	6.529033284964764	2127.0	0.0	21735.0	4663.299560546875	0.395	679.0	-0.6133603238866396	-713.0	-545.0	0.7125506072874495	-4.404343171738798	-997.0	-320.0	4.802714470378559	149.0	14.19564107749495	
1495.0	-0.44339701833215023	1411.0	8.04125054773736	6.517836823903956	2126.0	0.0	22375.0	4682.830810546875	0.3525	662.0	-0.6477732793522267	-730.0	-553.0	0.728744939271255	-3.9149717082122653	-950.0	-355.0	5.328677633808017	117.0	13.479709977197373	
1490.0	-0.34854978696970584	1414.0	8.002164160172274	6.578244532321699	2118.0	0.0	23015.0	4702.362060546875	0.3525	662.0	-0.6477732793522267	-730.0	-553.0	0.728744939271255	-3.9608502829178778	-897.0	-336.0	5.046410851002375	120.0	12.663629675488696	
1487.0	-0.44340665302285615	1411.0	8.04028707866677	6.614203000344312	2126.0	0.0	23655.0	4721.893310546875	0.3525	662.0	-0.6477732793522267	-730.0	-553.0	0.728744939271255	-1.819850129989295	-825.0	-295.0	4.341217188209096	-20.0	11.55177491547577	
1479.0	-0.3716363606629156	1408.0	8.07445917180368	6.711989687299324	2120.0	0.0	24295.0	4741.424560546875	0.3975	680.0	-0.5789473684210527	-696.0	-571.0	0.7651821862348178	-2.5386144670438906	-754.0	-261.0	3.8579142133032827	27.0	10.457483545999844	
1470.0	-0.4303057333670841	1401.0	8.159902853767779	6.821545602151323	2125.0	0.0	24935.0	4760.955810546875	0.3975	680.0	-0.5789473684210527	-696.0	-571.0	0.7651821862348178	-3.37972166998012	-718.0	-169.0	2.4820532042381633	82.0	9.891323524216695	
1446.0	-0.45279845174931493	1390.0	8.29158339649707	7.113110912328111	2127.0	0.0	25575.0	4780.487060546875	0.3975	680.0	-0.5789473684210527	-696.0	-571.0	0.7651821862348178	-4.92430035173574	-730.0	-83.0	1.219247889909168	183.0	10.062829274970904	
1424.0	-0.35516794036109134	1370.0	8.530825011509917	7.383932290706106	2119.0	0.0	26215.0	4800.018310546875	0.3925	678.0	-0.5668016194331984	-690.0	-559.0	0.7408906882591093	-6.10185043584646	-712.0	37.0	-0.5765783832150626	260.0	9.768670306393414	
1399.0	-0.40061328673647445	1352.0	8.748195135876369	7.6890300590067895	2123.0	0.0	26855.0	4819.549560546875	0.3925	678.0	-0.5668016194331984	-690.0	-559.0	0.7408906882591093	-5.872457562318398	-684.0	165.0	-2.550188139009061	245.0	9.319288666407976	
1386.0	-0.30589759240141107	1356.0	8.695955045573175	7.8455589201681715	2115.0	0.0	27495.0	4839.080810546875	0.3925	678.0	-0.5668016194331984	-690.0	-559.0	0.7408906882591093	-10.720293622878117	-503.0	259.0	-3.7743101641329275	562.0	6.52969590403613	
1376.0	-0.365299583461969	1355.0	8.70813689189834	7.965690464894913	2120.0	0.0	28135.0	4858.612060546875	0.3925	678.0	-0.5668016194331984	-690.0	-559.0	0.7408906882591093	-15.32344395167457	-230.0	350.0	-4.947960994027012	863.0	2.32891535706909	
1381.0	-0.4012444764739386	1357.0	8.685076162129949	7.904628837514004	2123.0	0.0	28775.0	4878.143310546875	0.3425	658.0	-0.6153846153846154	-714.0	-577.0	0.7773279352226721	-14.375286741091912	26.0	431.0	-6.19244311574109	801.0	-1.6117172806280262	
1381.0	-0.37951207618387656	1374.0	8.477363810183776	7.900691914477981	2121.0	0.0	29415.0	4897.674560546875	0.3425	658.0	-0.6153846153846154	-714.0	-577.0	0.7773279352226721	-15.552836825202633	237.0	498.0	-7.143479823467971	878.0	-4.8589136995696505	
1394.0	-0.40439828085509644	1383.0	8.369695724014166	7.741663184683781	2123.0	0.0	30055.0	4917.205810546875	0.3425	658.0	-0.6153846153846154	-714.0	-577.0	0.7773279352226721	-16.76097262578376	337.0	667.0	-9.679156401657778	957.0	-6.418718831164039	
