Device	Device	Device	Device	Device	Device	Device	Device	Device	Device	Device	Device	Device	Device	Device	Device	Device	Device	Device	Device	Device	
Low Noise Accelerometer X	Low Noise Accelerometer X	Low Noise Accelerometer Z	Low Noise Accelerometer Z	Low Noise Accelerometer Y	Low Noise Accelerometer Y	Event_Marker	Timestamp	Timestamp	Magnetometer Z	Magnetometer Z	Magnetometer X	Magnetometer X	Magnetometer Y	Magnetometer Y	Gyroscope Y	Gyroscope Y	Gyroscope Z	Gyroscope Z	Gyroscope X	Gyroscope X	
CAL	UNCAL	UNCAL	CAL	CAL	UNCAL	CAL	CAL	UNCAL	CAL	UNCAL	UNCAL	CAL	UNCAL	CAL	CAL	UNCAL	UNCAL	CAL	CAL	UNCAL	
m/(s^2)	no units	no units	m/(s^2)	m/(s^2)	no units	no units	ms	no units	local_flux	no units	no units	local_flux	no units	local_flux	deg/s	no units	no units	deg/s	deg/s	no units	
-2.475901563372336	1962.0	1295.0	9.552700805623516	0.9012347595148915	2298.0	0.0	1067.32177734375	34974.0	0.7125	806.0	-373.0	0.07489878542510121	-451.0	0.5222672064777328	10.506193607585258	491.0	-246.0	3.2964831216991284	-8.652012919281706	-826.0	
-3.1290594510138856	1970.0	1283.0	9.713102517659026	0.8015256727105114	2353.0	0.0	1086.85302734375	35614.0	0.7125	806.0	-373.0	0.07489878542510121	-451.0	0.5222672064777328	7.677014834072489	456.0	-344.0	4.911578584522135	-8.098805036619103	-641.0	
-3.151526878333014	1967.0	1272.0	9.847312166698615	0.840129769731365	2355.0	0.0	1106.38427734375	36254.0	0.73	813.0	-372.0	0.07692307692307693	-465.0	0.5506072874493927	-2.966814497629607	484.0	-434.0	6.725849185785193	-8.51030787303397	55.0	
-2.8557877328595205	1974.0	1287.0	9.659321952143191	0.7549900074974011	2330.0	0.0	1125.91552734375	36894.0	0.73	813.0	-372.0	0.07692307692307693	-465.0	0.5506072874493927	-7.126471937605139	426.0	-382.0	6.083522973474811	-7.62675108298583	327.0	
-2.9286599635948907	1978.0	1299.0	9.514956021463318	0.7031811954921126	2336.0	0.0	1145.44677734375	37534.0	0.73	813.0	-372.0	0.07692307692307693	-465.0	0.5506072874493927	-6.3924147423153395	336.0	-270.0	4.317715356036512	-6.263405629928971	279.0	
-2.7835226051348503	1972.0	1280.0	9.74297758175312	0.781482156909015	2324.0	0.0	1164.97802734375	38174.0	0.7125	806.0	-366.0	0.08906882591093118	-462.0	0.5445344129554656	-6.83590763113626	156.0	-266.0	4.246313145686611	-3.5021125935699873	308.0	
-3.020472884240176	1972.0	1271.0	9.857473480744313	0.7814025720977857	2344.0	0.0	1184.50927734375	38814.0	0.7125	806.0	-366.0	0.08906882591093118	-462.0	0.5445344129554656	-3.8538002752714484	-6.0	-219.0	3.3792917924761903	-1.0249764544858566	113.0	
-2.9145705775459962	1972.0	1281.0	9.733418435876539	0.779980494267372	2335.0	0.0	1204.04052734375	39454.0	0.7125	806.0	-366.0	0.08906882591093118	-462.0	0.5445344129554656	-5.780700412907173	-79.0	-157.0	2.4915556676668773	0.0862934913091684	239.0	
-2.8548089011571047	1977.0	1279.0	9.757205122384812	0.7208128809060048	2330.0	0.0	1223.57177734375	40094.0	0.7125	806.0	-366.0	0.08906882591093118	-462.0	0.5445344129554656	-6.361829025844931	-146.0	-8.0	0.21279280058689598	1.0915862677327373	277.0	
-2.6628055200534164	1961.0	1266.0	9.90992418513456	0.918558380309386	2314.0	0.0	1243.10302734375	40734.0	0.7225	810.0	-359.0	0.10323886639676114	-461.0	0.5425101214574899	-5.780700412907173	-268.0	60.0	-0.8750567532036606	2.9527347784860702	239.0	
-2.6869735584043055	1963.0	1269.0	9.874072730998003	0.8935032853009772	2316.0	0.0	1262.63427734375	41374.0	0.7225	810.0	-359.0	0.10323886639676114	-461.0	0.5425101214574899	-3.349135953509711	-255.0	93.0	-1.4778784797293196	2.7472282736651903	80.0	
-2.544152344341094	1957.0	1269.0	9.870479851604946	0.9671487964802543	2304.0	0.0	1282.16552734375	42014.0	0.7225	810.0	-359.0	0.10323886639676114	-461.0	0.5425101214574899	-6.178314727022481	-273.0	54.0	-0.7676366535232009	3.0305313977734993	265.0	
-2.4270718556421653	1963.0	1285.0	9.673766816735824	0.892096184043355	2294.0	0.0	1301.69677734375	42654.0	0.7125	806.0	-360.0	0.10121457489878542	-463.0	0.5465587044534413	-6.423000458785748	-262.0	58.0	-0.8176853217226042	2.8612415908521314	281.0	
-2.39136835863087	1960.0	1285.0	9.672687946436826	0.9285762199207409	2291.0	0.0	1321.22802734375	43294.0	0.7125	806.0	-360.0	0.10121457489878542	-463.0	0.5465587044534413	-4.37375745526839	-284.0	80.0	-1.2413979324723243	3.194583105223382	147.0	
-2.3070849802444453	1953.0	1277.0	9.767692451745976	1.0156564932083787	2284.0	0.0	1340.75927734375	43934.0	0.7125	806.0	-360.0	0.10121457489878542	-463.0	0.5465587044534413	-2.2327573023398077	-291.0	20.0	-0.4052607330782583	3.310355862824197	7.0	
-2.6059719084174047	1964.0	1288.0	9.640904396354737	0.8776017423368965	2309.0	0.0	1360.29052734375	44574.0	0.7125	806.0	-360.0	0.10121457489878542	-463.0	0.5465587044534413	-0.6117143294081664	-256.0	-36.0	0.3965938693726441	2.7813174808143346	-99.0	
-2.5099140840425767	1952.0	1281.0	9.722877310028073	1.0247800921071237	2301.0	0.0	1379.82177734375	45214.0	0.7075	804.0	-366.0	0.08906882591093118	-457.0	0.5344129554655871	-3.3950145282153237	-247.0	-104.0	1.5551839460120107	2.654803028657604	83.0	
-2.390892792647551	1950.0	1281.0	9.720244544768663	1.0500140352580543	2291.0	0.0	1399.35302734375	45854.0	0.7075	804.0	-366.0	0.08906882591093118	-457.0	0.5344129554655871	-0.9328643523474538	-169.0	-46.0	0.576594059901601	1.4481474044627571	-78.0	
-2.509191100376893	1945.0	1275.0	9.79517567659642	1.1105706386727379	2301.0	0.0	1418.88427734375	46494.0	0.7075	804.0	-366.0	0.08906882591093118	-457.0	0.5344129554655871	3.6549931182137945	-89.0	-29.0	0.14390038633162971	0.21626177507706498	-378.0	
-2.7350875084868225	1949.0	1273.0	9.824582484651101	1.0607070396683946	2320.0	0.0	1438.41552734375	47134.0	0.6950000000000001	799.0	-356.0	0.10931174089068826	-454.0	0.52834008097166	3.8538002752714484	12.0	-32.0	0.1975874064963741	-1.332994204191903	-391.0	
-2.77371184423297	1956.0	1297.0	9.533577481464944	0.9701633468496198	2323.0	0.0	1457.94677734375	47774.0	0.6950000000000001	799.0	-356.0	0.10931174089068826	-454.0	0.52834008097166	-1.3763572411683744	175.0	-68.0	0.9854873853711535	-3.8262660406775146	-49.0	
-2.4646171354033095	1955.0	1300.0	9.490667412049982	0.9844442853207014	2297.0	0.0	1477.47802734375	48414.0	0.6950000000000001	799.0	-356.0	0.10931174089068826	-454.0	0.52834008097166	-5.337207524086252	291.0	-40.0	0.731043473348461	-5.608770584140231	210.0	
-2.3938027923553586	1963.0	1305.0	9.42924457398792	0.887538429821265	2291.0	0.0	1497.00927734375	49054.0	0.7075	804.0	-358.0	0.10526315789473684	-452.0	0.5242914979757085	-3.4714788193913444	345.0	25.0	-0.3350392229054745	-6.448033528641515	88.0	
-2.5502426438295	1961.0	1319.0	9.2614499027643	0.9067145234242199	2304.0	0.0	1516.54052734375	49694.0	0.7075	804.0	-358.0	0.10526315789473684	-452.0	0.5242914979757085	-4.725493194678085	338.0	-50.0	0.8675956411225452	-6.32859579439436	170.0	
-2.217334764631932	1967.0	1322.0	9.21890448918775	0.8369035373181586	2276.0	0.0	1536.07177734375	50334.0	0.7075	804.0	-358.0	0.10526315789473684	-452.0	0.5242914979757085	-10.200336442881175	435.0	-44.0	1.0091658698674537	-7.815595006945028	528.0	
-2.123717395663284	1953.0	1335.0	9.056831862243063	1.003272957264132	2268.0	0.0	1555.60302734375	50974.0	0.7075	804.0	-358.0	0.10526315789473684	-452.0	0.5242914979757085	-8.4569506040679	457.0	-45.0	0.9581935688346006	-8.153683370434104	414.0	
-1.802707069127133	1963.0	1338.0	9.015007373000985	0.8851646430338085	2241.0	0.0	1575.13427734375	51614.0	0.7075	804.0	-355.0	0.11133603238866396	-439.0	0.4979757085020243	-4.022021715858695	627.0	72.0	-0.9926460000381419	-10.781753988004066	124.0	
-2.46219906093044	1975.0	1378.0	8.541998668860808	0.72453123577996	2296.0	0.0	1594.66552734375	52254.0	0.7075	804.0	-355.0	0.11133603238866396	-439.0	0.4979757085020243	3.3338430952745073	810.0	112.0	-1.8740020071798653	-13.59860805751234	-357.0	
-2.085568625900455	1956.0	1315.0	9.300280267097381	0.9723788347455937	2265.0	0.0	1614.19677734375	52894.0	0.7075	804.0	-355.0	0.11133603238866396	-439.0	0.4979757085020243	-6.361829025844931	862.0	-82.0	1.5056223303820504	-14.362724964359217	277.0	
-2.405598916397851	1950.0	1304.0	9.440108360214905	1.0442642503294763	2292.0	0.0	1633.72802734375	53534.0	0.715	807.0	-356.0	0.10931174089068826	-427.0	0.4736842105263158	-3.1044502217464447	874.0	-295.0	4.653272763673378	-14.515382263923803	64.0	
-2.5877770845635997	1962.0	1334.0	9.07943440078287	0.8906506762061659	2307.0	0.0	1653.25927734375	54174.0	0.715	807.0	-356.0	0.10931174089068826	-427.0	0.4736842105263158	-10.292093592292401	1151.0	-462.0	7.55182842642137	-18.73681868059692	534.0	
-2.3229595452352907	1995.0	1310.0	9.370712143137625	0.501534045000761	2285.0	0.0	1672.79052734375	54814.0	0.715	807.0	-356.0	0.10931174089068826	-427.0	0.4736842105263158	-15.996329714023553	1512.0	-394.0	6.789474768496726	-24.28380081775926	907.0	
-2.342519381519288	1977.0	1275.0	9.79568089569031	0.7267052915684928	2287.0	0.0	1692.32177734375	55454.0	0.715	807.0	-356.0	0.10931174089068826	-427.0	0.4736842105263158	-7.478207677014835	1408.0	-309.0	5.125466869594926	-22.704614596303283	350.0	
-2.795638671406514	1997.0	1282.0	9.72184714506285	0.4797335682353846	2325.0	0.0	1711.85302734375	56094.0	0.74	817.0	-351.0	0.1194331983805668	-431.0	0.4817813765182186	-2.5997858999847074	1499.0	-289.0	4.636697377896046	-24.10585030410964	31.0	
-2.522111105215416	2011.0	1284.0	9.69365138322029	0.3132302298652637	2302.0	0.0	1731.38427734375	56734.0	0.74	817.0	-351.0	0.1194331983805668	-431.0	0.4817813765182186	-16.5315797522557	1694.0	-344.0	6.069771256395661	-27.083693878659	942.0	
-2.27238707470152	2026.0	1286.0	9.666054434609906	0.13445263963192988	2281.0	0.0	1750.91552734375	57374.0	0.74	817.0	-351.0	0.1194331983805668	-431.0	0.4817813765182186	-19.896008564000613	1632.0	-266.0	4.995126880421635	-26.143082335614995	1162.0	
-1.9157819057910286	2044.0	1290.0	9.61228561137337	-0.07992415502321398	2251.0	0.0	1770.44677734375	58014.0	0.7525000000000001	822.0	-347.0	0.12753036437246965	-431.0	0.4817813765182186	-18.137329866952136	1454.0	-119.0	2.6365118270698864	-23.435350395002285	1047.0	
-1.7830309136754434	2041.0	1275.0	9.792146727693742	-0.03885484446239765	2240.0	0.0	1789.97802734375	58654.0	0.7525000000000001	822.0	-347.0	0.12753036437246965	-431.0	0.4817813765182186	-11.332007952286283	1025.0	12.0	0.2836317996855438	-16.876095705940543	602.0	
-2.1533597616248037	2029.0	1286.0	9.664023837519615	0.09945772250763822	2271.0	0.0	1809.50927734375	59294.0	0.7525000000000001	822.0	-347.0	0.12753036437246965	-431.0	0.4817813765182186	-3.226793087628078	633.0	78.0	-1.1158156524913554	-10.875052586477347	72.0	
-1.857508348505341	2028.0	1300.0	9.487260387561122	0.11092916041074734	2246.0	0.0	1829.04052734375	59934.0	0.7575000000000001	824.0	-335.0	0.15182186234817813	-418.0	0.45546558704453444	-10.047407860529134	539.0	-12.0	0.5268232595256737	-9.416244733493436	518.0	
-1.2604153240532663	2048.0	1284.0	9.672753308959084	-0.12035390633845938	2196.0	0.0	1848.57177734375	60574.0	0.7575000000000001	824.0	-335.0	0.15182186234817813	-418.0	0.45546558704453444	-10.689707906407708	533.0	74.0	-0.7711490145229443	-9.337157554285172	560.0	
-1.8321212867877001	2026.0	1287.0	9.645014178372866	0.13843449238632732	2244.0	0.0	1868.10302734375	61214.0	0.7575000000000001	824.0	-335.0	0.15182186234817813	-418.0	0.45546558704453444	8.946322067594433	40.0	206.0	-3.662406244986417	-1.801239683134228	-724.0	
-2.2495611663903956	2023.0	1294.0	9.567692884769933	0.16885824603149466	2279.0	0.0	1887.63427734375	61854.0	0.7575000000000001	824.0	-335.0	0.15182186234817813	-418.0	0.45546558704453444	13.51888667992048	-40.0	247.0	-4.488174043902333	-0.581938668473395	-1023.0	
-2.3563119720959484	2027.0	1291.0	9.60689802850037	0.12038206976471054	2288.0	0.0	1907.16552734375	62494.0	0.7625000000000001	826.0	-333.0	0.15587044534412955	-427.0	0.4736842105263158	4.29729316409237	-9.0	240.0	-4.006925895956476	-1.0528051803958087	-420.0	
-2.1679415743657517	2031.0	1308.0	9.396318753901024	0.06986141716568828	2272.0	0.0	1926.69677734375	63134.0	0.7625000000000001	826.0	-333.0	0.15587044534412955	-427.0	0.4736842105263158	-6.117143294081664	-29.0	147.0	-2.1630525754080074	-0.7274767740278257	261.0	
-1.5342047599627884	2019.0	1284.0	9.67476209895925	0.2263459654638945	2219.0	0.0	1946.22802734375	63774.0	0.7625000000000001	826.0	-333.0	0.15587044534412955	-427.0	0.4736842105263158	-8.686343477595964	-146.0	214.0	-3.1087537191137966	1.0583708025357303	429.0	
-2.0812225579184993	2022.0	1280.0	9.734887065292906	0.18593370849775742	2265.0	0.0	1965.75927734375	64414.0	0.7575000000000001	824.0	-332.0	0.15789473684210525	-418.0	0.45546558704453444	8.059336289952594	-432.0	438.0	-7.267673991243042	5.40530392603816	-666.0	
-2.7010123623269937	2011.0	1287.0	9.660668529205376	0.3107815602138496	2317.0	0.0	1985.29052734375	65054.0	0.7575000000000001	824.0	-332.0	0.15789473684210525	-418.0	0.45546558704453444	7.294693378192385	-660.0	229.0	-4.057504697522056	8.93594789302785	-616.0	
-1.91435761651375	2012.0	1278.0	9.754714539101238	0.30848083509881497	2251.0	0.0	2004.82177734375	158.0	0.7575000000000001	824.0	-332.0	0.15789473684210525	-418.0	0.45546558704453444	-16.05750114696437	-414.0	-24.0	0.805553175347014	5.209835491857813	911.0	
-1.591277358926797	2020.0	1264.0	9.919883154939333	0.2186294678227717	2224.0	0.0	2024.35302734375	798.0	0.7575000000000001	824.0	-332.0	0.15789473684210525	-418.0	0.45546558704453444	-14.191772442269462	-329.0	36.0	-0.1788696525358051	3.895710152638368	789.0	
-1.759355302016608	2035.0	1276.0	9.77875551262493	0.03340324397932046	2238.0	0.0	2043.88427734375	1438.0	0.75	821.0	-338.0	0.145748987854251	-406.0	0.4311740890688259	1.4834072488148036	-318.0	249.0	-4.080217824619195	3.68790735067816	-236.0	
-2.247848511995252	2028.0	1280.0	9.738958324284315	0.11205971751031207	2279.0	0.0	2063.41552734375	2078.0	0.75	821.0	-338.0	0.145748987854251	-406.0	0.4311740890688259	2.936228781159199	-364.0	304.0	-4.991321726668787	4.38464255993141	-331.0	
-1.9256480661644673	2014.0	1273.0	9.816145764505656	0.28550016956822744	2252.0	0.0	2082.94677734375	2718.0	0.75	821.0	-338.0	0.145748987854251	-406.0	0.4311740890688259	-9.206300657592905	-140.0	206.0	-2.9639912480632407	0.9677515252974863	463.0	
-1.7249794830090188	2043.0	1287.0	9.644908841955282	-0.06531547341267127	2235.0	0.0	2102.47802734375	3358.0	0.7475	820.0	-335.0	0.15182186234817813	-430.0	0.47975708502024295	-5.7654075546719685	36.0	308.0	-4.643442122102644	-1.749672107272891	238.0	
-2.501309363174241	2048.0	1309.0	9.392873206385442	-0.13836044878114198	2300.0	0.0	2122.00927734375	3998.0	0.7475	820.0	-335.0	0.15182186234817813	-430.0	0.47975708502024295	5.459550389967886	-85.0	408.0	-6.649031594646011	0.08695452063478896	-496.0	
-2.0928534235161402	2045.0	1278.0	9.762276696005063	-0.09074324127891556	2266.0	0.0	2141.54052734375	4638.0	0.7475	820.0	-335.0	0.15182186234817813	-430.0	0.47975708502024295	-9.1910077993577	-92.0	194.0	-2.772669755768535	0.23312952463043807	462.0	
-1.9755387648345677	2043.0	1292.0	9.58898065940039	-0.0689396298820246	2256.0	0.0	2161.07177734375	5278.0	0.745	819.0	-327.0	0.1680161943319838	-417.0	0.4534412955465587	-10.58265789876128	-245.0	256.0	-3.6940881008116104	2.5716213408731177	553.0	
-2.3576179720455666	2056.0	1302.0	9.47629803353855	-0.2316405804954678	2288.0	0.0	2180.60302734375	5918.0	0.745	819.0	-327.0	0.1680161943319838	-417.0	0.4534412955465587	-6.025386144670439	-415.0	408.0	-6.240311801311623	5.154721325749351	255.0	
-2.0260787182872058	2039.0	1316.0	9.296890076041349	-0.027094069999394482	2260.0	0.0	2200.13427734375	6558.0	0.745	819.0	-327.0	0.1680161943319838	-417.0	0.4534412955465587	-15.10934393638171	-681.0	347.0	-4.97957870751116	9.24896130974858	849.0	
-1.6788460787217607	2032.0	1299.0	9.496344508776291	0.06470469444854918	2231.0	0.0	2219.66552734375	7198.0	0.745	819.0	-327.0	0.1680161943319838	-417.0	0.4534412955465587	-15.965743997553144	-726.0	389.0	-5.598220311711091	9.933276658322203	905.0	
-1.4515121336348324	2007.0	1289.0	9.610691398421539	0.3704697909694319	2212.0	0.0	2239.19677734375	7838.0	0.725	811.0	-324.0	0.17408906882591094	-420.0	0.45951417004048584	-8.502829178773514	-1101.0	515.0	-7.89221267842673	15.664518106451885	417.0	
-1.9412195496348752	2004.0	1303.0	9.44947360794103	0.3984929393130743	2253.0	0.0	2258.72802734375	8478.0	0.725	811.0	-324.0	0.17408906882591094	-420.0	0.45951417004048584	2.676250191160728	-1234.0	649.0	-10.420752513067395	17.68004903463609	-314.0	
-1.594461271716411	2008.0	1290.0	9.601491875977958	0.3568081163686601	2224.0	0.0	2278.25927734375	9118.0	0.725	811.0	-324.0	0.17408906882591094	-420.0	0.45951417004048584	-2.4009787429270535	-1145.0	591.0	-9.311947210460767	16.325478042089042	18.0	
-1.413241461535328	2010.0	1268.0	9.866330036943376	0.3398206921476106	2209.0	0.0	2297.79052734375	9758.0	0.7225	810.0	-332.0	0.15789473684210525	-421.0	0.46153846153846156	-1.529285823520416	-1175.0	595.0	-9.412937168877777	16.78480265224862	-39.0	
-2.1157720657253085	1971.0	1270.0	9.851364856040613	0.8023756005599447	2268.0	0.0	2317.32177734375	10398.0	0.7225	810.0	-332.0	0.15789473684210525	-421.0	0.46153846153846156	9.1910077993577	-1468.0	611.0	-10.13275225155953	21.273538213252394	-740.0	
-1.844299978548953	1999.0	1289.0	9.617621192723766	0.4630660505750099	2245.0	0.0	2336.85302734375	11038.0	0.7225	810.0	-332.0	0.15789473684210525	-421.0	0.46153846153846156	-4.312586022327573	-1051.0	589.0	-9.19030677092049	14.884312982620703	143.0	
-1.1282266101373528	1983.0	1273.0	9.796386605312312	0.6665731768482461	2185.0	0.0	2356.38427734375	11678.0	0.7225	810.0	-332.0	0.15789473684210525	-421.0	0.46153846153846156	-11.194372228169446	-814.0	598.0	-9.017126454411793	11.249402158810188	593.0	
-1.4589209778933556	1993.0	1252.0	10.060283163045382	0.5480622366145042	2213.0	0.0	2375.91552734375	12318.0	0.7175	808.0	-339.0	0.1437246963562753	-432.0	0.48380566801619435	8.518122037008718	-832.0	716.0	-11.6232329898287	11.499541799302268	-696.0	
-2.8648911664681145	1970.0	1264.0	9.939454781760007	0.8086944008379888	2331.0	0.0	2395.44677734375	12958.0	0.7175	808.0	-339.0	0.1437246963562753	-432.0	0.48380566801619435	19.896008564000613	-991.0	639.0	-10.918383500745108	13.946363195834962	-1440.0	
-2.2814396618173944	1963.0	1262.0	9.951271913498642	0.8991026079168591	2282.0	0.0	2414.97802734375	13598.0	0.7175	808.0	-339.0	0.1437246963562753	-432.0	0.48380566801619435	-10.383850741703625	-732.0	196.0	-2.853917106521196	10.052786592322851	540.0	
-1.6872747021182006	1981.0	1270.0	9.843958359608505	0.6860305165565304	2232.0	0.0	2434.50927734375	14238.0	0.6975	800.0	-346.0	0.12955465587044535	-443.0	0.5060728744939271	-31.289187949227713	-273.0	128.0	-0.9014747582987486	3.0291930167257437	1907.0	
-1.245640288765174	2004.0	1260.0	9.959780647292119	0.415654872708793	2195.0	0.0	2454.04052734375	14878.0	0.6975	800.0	-346.0	0.12955465587044535	-443.0	0.5060728744939271	-32.95610949686497	-26.0	272.0	-3.0117298356592754	-0.7819969976047132	2016.0	
-2.01517495082138	1983.0	1226.0	10.387266822623916	0.669521297787638	2260.0	0.0	2473.57177734375	15518.0	0.6975	800.0	-346.0	0.12955465587044535	-443.0	0.5060728744939271	-18.88667992047714	-159.0	491.0	-6.963232537478256	1.2193043019077097	1096.0	
-1.9079726658592737	1949.0	1225.0	10.393209604548845	1.0803507304926252	2251.0	0.0	2493.10302734375	16158.0	0.6975	800.0	-336.0	0.14979757085020243	-453.0	0.5263157894736842	-22.985165927511854	-327.0	166.0	-1.8263546299775069	3.848546335547701	1364.0	
-1.458937838602091	1979.0	1252.0	10.05859709217185	0.7167030453851269	2213.0	0.0	2512.63427734375	16798.0	0.6975	800.0	-336.0	0.14979757085020243	-453.0	0.5263157894736842	-32.17617372686956	145.0	102.0	-0.40196686528695325	-3.379806073440349	1965.0	
-0.9433545472013677	1981.0	1221.0	10.426450041768001	0.7051195517488885	2170.0	0.0	2532.16552734375	17438.0	0.6975	800.0	-336.0	0.14979757085020243	-453.0	0.5263157894736842	-34.103073864505276	507.0	234.0	-2.2996109173257864	-8.953485598201953	2091.0	
-1.3607908137950488	1981.0	1228.0	10.349490049066539	0.6994059892289224	2205.0	0.0	2551.69677734375	18078.0	0.6975	800.0	-336.0	0.14979757085020243	-453.0	0.5263157894736842	-22.26640159045726	594.0	532.0	-7.343133922871097	-10.338890906514273	1317.0	
-1.3155010911738116	1978.0	1247.0	10.116557549285504	0.731344814772767	2201.0	0.0	2571.22802734375	18718.0	0.7000000000000001	801.0	-326.0	0.1700404858299595	-456.0	0.5323886639676113	-18.550237039302647	646.0	552.0	-7.791401524350646	-11.141286732751563	1074.0	
-0.591618245739854	2005.0	1265.0	9.885794473633654	0.4086671768947926	2140.0	0.0	2590.75927734375	19358.0	0.7000000000000001	801.0	-326.0	0.1700404858299595	-456.0	0.5323886639676113	-27.16011622572259	806.0	503.0	-6.668837244114312	-13.585178475249183	1637.0	
-0.3878211492663504	2000.0	1253.0	10.027408882888766	0.47377839990005155	2123.0	0.0	2610.29052734375	19998.0	0.7000000000000001	801.0	-326.0	0.1700404858299595	-456.0	0.5323886639676113	-24.33093745220982	689.0	590.0	-8.138066171018604	-11.804566176517612	1452.0	
-0.8521306645217082	2004.0	1254.0	10.025028785924414	0.4208949317238736	2162.0	0.0	2629.82177734375	20638.0	0.7000000000000001	801.0	-318.0	0.1862348178137652	-449.0	0.5182186234817814	-7.233521945251568	343.0	742.0	-11.21284905695307	-6.526122659665742	334.0	
-0.8737146670756539	2026.0	1236.0	10.247580911482228	0.16006989324563498	2164.0	0.0	2649.35302734375	21278.0	0.7000000000000001	801.0	-318.0	0.1862348178137652	-449.0	0.5182186234817814	3.899678849977061	200.0	785.0	-12.34144354299057	-4.343147441414255	-394.0	
-0.994554858830101	2036.0	1251.0	10.068323640799443	0.0347944182035915	2174.0	0.0	2668.88427734375	21918.0	0.7000000000000001	801.0	-318.0	0.1862348178137652	-449.0	0.5182186234817814	8.793393485242392	-63.0	840.0	-13.423463607078924	-0.3183684399682881	-714.0	
-1.671559638257029	2009.0	1239.0	10.224988555249476	0.3564588735176	2231.0	0.0	2688.41552734375	22558.0	0.7000000000000001	801.0	-318.0	0.1862348178137652	-449.0	0.5182186234817814	11.806086557577613	-368.0	797.0	-12.929384710973386	4.366639864720864	-911.0	
-0.9436937588119519	2003.0	1224.0	10.392528880709568	0.43937749544775856	2170.0	0.0	2707.94677734375	23198.0	0.6925	798.0	-322.0	0.17813765182186236	-454.0	0.52834008097166	-6.254779018198502	-468.0	439.0	-6.71607080223761	5.963221369620712	270.0	
-0.29025714074324305	2024.0	1234.0	10.26000021138998	0.19024924004928284	2115.0	0.0	2727.47802734375	23838.0	0.6925	798.0	-322.0	0.17813765182186236	-454.0	0.52834008097166	-18.687872763419485	-266.0	225.0	-2.8963319079843752	2.901833059622013	1083.0	
-0.33800899682474883	2007.0	1235.0	10.246719365144164	0.3943253816719852	2119.0	0.0	2747.00927734375	24478.0	0.6925	798.0	-322.0	0.17813765182186236	-454.0	0.52834008097166	-6.055971861140848	-475.0	198.0	-3.01834499372318	6.107610013312731	257.0	
-1.146773893301463	1996.0	1230.0	10.322610669853685	0.5202856792833361	2187.0	0.0	2766.54052734375	25118.0	0.7000000000000001	801.0	-328.0	0.1659919028340081	-460.0	0.5404858299595142	14.252943875210278	-600.0	311.0	-5.587819404289751	7.9999757264726785	-1071.0	
-1.575384728890878	1993.0	1231.0	10.318669968055039	0.5520653352047221	2223.0	0.0	2786.07177734375	25758.0	0.7000000000000001	801.0	-328.0	0.1659919028340081	-460.0	0.5404858299595142	19.926594280471022	-736.0	192.0	-4.005304552470765	10.102650652495853	-1442.0	
-1.447372271533229	2003.0	1255.0	10.024677608581886	0.4269836848779921	2212.0	0.0	2805.60302734375	26398.0	0.7000000000000001	801.0	-328.0	0.1659919028340081	-460.0	0.5404858299595142	6.897079064077077	-687.0	-18.0	-0.24670874059845202	9.388356911366458	-590.0	
-0.7457588135259017	1989.0	1260.0	9.947928171219361	0.6011395295059956	2153.0	0.0	2825.13427734375	27038.0	0.6975	800.0	-332.0	0.15789473684210525	-463.0	0.5465587044534413	-5.795993271142377	-541.0	-151.0	2.3289986298908048	7.173819370985114	240.0	
-0.6361982323951283	1990.0	1240.0	10.189700570010974	0.5950223905220513	2144.0	0.0	2844.66552734375	27678.0	0.6975	800.0	-332.0	0.15789473684210525	-463.0	0.5465587044534413	1.1010857929346995	-425.0	-30.0	0.20987486568834507	5.3726680290006	-211.0	
-1.8504970254587538	1979.0	1242.0	10.188392692219853	0.7153833655175204	2246.0	0.0	2864.19677734375	28318.0	0.6975	800.0	-332.0	0.15789473684210525	-463.0	0.5465587044534413	23.81098027221288	-525.0	198.0	-4.220575097875976	6.8628118951774475	-1696.0	
-1.4579686415903805	1974.0	1244.0	10.155516793342882	0.7788920952340863	2213.0	0.0	2883.72802734375	28958.0	0.6975	800.0	-332.0	0.15789473684210525	-463.0	0.5465587044534413	15.338736809909774	-544.0	-37.0	-0.2701673641273363	7.193861162019308	-1142.0	
-1.0541486037349517	1968.0	1251.0	10.061330102695315	0.8533357184261953	2179.0	0.0	2903.25927734375	29598.0	0.68	793.0	-338.0	0.145748987854251	-455.0	0.5303643724696356	-2.003364428811745	-345.0	-216.0	3.2071270288387614	4.175081857982112	-8.0	
-1.0767319117090635	1970.0	1241.0	10.183951686236504	0.8314659314751093	2181.0	0.0	2922.79052734375	30238.0	0.68	793.0	-338.0	0.145748987854251	-455.0	0.5303643724696356	-2.263343018810216	-236.0	-138.0	2.0345535039651614	2.4908074039977617	9.0	
-1.2782128637857384	1975.0	1234.0	10.27395171666425	0.7710101587074758	2198.0	0.0	2942.32177734375	30878.0	0.68	793.0	-338.0	0.145748987854251	-455.0	0.5303643724696356	5.490136106438293	-28.0	48.0	-1.1044535269031661	-0.7322352672009022	-498.0	
-1.816384280505927	1971.0	1255.0	10.028238616073992	0.8089069536128061	2243.0	0.0	2961.85302734375	31518.0	0.6925	798.0	-343.0	0.13562753036437247	-452.0	0.5242914979757085	9.1910077993577	-25.0	59.0	-1.421201123083237	-0.7814361941370777	-740.0	
-1.2935176601923697	1984.0	1262.0	9.93394826647731	0.6556233067999117	2199.0	0.0	2981.38427734375	32158.0	0.6925	798.0	-343.0	0.13562753036437247	-452.0	0.5242914979757085	-8.258143447010246	92.0	-234.0	3.8011946563161247	-2.5245168243436975	401.0	
-0.5664725800228867	2005.0	1254.0	10.019408664378009	0.4115909173668494	2138.0	0.0	3000.91552734375	32798.0	0.6925	798.0	-343.0	0.13562753036437247	-452.0	0.5242914979757085	-29.239944945710356	381.0	-475.0	8.391475227212677	-6.91316979583283	1773.0	
-0.5183911470215024	1992.0	1250.0	10.065647202611672	0.5696230084856329	2134.0	0.0	3020.44677734375	33438.0	0.6925	798.0	-343.0	0.13562753036437247	-452.0	0.5242914979757085	-19.69720140694296	334.0	-423.0	7.202795504306032	-6.203865861130026	1149.0	
-1.5075189243135585	1982.0	1260.0	9.962393282929876	0.6781485800299196	2217.0	0.0	3039.97802734375	34078.0	0.7075	804.0	-336.0	0.14979757085020243	-443.0	0.5060728744939271	6.545343324667381	52.0	-211.0	2.8492208650148	-1.9202572159317148	-567.0	
-1.5675075446670657	1991.0	1264.0	9.915912199960093	0.56818533722723	2222.0	0.0	3059.50927734375	34718.0	0.7075	804.0	-336.0	0.14979757085020243	-443.0	0.5060728744939271	-9.909772136412297	224.0	-420.0	6.748318102546682	-4.520517432753881	509.0	
-0.9835648176606305	1987.0	1258.0	9.976851567270277	0.6234363229278354	2173.0	0.0	3079.04052734375	35358.0	0.7075	804.0	-336.0	0.14979757085020243	-443.0	0.5060728744939271	-14.023551001682216	199.0	-429.0	7.047443463669918	-4.133914087689526	778.0	
-0.6979031201527942	1991.0	1258.0	9.97159274662534	0.5779949924056776	2149.0	0.0	3098.57177734375	35998.0	0.6975	800.0	-336.0	0.14979757085020243	-439.0	0.4979757085020243	0.04587857470561248	189.0	-213.0	3.1609547220087766	-4.019334138524887	-142.0	
-1.1491056940706887	1983.0	1249.0	10.08943059293112	0.6722252657612889	2187.0	0.0	3118.10302734375	36638.0	0.6975	800.0	-336.0	0.14979757085020243	-439.0	0.4979757085020243	15.10934393638171	43.0	-4.0	-0.6784929107563272	-1.8174340007663021	-1127.0	
-2.1971261750225137	1981.0	1254.0	10.049287259653385	0.6850385798283848	2275.0	0.0	3137.63427734375	37278.0	0.6975	800.0	-336.0	0.14979757085020243	-439.0	0.4979757085020243	-3.3338430952745073	154.0	-191.0	2.9523844010944154	-3.484362913699659	79.0	
-1.1135204863870536	1983.0	1250.0	10.07652278986607	0.6723229617768244	2184.0	0.0	3157.16552734375	37918.0	0.72	809.0	-339.0	0.1437246963562753	-449.0	0.5182186234817814	-27.985930570423616	482.0	-295.0	5.5882881001469675	-8.490994516574103	1691.0	
-0.398521356615104	1986.0	1243.0	10.147864338489597	0.6447552057337613	2124.0	0.0	3176.69677734375	38558.0	0.72	809.0	-339.0	0.1437246963562753	-449.0	0.5182186234817814	-12.326043737574555	273.0	-39.0	0.9924265276393146	-5.3299560477510735	667.0	
-0.5296888226902495	1988.0	1245.0	10.126355826213146	0.6189169752853122	2135.0	0.0	3196.22802734375	39198.0	0.72	809.0	-339.0	0.1437246963562753	-449.0	0.5182186234817814	11.3931793852271	139.0	309.0	-5.329294445183217	-3.3370124472905616	-884.0	
-1.423338178882397	1991.0	1253.0	10.047134492712686	0.5722514767401286	2210.0	0.0	3215.75927734375	39838.0	0.72	809.0	-339.0	0.1437246963562753	-449.0	0.5182186234817814	11.897843706988837	-21.0	248.0	-4.435804358943306	-0.872960161128178	-917.0	
-1.2692349455228347	1976.0	1258.0	9.981267352478445	0.7531980578353044	2197.0	0.0	3235.29052734375	40478.0	0.7275	812.0	-336.0	0.14979757085020243	-449.0	0.5182186234817814	-8.288729163480655	127.0	-78.0	1.408397107983353	-3.085501727861397	403.0	
-0.6154338247804384	1996.0	1265.0	9.885188950527592	0.5168506455820245	2142.0	0.0	3254.82177734375	41118.0	0.7275	812.0	-336.0	0.14979757085020243	-449.0	0.5182186234817814	-9.03807921700566	112.0	-131.0	2.2512443437457668	-2.8469060006318996	452.0	
-0.4615406746767557	2009.0	1272.0	9.798313484705378	0.36002556174252076	2129.0	0.0	3274.35302734375	41758.0	0.7275	812.0	-336.0	0.14979757085020243	-449.0	0.5182186234817814	4.00672885762349	-28.0	4.0	-0.36837189418322	-0.7248744508737027	-401.0	
-1.032483910646344	2013.0	1269.0	9.846847030603689	0.3070940292164537	2177.0	0.0	3293.88427734375	42398.0	0.715	807.0	-335.0	0.15182186234817813	-444.0	0.5080971659919028	12.463679461691392	-289.0	-12.0	-0.5005698187445946	3.2787138046512836	-954.0	
-1.198047669446829	1990.0	1260.0	9.957137817221883	0.5847526410957524	2191.0	0.0	3313.41552734375	43038.0	0.715	807.0	-335.0	0.15182186234817813	-444.0	0.5080971659919028	8.181679155834226	-340.0	-182.0	2.2775890013558207	4.089064059416659	-674.0	
-1.2948357035053701	2003.0	1273.0	9.802143935177254	0.42405837709017813	2199.0	0.0	3332.94677734375	43678.0	0.715	807.0	-335.0	0.15182186234817813	-444.0	0.5080971659919028	-0.474078605291329	-247.0	-289.0	4.283789692206018	2.682089086119544	-108.0	
-0.8288014904914863	2014.0	1258.0	9.976993807994225	0.2996855961947287	2160.0	0.0	3352.47802734375	44318.0	0.715	807.0	-335.0	0.15182186234817813	-444.0	0.5080971659919028	1.819850129989295	-142.0	-100.0	1.3011974706332472	1.041092379800701	-258.0	
-0.6602383467276514	1997.0	1242.0	10.166641517711055	0.5099834589351373	2146.0	0.0	3372.00927734375	44958.0	0.7375	816.0	-328.0	0.1659919028340081	-458.0	0.5364372469635628	13.595350971096499	-284.0	79.0	-1.9447096894664335	3.1875499876534406	-1028.0	
-1.672805157023222	1987.0	1249.0	10.100436678630167	0.6190156217614072	2231.0	0.0	3391.54052734375	45598.0	0.7375	816.0	-328.0	0.1659919028340081	-458.0	0.5364372469635628	19.51368710812051	-417.0	23.0	-1.3405057810554717	5.2344083532681625	-1415.0	
-1.422985719572092	1980.0	1250.0	10.082380423743182	0.7054900404357691	2210.0	0.0	3411.07177734375	46238.0	0.7375	816.0	-328.0	0.1659919028340081	-458.0	0.5364372469635628	-3.8385074170362445	-124.0	-125.0	1.9147886425752108	0.7710275856738725	112.0	
-1.2211234041129946	1988.0	1254.0	10.030516731557698	0.6100858475779758	2193.0	0.0	3430.60302734375	46878.0	0.7475	820.0	-335.0	0.15182186234817813	-451.0	0.5222672064777328	-13.350665239333233	-52.0	-149.0	2.675420893710714	-0.3261689151997657	734.0	
-0.8866512682563992	1977.0	1244.0	10.144396983883894	0.7482382944649935	2165.0	0.0	3450.13427734375	47518.0	0.7475	820.0	-335.0	0.15182186234817813	-451.0	0.5222672064777328	-12.723658051689862	-1.0	-3.0	0.41258423935716254	-1.1313659483076715	693.0	
-0.8737736795562274	1977.0	1236.0	10.241679663424867	0.7503127239428146	2164.0	0.0	3469.66552734375	48158.0	0.7475	820.0	-335.0	0.15182186234817813	-451.0	0.5222672064777328	-3.9608502829178778	-155.0	110.0	-1.6995414876354558	1.2105632777736381	120.0	
-1.1366299424706898	1953.0	1244.0	10.146529562454825	1.0349377858002933	2186.0	0.0	3489.19677734375	48798.0	0.73	813.0	-324.0	0.17408906882591094	-459.0	0.5384615384615384	0.3058571647040832	-266.0	113.0	-1.9333655266513123	2.911462723435344	-159.0	
-1.1008975413872764	1974.0	1244.0	10.148341099367595	0.7823192923566116	2183.0	0.0	3508.72802734375	49438.0	0.73	813.0	-324.0	0.17408906882591094	-459.0	0.5384615384615384	-4.801957485854107	-67.0	123.0	-1.852348008748976	-0.141279349352489	175.0	
-1.052925967359185	1971.0	1241.0	10.183593740271975	0.8196486392282332	2179.0	0.0	3528.25927734375	50078.0	0.73	813.0	-324.0	0.17408906882591094	-459.0	0.5384615384615384	-5.016057501146965	-101.0	168.0	-2.541133453851927	0.3735452405727283	189.0	
-0.9586762043167343	1976.0	1249.0	10.084760520707533	0.7583735086119472	2171.0	0.0	3547.79052734375	50718.0	0.73	813.0	-324.0	0.17408906882591094	-459.0	0.5384615384615384	-2.202171585869399	-139.0	230.0	-3.613112027252568	0.9459158338474682	5.0	
-1.520034419012719	1979.0	1265.0	9.901320003489985	0.7129465378073834	2218.0	0.0	3567.32177734375	51358.0	0.735	815.0	-325.0	0.17206477732793524	-460.0	0.5404858299595142	-4.098486007034715	-272.0	197.0	-3.0501097007059466	2.992362183643547	129.0	
-0.9133744383321144	1983.0	1268.0	9.853032357264734	0.669854613605347	2167.0	0.0	3586.85302734375	51998.0	0.735	815.0	-325.0	0.17206477732793524	-460.0	0.5404858299595142	-20.87475149105368	-152.0	36.0	0.11557980054513661	1.182681039681069	1226.0	
-0.233959311907462	1987.0	1260.0	9.937402142587136	0.6301433894917041	2110.0	0.0	3606.38427734375	52638.0	0.735	815.0	-325.0	0.17206477732793524	-460.0	0.5404858299595142	-13.136565224040375	-211.0	142.0	-1.8333243868623659	2.068516533636364	720.0	
-0.6996157745479381	1986.0	1272.0	9.800327307110958	0.6347935209268603	2149.0	0.0	3625.91552734375	53278.0	0.74	817.0	-315.0	0.19230769230769232	-452.0	0.5242914979757085	8.961614925829638	-478.0	389.0	-6.557164454759947	6.1182552696767365	-725.0	
-1.5947375934708938	1981.0	1292.0	9.573859700529681	0.6815539144614269	2224.0	0.0	3645.44677734375	53918.0	0.74	817.0	-315.0	0.19230769230769232	-452.0	0.5242914979757085	6.5759290411377895	-639.0	315.0	-5.348276109422154	8.600806022088227	-569.0	
-0.9643935707770858	1986.0	1296.0	9.513023874672385	0.6263996743157972	2171.0	0.0	3664.97802734375	54558.0	0.74	817.0	-315.0	0.19230769230769232	-452.0	0.5242914979757085	-16.8986083499006	-470.0	66.0	-0.5536619255048275	6.055534425704289	966.0	
-0.045598548867970864	1983.0	1277.0	9.7258593989172	0.6759889133330378	2094.0	0.0	3684.50927734375	55198.0	0.74	817.0	-315.0	0.19230769230769232	-452.0	0.5242914979757085	-16.83743691695978	-507.0	56.0	-0.4079783212885185	6.624737157097075	962.0	
-0.5450044581239248	1988.0	1273.0	9.785268473321795	0.6119420718731484	2136.0	0.0	3704.04052734375	55838.0	0.725	811.0	-325.0	0.17206477732793524	-450.0	0.520242914979757	5.47484324820309	-778.0	239.0	-4.156629759380755	10.745605714068	-497.0	
-1.426172041034382	1966.0	1276.0	9.76374827751416	0.8677602330917465	2210.0	0.0	3723.57177734375	56478.0	0.725	811.0	-325.0	0.17206477732793524	-450.0	0.520242914979757	3.82321455880104	-985.0	153.0	-2.7995899928619656	13.935484228965045	-389.0	
-1.0570947335329062	1951.0	1275.0	9.76671712289986	1.0522332746407403	2179.0	0.0	3743.10302734375	57118.0	0.725	811.0	-325.0	0.17206477732793524	-450.0	0.520242914979757	-20.599480042820005	-809.0	-123.0	2.449299885654524	11.287344003920227	1208.0	
-0.4375667988428357	1947.0	1270.0	9.814748687144995	1.1075819563568812	2127.0	0.0	3762.63427734375	57758.0	0.715	807.0	-309.0	0.20445344129554657	-451.0	0.5222672064777328	-25.416730386909315	-732.0	-169.0	3.3612974007835392	10.114938737395898	1523.0	
-0.6396560582665485	1953.0	1268.0	9.84391798286897	1.0338552930506175	2144.0	0.0	3782.16552734375	58398.0	0.715	807.0	-309.0	0.20445344129554657	-451.0	0.5222672064777328	-15.308151093439365	-771.0	-75.0	1.5052240925789193	10.694812866980723	862.0	
-0.8175796880120481	1955.0	1263.0	9.908697865461857	1.0092752688628517	2159.0	0.0	3801.69677734375	59038.0	0.715	807.0	-309.0	0.20445344129554657	-451.0	0.5222672064777328	-16.5468726104909	-768.0	-45.0	1.09380696294008	10.64466524470996	943.0	
-0.6048251469933907	1934.0	1275.0	9.75558053875616	1.2613525159316952	2141.0	0.0	3821.22802734375	59678.0	0.7275	812.0	-300.0	0.22267206477732793	-457.0	0.5344129554655871	-22.63343018810216	-785.0	-162.0	3.1341797860604106	10.925925195129288	1341.0	
-0.26122549080143703	1947.0	1288.0	9.591736634142013	1.1048851283772354	2112.0	0.0	3840.75927734375	60318.0	0.7275	812.0	-300.0	0.22267206477732793	-457.0	0.5344129554655871	-25.370851812203703	-627.0	-171.0	3.4063339597500235	8.504218318882447	1520.0	
-0.21334450636522662	1970.0	1286.0	9.61793031585829	0.8287793781209833	2108.0	0.0	3860.29052734375	60958.0	0.7275	812.0	-300.0	0.22267206477732793	-457.0	0.5344129554655871	-19.91130142223582	-580.0	-54.0	1.3956418011664113	7.762920665364741	1163.0	
-0.38134510756287693	1948.0	1297.0	9.48453686275993	1.089491744010895	2122.0	0.0	3879.82177734375	61598.0	0.7275	812.0	-300.0	0.22267206477732793	-457.0	0.5344129554655871	-17.923229851659276	-748.0	-23.0	0.813548699679453	10.334972988914856	1033.0	
-0.13003755100854153	1962.0	1286.0	9.615292518193467	0.9259452338899283	2101.0	0.0	3899.35302734375	62238.0	0.6975	800.0	-285.0	0.25303643724696356	-462.0	0.5445344129554656	-23.8874445633889	-622.0	-42.0	1.3636590553332621	8.407069151547656	1423.0	
0.1797789371504636	1953.0	1283.0	9.644560381713028	1.0380624909816687	2075.0	0.0	3918.88427734375	62878.0	0.6975	800.0	-285.0	0.25303643724696356	-462.0	0.5445344129554656	-20.905337207524088	-687.0	32.0	0.09624117103508345	9.391786410482794	1228.0	
0.07240175905279958	1943.0	1285.0	9.62112828623234	1.1570020050019219	2084.0	0.0	3938.41552734375	63518.0	0.6975	800.0	-285.0	0.25303643724696356	-462.0	0.5445344129554656	-11.041443645817404	-691.0	158.0	-2.236858400305531	9.429833349401886	583.0	
-0.44922415983991737	1948.0	1268.0	9.839488777913033	1.0959119917911868	2128.0	0.0	3957.94677734375	64158.0	0.6900000000000001	797.0	-270.0	0.2834008097165992	-480.0	0.5809716599190283	-8.869857776418414	-636.0	156.0	-2.284513105829396	8.585410201149779	441.0	
0.0520211234932087	1952.0	1257.0	9.964017111225631	1.0552222402064326	2086.0	0.0	3977.47802734375	64798.0	0.6900000000000001	797.0	-270.0	0.2834008097165992	-480.0	0.5809716599190283	-23.62746597339043	-490.0	41.0	0.09691464716554765	6.3689298645934915	1406.0	
0.815849960995329	1956.0	1240.0	10.156424670961467	1.0185159086918334	2022.0	0.0	3997.00927734375	65438.0	0.6900000000000001	797.0	-270.0	0.2834008097165992	-480.0	0.5809716599190283	-25.416730386909315	-467.0	-58.0	1.6946973162746697	6.03198456714771	1523.0	
0.41104506975579247	1954.0	1241.0	10.152126023198294	1.038478272366343	2056.0	0.0	4016.54052734375	542.0	0.6900000000000001	797.0	-270.0	0.2834008097165992	-480.0	0.5809716599190283	-4.4655146046796155	-675.0	118.0	-1.8821859564186532	9.187868335310757	153.0	
-0.3881697312011274	1913.0	1255.0	9.992550689411068	1.5212705212954871	2123.0	0.0	4036.07177734375	1182.0	0.675	791.0	-264.0	0.29554655870445345	-476.0	0.5728744939271255	2.844471631747974	-905.0	17.0	-0.6563931602055829	12.729357504641616	-325.0	
-0.018251150706307423	1888.0	1247.0	10.079646834131163	1.8279164492719457	2092.0	0.0	4055.60302734375	1822.0	0.675	791.0	-264.0	0.29554655870445345	-476.0	0.5728744939271255	-14.74231533873681	-673.0	-331.0	5.435090984192079	9.230352137400615	825.0	
0.3517240335964097	1910.0	1239.0	10.17240335964097	1.5684110906613136	2061.0	0.0	4075.13427734375	2462.0	0.675	791.0	-264.0	0.29554655870445345	-476.0	0.5728744939271255	-24.850894632206764	-404.0	-426.0	7.341833786745738	5.1217534613905515	1486.0	
0.5681886355142052	1933.0	1221.0	10.39029212284908	1.2978250782097138	2043.0	0.0	4094.66552734375	3102.0	0.66	785.0	-247.0	0.3299595141700405	-483.0	0.5870445344129555	-15.935158281082735	-352.0	-306.0	5.147533028104432	4.301897303581643	903.0	
-0.13445182764906774	1904.0	1224.0	10.364341044617039	1.6396772423748862	2102.0	0.0	4114.19677734375	3742.0	0.66	785.0	-247.0	0.3299595141700405	-483.0	0.5870445344129555	1.3610643829331703	-665.0	-106.0	1.331587705268757	9.06656123534638	-228.0	
-0.11286662075878379	1883.0	1242.0	10.141909352693048	1.8884565087980802	2100.0	0.0	4133.72802734375	4382.0	0.66	785.0	-247.0	0.3299595141700405	-483.0	0.5870445344129555	-4.74078605291329	-535.0	-237.0	3.6104562685089445	7.094567045422546	171.0	
0.32782388664563544	1932.0	1240.0	10.163341045515924	1.3029306019454494	2063.0	0.0	4153.25927734375	5022.0	0.6425	778.0	-243.0	0.33805668016194335	-480.0	0.5809716599190283	-17.52561553754397	-116.0	-311.0	5.324257871735628	0.6823664087004775	1007.0	
1.079011714102905	1930.0	1229.0	10.282123791242881	1.3369145206767301	2000.0	0.0	4172.79052734375	5662.0	0.6425	778.0	-243.0	0.33805668016194335	-480.0	0.5809716599190283	-15.032879645205691	-143.0	-173.0	3.0978777173692396	1.074403665926186	844.0	
0.4600836564055047	1926.0	1229.0	10.294079926264752	1.3791571338845308	2052.0	0.0	4192.32177734375	6302.0	0.6425	778.0	-243.0	0.33805668016194335	-480.0	0.5809716599190283	9.252179232298518	-360.0	172.0	-3.2130669380550168	4.341047173185047	-744.0	
-0.13591465568917	1904.0	1236.0	10.218058240606812	1.6367369580142805	2102.0	0.0	4211.85302734375	6942.0	0.6425	778.0	-243.0	0.33805668016194335	-480.0	0.5809716599190283	12.463679461691392	-476.0	69.0	-1.7750987099639095	6.135386959808448	-954.0	
0.4592291357124401	1925.0	1236.0	10.208627856958296	1.3894877400625552	2052.0	0.0	4231.38427734375	7582.0	0.64	777.0	-238.0	0.3481781376518219	-486.0	0.5931174089068826	-11.989600856400063	-142.0	-267.0	4.422098983696936	1.072301394931338	645.0	
1.018651365057681	1934.0	1236.0	10.198469839101426	1.2864450670591112	2005.0	0.0	4250.91552734375	8222.0	0.64	777.0	-238.0	0.3481781376518219	-486.0	0.5931174089068826	-17.877351276953664	-72.0	-305.0	5.2527925273473075	0.006494474299098357	1030.0	
1.10329442877244	1922.0	1225.0	10.329442877244016	1.4344892717121227	1998.0	0.0	4270.44677734375	8862.0	0.64	777.0	-238.0	0.3481781376518219	-486.0	0.5931174089068826	-2.82917877351277	-217.0	-165.0	2.475379023385613	2.2036704696875926	46.0	
0.31674111157812096	1904.0	1233.0	10.24553972924067	1.6418131454596308	2064.0	0.0	4289.97802734375	9502.0	0.635	775.0	-234.0	0.35627530364372473	-487.0	0.5951417004048583	17.9996941428353	-413.0	15.0	-1.1562927133262155	5.174872549312956	-1316.0	
-0.1613185781155466	1892.0	1249.0	10.058618378921535	1.7778724348093236	2104.0	0.0	4309.50927734375	10142.0	0.635	775.0	-234.0	0.35627530364372473	-487.0	0.5951417004048583	14.176479584034258	-408.0	-114.0	0.9814994201329037	5.119528052356922	-1066.0	
0.41185141699532757	1915.0	1234.0	10.232760747151803	1.5099785483900978	2056.0	0.0	4329.04052734375	10782.0	0.635	775.0	-234.0	0.35627530364372473	-487.0	0.5951417004048583	-7.126471937605139	-68.0	-335.0	5.284835395376497	-0.05456303165310937	327.0	
0.60141795570185	1900.0	1241.0	10.141795570184996	1.6907778018040918	2040.0	0.0	4348.57177734375	11422.0	0.635	775.0	-234.0	0.35627530364372473	-487.0	0.5951417004048583	-12.38721517051537	-89.0	-333.0	5.461260642830381	0.2694353776420525	671.0	
0.636508328020755	1894.0	1246.0	10.07940423064693	1.7621700353630254	2037.0	0.0	4368.10302734375	12062.0	0.6075	764.0	-245.0	0.3340080971659919	-455.0	0.5303643724696356	-4.236121731151552	-144.0	-204.0	3.1426991892517	1.0901963643031356	138.0	
0.05268389034198034	1895.0	1251.0	10.030293796102795	1.7433013895242708	2086.0	0.0	4387.63427734375	12702.0	0.6075	764.0	-245.0	0.3340080971659919	-455.0	0.5303643724696356	6.040679002905644	-212.0	-101.0	1.1370218436033956	2.1135644795991464	-534.0	
0.18313078142411882	1902.0	1255.0	9.979744809078548	1.6592575292970166	2075.0	0.0	4407.16552734375	13342.0	0.6075	764.0	-245.0	0.3340080971659919	-455.0	0.5303643724696356	-2.5233216088086867	-161.0	-153.0	2.2871694819826964	1.342497289418569	26.0	
0.6469550960054523	1900.0	1258.0	9.93360483864047	1.6870693585762375	2036.0	0.0	4426.69677734375	13982.0	0.62	769.0	-232.0	0.3603238866396761	-471.0	0.562753036437247	-9.083957791711272	-118.0	-151.0	2.5254047359768204	0.6850668446591391	455.0	
0.5400583012364597	1884.0	1256.0	9.958211076026915	1.8792635997136258	2045.0	0.0	4446.22802734375	14622.0	0.62	769.0	-232.0	0.3603238866396761	-471.0	0.562753036437247	2.844471631747974	-273.0	25.0	-0.6824714067398757	3.0313830502413324	-325.0	
0.05195127198559096	1894.0	1257.0	9.957031960463858	1.7538770193990125	2086.0	0.0	4465.75927734375	15262.0	0.62	769.0	-232.0	0.3603238866396761	-471.0	0.562753036437247	14.390579599327115	-385.0	199.0	-3.8376973305006956	4.718412960713714	-1080.0	
0.17026282741465304	1910.0	1263.0	9.883425598608163	1.5608169233788398	2076.0	0.0	4485.29052734375	15902.0	0.6175	768.0	-238.0	0.3481781376518219	-465.0	0.5506072874493927	7.20293622878116	-361.0	139.0	-2.6236953867080692	4.362285372356642	-610.0	
0.4087677284883007	1885.0	1259.0	9.924391896449121	1.865226117623504	2056.0	0.0	4504.82177734375	16542.0	0.6175	768.0	-238.0	0.3481781376518219	-465.0	0.5506072874493927	-1.3610643829331703	-399.0	95.0	-1.610248659771651	4.955510218634752	-50.0	
0.6470661593150834	1891.0	1257.0	9.944711169603575	1.7957263307683549	2036.0	0.0	4524.35302734375	17182.0	0.6175	768.0	-238.0	0.3481781376518219	-465.0	0.5506072874493927	1.2998929499923537	-470.0	82.0	-1.527620563793308	6.045794839321404	-224.0	
0.15909187142793402	1910.0	1257.0	9.95680619041245	1.5621728256550584	2077.0	0.0	4543.88427734375	17822.0	0.6175	768.0	-238.0	0.3481781376518219	-465.0	0.5506072874493927	9.833307845236275	-476.0	129.0	-2.5927370145624624	6.1272105767624625	-782.0	
-0.09244503776369288	1908.0	1270.0	9.80311527124976	1.5806800237220573	2098.0	0.0	4563.41552734375	18462.0	0.61	765.0	-242.0	0.340080971659919	-476.0	0.5728744939271255	14.55880103991436	-707.0	24.0	-1.2022054198566945	9.685691617736373	-1091.0	
0.49064075987700123	1901.0	1271.0	9.778361701985839	1.6703531597107757	2049.0	0.0	4582.94677734375	19102.0	0.61	765.0	-242.0	0.340080971659919	-476.0	0.5728744939271255	-3.7161645511546113	-581.0	-198.0	2.9625700280732126	7.793934431291934	104.0	
0.6709915973289606	1890.0	1256.0	9.956302590038918	1.8082456063282846	2034.0	0.0	4602.47802734375	19742.0	0.61	765.0	-242.0	0.340080971659919	-476.0	0.5728744939271255	-9.58862211347301	-600.0	-248.0	3.963565223390721	8.095489572749482	488.0	
0.6706427510276703	1904.0	1259.0	9.921417959909894	1.6388697264675107	2034.0	0.0	4622.00927734375	20382.0	0.5975	760.0	-244.0	0.3360323886639676	-471.0	0.562753036437247	-2.0492430035173577	-547.0	-138.0	1.9782737871483602	7.262379024506439	-5.0	
0.21699731303091901	1892.0	1270.0	9.794969398329998	1.7763826141089574	2072.0	0.0	4641.54052734375	21022.0	0.5975	760.0	-244.0	0.3360323886639676	-471.0	0.562753036437247	8.56400061171433	-730.0	1.0	-0.6122099091710308	10.044514696980102	-699.0	
0.26446562133991264	1876.0	1271.0	9.779895467324597	1.9693269029092886	2068.0	0.0	4661.07177734375	21662.0	0.5975	760.0	-244.0	0.3360323886639676	-471.0	0.562753036437247	10.200336442881175	-778.0	64.0	-1.6540061946866311	10.770631949714943	-806.0	
0.2652006483689785	1879.0	1265.0	9.85339817023118	1.934659728924458	2068.0	0.0	4680.60302734375	22302.0	0.5975	760.0	-244.0	0.3360323886639676	-471.0	0.562753036437247	1.1163786511699039	-657.0	40.0	-0.9029821869577351	8.921459667159118	-212.0	
0.8014095843389814	1873.0	1260.0	9.902863195802903	2.0133002754220986	2023.0	0.0	4700.13427734375	22942.0	0.61	765.0	-248.0	0.32793522267206476	-494.0	0.6093117408906883	-5.7195289799663565	-538.0	49.0	-0.7497415101898754	7.096998518609933	235.0	
0.7546654640320096	1883.0	1253.0	9.990355927010475	1.8941007611323368	2027.0	0.0	4719.66552734375	23582.0	0.61	765.0	-248.0	0.32793522267206476	-494.0	0.6093117408906883	3.7467502676250195	-551.0	243.0	-4.114207300038771	7.262832148267067	-384.0	
-0.04342210748637776	1867.0	1258.0	9.943503537076511	2.0779539219558227	2094.0	0.0	4739.19677734375	24222.0	0.61	765.0	-248.0	0.32793522267206476	-494.0	0.6093117408906883	21.333537238109805	-679.0	479.0	-8.467095165963691	9.183397177847805	-1534.0	
-0.18575691653922755	1872.0	1254.0	9.995736917505818	2.017334277618459	2106.0	0.0	4758.72802734375	24862.0	0.585	755.0	-258.0	0.3076923076923077	-484.0	0.5890688259109311	23.56629454044961	-677.0	460.0	-8.263856163473418	9.15474060055646	-1680.0	
0.08957630231157201	1867.0	1241.0	10.148106421633393	2.08337596374494	2083.0	0.0	4778.25927734375	25502.0	0.585	755.0	-258.0	0.3076923076923077	-484.0	0.5890688259109311	8.64046490289035	-511.0	362.0	-6.134103719633822	6.62885383774612	-704.0	
0.3870028111171062	1858.0	1242.0	10.128852540282054	2.194398886145728	2058.0	0.0	4797.79052734375	26142.0	0.585	755.0	-258.0	0.3076923076923077	-484.0	0.5890688259109311	7.0653005046643225	-484.0	438.0	-7.235894869245935	6.203534867480626	-601.0	
0.17240528301226227	1867.0	1245.0	10.097671158369083	2.083195548286661	2076.0	0.0	4817.32177734375	26782.0	0.585	755.0	-255.0	0.31376518218623484	-506.0	0.6336032388663968	13.167150940510783	-378.0	595.0	-9.878452553145342	4.550594022880393	-1000.0	
-0.24382159490537306	1859.0	1242.0	10.141650033272219	2.1762983991742217	2111.0	0.0	4836.85302734375	27422.0	0.585	755.0	-255.0	0.31376518218623484	-506.0	0.6336032388663968	19.054901361064385	-430.0	669.0	-11.26008995520374	5.3346907990823045	-1385.0	
-0.06554189284055369	1849.0	1244.0	10.112477382611301	2.297979670892495	2096.0	0.0	4856.38427734375	28062.0	0.585	755.0	-255.0	0.31376518218623484	-506.0	0.6336032388663968	12.67777947698425	-276.0	534.0	-8.905006483907913	2.9951911504440267	-968.0	
0.005764876899450849	1861.0	1245.0	10.100297213754608	2.153870821959749	2090.0	0.0	4875.91552734375	28702.0	0.585	755.0	-255.0	0.31376518218623484	-506.0	0.6336032388663968	4.450221746444411	-75.0	420.0	-6.7916967206441035	-0.06791696720644103	-430.0	
-0.17275862983871892	1871.0	1245.0	10.105089397080489	2.0316995028480416	2105.0	0.0	4895.44677734375	29342.0	0.6025	762.0	-262.0	0.29959514170040485	-505.0	0.631578947368421	5.7654075546719685	28.0	412.0	-6.705449968402265	-1.6475363164708878	-516.0	
-0.21964271752743952	1866.0	1239.0	10.178585390113188	2.0929415456872302	2109.0	0.0	4914.97802734375	29982.0	0.6025	762.0	-262.0	0.29959514170040485	-505.0	0.631578947368421	6.958250497017893	34.0	407.0	-6.6753347841711035	-1.7393020665773256	-594.0	
-0.3636949983207861	1862.0	1249.0	10.05907159649282	2.137303518091227	2121.0	0.0	4934.50927734375	30622.0	0.6025	762.0	-262.0	0.29959514170040485	-505.0	0.631578947368421	5.0466432176173734	39.0	340.0	-5.567603366673199	-1.8049471706929712	-469.0	
-0.2333724182479993	1867.0	1254.0	9.996091508533405	2.0771061782773446	2110.0	0.0	4954.04052734375	31262.0	0.5825	754.0	-268.0	0.2874493927125506	-479.0	0.5789473684210527	-0.45878574705612485	77.0	288.0	-4.541780944529465	-2.3777793254802804	-109.0	
-0.0545810201097144	1877.0	1252.0	10.018088465219037	1.958852103681597	2095.0	0.0	4973.57177734375	31902.0	0.5825	754.0	-268.0	0.2874493927125506	-479.0	0.5789473684210527	-3.8079217005658363	212.0	286.0	-4.356354498325654	-4.447430354865103	110.0	
-0.13778413817479784	1870.0	1251.0	10.031109992044023	2.042617852435036	2102.0	0.0	4993.10302734375	32542.0	0.5825	754.0	-268.0	0.2874493927125506	-479.0	0.5789473684210527	2.171585869398991	82.0	382.0	-6.092004957773413	-2.4700039839033443	-281.0	
-0.411664163676201	1867.0	1252.0	10.024059822856088	2.0758826271095163	2125.0	0.0	5012.63427734375	33182.0	0.59	757.0	-269.0	0.28542510121457493	-508.0	0.6376518218623481	-2.752714482336749	54.0	334.0	-5.161074545699691	-2.03104913735511	41.0	
-0.055211005510840364	1860.0	1257.0	9.955089925106439	2.1624051101337676	2095.0	0.0	5032.16552734375	33822.0	0.59	757.0	-269.0	0.28542510121457493	-508.0	0.6376518218623481	-8.655757761125555	113.0	205.0	-2.9318123892679715	-2.914081051620162	427.0	
0.07644768292002058	1861.0	1251.0	10.025720672954437	2.1530861192039517	2084.0	0.0	5051.69677734375	34462.0	0.59	757.0	-269.0	0.28542510121457493	-508.0	0.6376518218623481	-1.7433858388132744	57.0	225.0	-3.524485887354943	-2.060716701746037	-25.0	
-0.14859902184219723	1862.0	1242.0	10.14009781578028	2.141075002241762	2103.0	0.0	5071.22802734375	35102.0	0.59	757.0	-269.0	0.28542510121457493	-508.0	0.6376518218623481	-0.3058571647040832	68.0	206.0	-3.288060054889211	-2.227141763660754	-119.0	
-0.23179250521657482	1863.0	1241.0	10.154082811675856	2.1284745745548452	2110.0	0.0	5090.75927734375	35742.0	0.59	757.0	-269.0	0.28542510121457493	-499.0	0.6194331983805668	-1.4681143905795995	-35.0	188.0	-2.9805248576156216	-0.6435845949011524	-43.0	
-0.08969307048270773	1865.0	1247.0	10.078311999348276	2.104283767113464	2098.0	0.0	5110.29052734375	36382.0	0.59	757.0	-269.0	0.28542510121457493	-499.0	0.6194331983805668	-3.3950145282153237	41.0	155.0	-2.3842324605717526	-1.8038024289482064	83.0	
0.007228909275891329	1862.0	1233.0	10.24670045139866	2.14476533426531	2090.0	0.0	5129.82177734375	37022.0	0.59	757.0	-269.0	0.28542510121457493	-499.0	0.6194331983805668	1.5445786817556202	-9.0	237.0	-3.8506861939788424	-1.0512427833760323	-240.0	
-0.19534675515818378	1869.0	1235.0	10.227229246086381	2.058012804117134	2107.0	0.0	5149.35302734375	37662.0	0.5875	756.0	-268.0	0.2874493927125506	-488.0	0.597165991902834	2.8138859152775657	56.0	245.0	-4.01452617602203	-2.050272620974583	-323.0	
-0.2297141438114054	1868.0	1224.0	10.361918952192795	2.072411117123814	2110.0	0.0	5168.88427734375	38302.0	0.5875	756.0	-268.0	0.2874493927125506	-488.0	0.597165991902834	2.1410001529285827	42.0	231.0	-3.7744314983209613	-1.8330489029838235	-279.0	
-0.2043090170486906	1881.0	1211.0	10.521479247511895	1.9192298682737268	2108.0	0.0	5188.41552734375	38942.0	0.5875	756.0	-268.0	0.2874493927125506	-488.0	0.597165991902834	-0.764642911760208	34.0	247.0	-3.9055362061118717	-1.7116040807967332	-89.0	
0.08352042711985797	1863.0	1193.0	10.732995092938177	2.143205949503456	2084.0	0.0	5207.94677734375	39582.0	0.5875	756.0	-268.0	0.2874493927125506	-488.0	0.597165991902834	1.5598715399908245	-35.0	304.0	-4.885794638495637	-0.6626372927099526	-241.0	
-0.023491043967780498	1853.0	1192.0	10.746133698460046	2.2628805346138603	2093.0	0.0	5227.47802734375	40222.0	0.585	755.0	-274.0	0.27530364372469635	-486.0	0.5931174089068826	5.91833613702401	105.0	285.0	-4.746402155692918	-2.8094710800194123	-526.0	
-0.20130240606731092	1847.0	1186.0	10.822140345649862	2.334911710563168	2108.0	0.0	5247.00927734375	40862.0	0.585	755.0	-274.0	0.27530364372469635	-486.0	0.5931174089068826	5.321914665851048	309.0	285.0	-4.6912480655924345	-5.939194205375888	-487.0	
-0.2025238381067393	1845.0	1196.0	10.699997141707025	2.3565530177060854	2108.0	0.0	5266.54052734375	41502.0	0.585	755.0	-274.0	0.27530364372469635	-486.0	0.5931174089068826	4.022021715858695	435.0	352.0	-5.6504330549652915	-7.882190996193355	-402.0	
-0.38410092494347997	1850.0	1221.0	10.399431315175816	2.2884849664516715	2123.0	0.0	5286.07177734375	42142.0	0.61	765.0	-278.0	0.26720647773279355	-490.0	0.6012145748987854	5.780700412907173	582.0	406.0	-6.5287774172120585	-10.146613537560183	-517.0	
