Device	Device	Device	Device	Device	Device	Device	Device	Device	Device	Device	Device	Device	Device	Device	Device	Device	Device	Device	Device	Device	
Low Noise Accelerometer X	Low Noise Accelerometer X	Low Noise Accelerometer Z	Low Noise Accelerometer Z	Low Noise Accelerometer Y	Low Noise Accelerometer Y	Event_Marker	Timestamp	Timestamp	Magnetometer Z	Magnetometer Z	Magnetometer X	Magnetometer X	Magnetometer Y	Magnetometer Y	Gyroscope Y	Gyroscope Y	Gyroscope Z	Gyroscope Z	Gyroscope X	Gyroscope X	
UNCAL	CAL	UNCAL	CAL	CAL	UNCAL	CAL	CAL	UNCAL	CAL	UNCAL	UNCAL	CAL	CAL	UNCAL	UNCAL	CAL	UNCAL	CAL	UNCAL	CAL	
no units	m/(s^2)	no units	m/(s^2)	m/(s^2)	no units	no units	ms	no units	local_flux	no units	no units	local_flux	local_flux	no units	no units	deg/s	no units	deg/s	no units	deg/s	
2535.0	-0.06687617581079805	1457.0	7.5980967046344805	-6.017381526460599	2094.0	0.0	85.14404296875	2790.0	0.2325	614.0	-137.0	0.5526315789473685	-0.791497975708502	198.0	-846.0	0.22939287352806242	-388.0	5.686439750529151	-154.0	11.887461297919593	
2557.0	0.3230028737318533	1481.0	7.300287373185333	-6.28449916355801	2061.0	0.0	104.67529296875	3430.0	0.2325	614.0	-137.0	0.5526315789473685	-0.791497975708502	198.0	-567.0	5.505428964673498	-266.0	3.641779518368709	-499.0	7.585903754981141	
2552.0	0.07426610527474103	1471.0	7.4266105274741046	-6.224219104301385	2082.0	0.0	124.20654296875	4070.0	0.25	621.0	-141.0	0.5445344129554656	-0.840080971659919	222.0	-1007.0	12.693072335219453	-422.0	5.686184440985624	-969.0	14.357920613782268	
2526.0	-0.3754953186571396	1450.0	7.688563372381282	-5.910224649594366	2120.0	0.0	143.73779296875	4710.0	0.25	621.0	-141.0	0.5445344129554656	-0.840080971659919	222.0	-898.0	11.790793699342409	-484.0	6.692599862922661	-910.0	12.695436049266025	
2563.0	-0.09345094815039705	1480.0	7.321571851626962	-6.360527168834507	2096.0	0.0	163.26904296875	5350.0	0.25	621.0	-141.0	0.5445344129554656	-0.840080971659919	222.0	-712.0	7.371157669368405	-393.0	5.498260829113501	-621.0	9.8294186985167	
2555.0	0.28509911297871304	1499.0	7.0813398692998755	-6.265160765701082	2064.0	0.0	182.80029296875	5990.0	0.2775	632.0	-144.0	0.5384615384615384	-0.7975708502024291	201.0	-1151.0	5.887750420553602	-520.0	7.443585911666612	-524.0	16.585100275259066	
2545.0	-0.06954598385426983	1479.0	7.331115900287303	-6.143229768338821	2094.0	0.0	202.33154296875	6630.0	0.2775	632.0	-144.0	0.5384615384615384	-0.7975708502024291	201.0	-1303.0	14.176479584034258	-684.0	9.61118518714455	-1066.0	18.93913778404883	
2514.0	-0.7098732519128391	1459.0	7.584103380144663	-5.771079315518645	2148.0	0.0	221.86279296875	7270.0	0.2775	632.0	-144.0	0.5384615384615384	-0.7975708502024291	201.0	-1616.0	14.03884385991742	-842.0	11.998818942680076	-1057.0	23.76583750659728	
2491.0	-0.9706559707674851	1450.0	7.696307685156265	-5.494334622872018	2170.0	0.0	241.39404296875	7910.0	0.2775	632.0	-144.0	0.5384615384615384	-0.7975708502024291	201.0	-1425.0	5.780700412907173	-724.0	10.543492808556056	-517.0	20.82048786655418	
2526.0	-0.5070309004149871	1455.0	7.630243291834626	-5.9127064070228785	2131.0	0.0	260.92529296875	8550.0	0.2925	638.0	-149.0	0.52834008097166	-0.7834008097165992	194.0	-914.0	-6.331243309374523	-436.0	6.6766798714154145	275.0	12.94078858788095	
2576.0	-0.26855757645264683	1452.0	7.6680518785448415	-6.511975140603268	2111.0	0.0	280.45654296875	9190.0	0.2925	638.0	-149.0	0.52834008097166	-0.7834008097165992	194.0	-1087.0	-1.7128001223428662	-290.0	4.219833534660372	-27.0	15.570815797369008	
2530.0	-0.2217349099171763	1458.0	7.588413770187135	-5.958882808635188	2107.0	0.0	299.98779296875	9830.0	0.2925	638.0	-149.0	0.52834008097166	-0.7834008097165992	194.0	-1784.0	3.5632359688025694	-317.0	4.317152027957341	-372.0	26.266894092015036	
2489.0	-0.2562723743606026	1448.0	7.706095897273081	-5.462898637123445	2110.0	0.0	319.51904296875	10470.0	0.2975	640.0	-154.0	0.5182186234817814	-0.7813765182186235	193.0	-1788.0	7.172350512310752	-367.0	4.9412237039424385	-608.0	26.33451274340739	
2480.0	-0.5658667359003455	1449.0	7.699040695679732	-5.35770194983095	2136.0	0.0	339.05029296875	11110.0	0.2975	640.0	-154.0	0.5182186234817814	-0.7813765182186235	193.0	-1645.0	6.805321914665852	-306.0	4.0396204378339595	-584.0	24.13123554763444	
2486.0	-0.4555687190678299	1423.0	8.014556664645577	-5.422577806909815	2127.0	0.0	358.58154296875	11750.0	0.2975	640.0	-154.0	0.5182186234817814	-0.7813765182186235	193.0	-1593.0	1.4528215323443954	-279.0	3.8463981869648824	-234.0	23.331390174903255	
2464.0	-0.5489856394713045	1408.0	8.196674148107649	-5.1548093854807515	2135.0	0.0	378.11279296875	12390.0	0.2975	640.0	-154.0	0.5182186234817814	-0.7813765182186235	193.0	-1703.0	0.0764642911760208	-417.0	6.007107819725004	-144.0	25.040890473624597	
2464.0	-0.986935282988296	1388.0	8.449328844027546	-5.154135787997524	2172.0	0.0	397.64404296875	13030.0	0.34	657.0	-167.0	0.49190283400809715	-0.8360323886639677	220.0	-1534.0	1.8351429882244994	-431.0	6.178027241670119	-259.0	22.449381929620937	
2478.0	-1.2648176118822303	1422.0	8.042048335586491	-5.333734920250466	2195.0	0.0	417.17529296875	13670.0	0.34	657.0	-167.0	0.49190283400809715	-0.8360323886639677	220.0	-1398.0	-7.0653005046643225	-368.0	5.585891013042007	323.0	20.35661078982967	
2487.0	-0.20915291235289918	1452.0	7.656137336138653	-5.439330228183889	2106.0	0.0	436.70654296875	14310.0	0.34	657.0	-167.0	0.49190283400809715	-0.8360323886639677	220.0	-1422.0	-20.568894326349596	-225.0	3.922856802727964	1206.0	20.708248055521526	
2514.0	0.12694971866132654	1429.0	7.933067104227891	-5.755731811331239	2078.0	0.0	456.23779296875	14950.0	0.34	657.0	-156.0	0.5141700404858299	-0.791497975708502	198.0	-1446.0	-7.371157669368405	-162.0	2.42233303300616	343.0	21.061510425619304	
2487.0	-0.5841774404091348	1404.0	8.248922625753197	-5.43122476767216	2138.0	0.0	475.76904296875	15590.0	0.34	657.0	-156.0	0.5141700404858299	-0.791497975708502	198.0	-2086.0	6.423000458785748	-290.0	3.741157987225303	-559.0	30.89516821636144	
2431.0	-0.5959034485774958	1402.0	8.266797999393285	-4.7562857251003186	2139.0	0.0	495.30029296875	16230.0	0.34	657.0	-156.0	0.5141700404858299	-0.791497975708502	198.0	-2383.0	6.315950451139319	-288.0	3.669109578137864	-552.0	35.45175937873366	
2449.0	-0.6076622381935025	1401.0	8.281395228268805	-4.972978838298486	2140.0	0.0	514.83154296875	16870.0	0.375	671.0	-159.0	0.5080971659919028	-0.7753036437246964	190.0	-1995.0	5.780700412907173	-153.0	1.6736521225599934	-517.0	29.47814514482542	
2446.0	-0.9386160669952526	1382.0	8.51934568142713	-4.935384789210084	2168.0	0.0	534.36279296875	17510.0	0.375	671.0	-159.0	0.5080971659919028	-0.7753036437246964	190.0	-2196.0	4.11377886526992	-218.0	2.7092291921168488	-408.0	32.572742130804095	
2404.0	-0.879276701424283	1383.0	8.500901286143133	-4.429136187074513	2163.0	0.0	553.89404296875	18150.0	0.375	671.0	-159.0	0.5080971659919028	-0.7753036437246964	190.0	-2295.0	-1.8657287046949076	-157.0	1.9949726997711283	-17.0	34.08470344803501	
2401.0	-0.8808650448100751	1396.0	8.342066947563918	-4.396184178966702	2163.0	0.0	573.42529296875	18790.0	0.375	671.0	-159.0	0.5080971659919028	-0.7753036437246964	190.0	-1950.0	-5.780700412907173	47.0	-0.93317592091432	239.0	28.761575099775055	
2397.0	-0.6679681277369925	1407.0	8.203187226300743	-4.348640033136896	2145.0	0.0	592.95654296875	19430.0	0.41250000000000003	686.0	-164.0	0.4979757085020243	-0.7732793522267206	189.0	-1865.0	-15.29285823520416	237.0	-3.462021200494598	861.0	27.432005536038634	
2433.0	0.1317282608849369	1389.0	8.410921326588927	-4.77022332700395	2078.0	0.0	612.48779296875	20070.0	0.41250000000000003	686.0	-164.0	0.4979757085020243	-0.7732793522267206	189.0	-1635.0	-21.150022939287354	509.0	-7.376022596440039	1244.0	23.863634280710453	
2427.0	-0.1995948879358535	1373.0	8.611939777843219	-4.6972270328405665	2106.0	0.0	632.01904296875	20710.0	0.41250000000000003	686.0	-164.0	0.4979757085020243	-0.7732793522267206	189.0	-2030.0	-7.478207677014835	447.0	-7.0298411046729194	350.0	29.928167140587462	
2395.0	-0.36785133717023655	1386.0	8.452961521071584	-4.316546993793644	2120.0	0.0	651.55029296875	21350.0	0.4225	690.0	-162.0	0.5020242914979757	-0.7550607287449392	180.0	-2433.0	-2.737421624101545	356.0	-5.881640987427806	40.0	36.12347605598425	
2444.0	-0.24754960125520964	1376.0	8.578373207812371	-4.90319718848281	2110.0	0.0	671.08154296875	21990.0	0.4225	690.0	-162.0	0.5020242914979757	-0.7550607287449392	180.0	-2272.0	-2.4009787429270535	236.0	-4.024709910918421	18.0	33.671583497791225	
2476.0	-0.708046422656166	1346.0	8.957262496288168	-5.285766539602003	2149.0	0.0	690.61279296875	22630.0	0.4225	690.0	-162.0	0.5020242914979757	-0.7550607287449392	180.0	-2657.0	4.710200336442882	-33.0	-0.23078777838256215	-447.0	39.61714892749468	
2428.0	-1.0122021481627168	1302.0	9.494070898014042	-4.699758675810503	2175.0	0.0	710.14404296875	23270.0	0.4225	690.0	-162.0	0.5020242914979757	-0.7550607287449392	180.0	-3614.0	5.872457562318398	-282.0	3.40569154835344	-523.0	54.338184581587576	
2356.0	-1.2107282757205562	1270.0	9.879553380325335	-3.8265644079217824	2192.0	0.0	729.67529296875	23910.0	0.4525	702.0	-160.0	0.5060728744939271	-0.6902834008097166	148.0	-4047.0	4.19024315644594	-300.0	3.6833912203076276	-413.0	60.98512300227521	
2326.0	-1.1085191692167795	1310.0	9.386178316417286	-3.473964035002376	2183.0	0.0	749.20654296875	24550.0	0.4525	702.0	-160.0	0.5060728744939271	-0.6902834008097166	148.0	-3668.0	-5.168986083499006	-97.0	0.9935884396360337	199.0	55.14266566803914	
2326.0	-0.44015791378752367	1295.0	9.5556371926762	-3.4638912449229053	2127.0	0.0	768.73779296875	25190.0	0.4525	702.0	-160.0	0.5060728744939271	-0.6902834008097166	148.0	-3380.0	-16.5468726104909	235.0	-3.6135499022639697	943.0	50.67738299108018	
2284.0	-0.5673555935512705	1264.0	9.931107311539627	-2.951629722957732	2138.0	0.0	788.26904296875	25830.0	0.5	721.0	-159.0	0.5080971659919028	-0.6740890688259109	140.0	-3454.0	-9.466279247591375	404.0	-6.507439227283457	480.0	51.78393588853122	
2262.0	-0.5682354053074379	1271.0	9.843126135922873	-2.6883379036237733	2138.0	0.0	807.80029296875	26470.0	0.5	721.0	-159.0	0.5080971659919028	-0.6740890688259109	140.0	-3123.0	-6.331243309374523	576.0	-9.227525223487474	275.0	46.677710937729834	
2268.0	-0.19186272552974593	1308.0	9.38515601845398	-2.7660227358018807	2106.0	0.0	827.33154296875	27110.0	0.5	721.0	-159.0	0.5080971659919028	-0.6740890688259109	140.0	-2647.0	-10.292093592292401	731.0	-11.380084791143295	534.0	39.35221112078582	
2264.0	-0.08340528711074052	1297.0	9.516614146068806	-2.7141162277810564	2097.0	0.0	846.86279296875	27750.0	0.525	731.0	-142.0	0.5425101214574899	-0.6093117408906883	108.0	-2642.0	-9.619207829943416	703.0	-10.975570480111417	490.0	39.27953384560552	
2264.0	-0.3091846102293476	1294.0	9.55772945325571	-2.7155517148685044	2116.0	0.0	866.39404296875	28390.0	0.525	731.0	-142.0	0.5425101214574899	-0.6093117408906883	108.0	-2592.0	-5.5818932558495185	675.0	-10.698715537966292	226.0	38.51507821212073	
2266.0	-0.2744503102297623	1302.0	9.45973088178568	-2.7412607288400777	2113.0	0.0	885.92529296875	29030.0	0.525	731.0	-142.0	0.5425101214574899	-0.6093117408906883	108.0	-2564.0	-6.010093286435235	716.0	-11.307902366911957	254.0	38.079340801403774	
2267.0	-0.3589847193075669	1312.0	9.339623307338547	-2.7565564171908825	2120.0	0.0	905.45654296875	29670.0	0.525	731.0	-142.0	0.5425101214574899	-0.6093117408906883	108.0	-2503.0	-7.93699342407096	784.0	-12.26736320445683	380.0	37.133732689882706	
2267.0	0.15172006995347254	1321.0	9.2196260429663	-2.7538493145857172	2077.0	0.0	924.98779296875	30310.0	0.5425	738.0	-141.0	0.5445344129554656	-0.5850202429149798	96.0	-2497.0	-15.078758219911302	912.0	-13.949531584018505	847.0	37.02484410413833	
2258.0	0.36668330506834207	1315.0	9.287378125881826	-2.641910905636499	2059.0	0.0	944.51904296875	30950.0	0.5425	738.0	-141.0	0.5445344129554656	-0.5850202429149798	96.0	-2617.0	-13.365958097568436	875.0	-13.4673619775255	735.0	38.87100383917825	
2236.0	0.4406309787797007	1294.0	9.539288354160545	-2.3710729833699555	2053.0	0.0	964.05029296875	31590.0	0.5425	738.0	-141.0	0.5445344129554656	-0.5850202429149798	96.0	-2875.0	-8.242850588775044	808.0	-12.681342972334992	400.0	42.83774081302638	
2198.0	0.1577320875798936	1271.0	9.820827805608406	-1.910439857951792	2077.0	0.0	983.58154296875	32230.0	0.5625	746.0	-138.0	0.5506072874493927	-0.5364372469635628	72.0	-3193.0	-3.058571647040832	746.0	-11.98387990348729	61.0	47.72426124699858	
2188.0	0.12067200849277374	1282.0	9.686248468324992	-1.793020117777488	2080.0	0.0	1003.11279296875	32870.0	0.5625	746.0	-138.0	0.5506072874493927	-0.5364372469635628	72.0	-3069.0	-1.6363358311668452	659.0	-10.683616549745084	-32.0	45.83454790692852	
2184.0	0.08227822972025621	1304.0	9.418299162501812	-1.7505702705973394	2083.0	0.0	1022.64404296875	33510.0	0.5625	746.0	-138.0	0.5506072874493927	-0.5364372469635628	72.0	-2943.0	-3.7773359840954277	685.0	-10.978551471730967	108.0	43.898193616784916	
2163.0	0.21415422742502632	1296.0	9.510660837740728	-1.4943922289227425	2072.0	0.0	1042.17529296875	34150.0	0.5625	746.0	-138.0	0.5506072874493927	-0.5364372469635628	72.0	-3088.0	-8.105214864658205	633.0	-10.027903940556932	391.0	46.13265022252477	
2145.0	0.3604961572157602	1267.0	9.859139531099832	-1.2690917658781349	2060.0	0.0	1061.70654296875	34790.0	0.5925	758.0	-128.0	0.5708502024291499	-0.48380566801619435	46.0	-3141.0	-6.270071876433706	551.0	-8.848215796686574	271.0	46.95770473784409	
2141.0	0.15827295209199005	1266.0	9.874914256818053	-1.2226057323306707	2077.0	0.0	1081.23779296875	35430.0	0.5925	758.0	-128.0	0.5708502024291499	-0.48380566801619435	46.0	-3055.0	-0.3517357394096957	568.0	-9.333202718570737	-116.0	45.63322927402652	
2129.0	7.239362243900149E-4	1289.0	9.596203146248525	-1.0851771314477252	2090.0	0.0	1100.76904296875	36070.0	0.5925	758.0	-128.0	0.5708502024291499	-0.48380566801619435	46.0	-3039.0	-0.5046643217617374	533.0	-8.786306436552014	-106.0	45.3931864983167	
2116.0	0.378658463988433	1313.0	9.294417827414726	-0.9308069865226645	2058.0	0.0	1120.30029296875	36710.0	0.595	759.0	-121.0	0.5850202429149798	-0.46153846153846156	35.0	-2991.0	-6.682979048784218	579.0	-9.239346639995071	298.0	44.65212088069227	
2102.0	0.4878352730641071	1296.0	9.49781302069643	-0.756972615771093	2049.0	0.0	1139.83154296875	37350.0	0.595	759.0	-121.0	0.5850202429149798	-0.46153846153846156	35.0	-3090.0	-4.266707447621961	657.0	-10.550872803260159	140.0	46.158109501213985	
2084.0	0.3435223268886749	1308.0	9.352232688867492	-0.5444598819899079	2061.0	0.0	1159.36279296875	37990.0	0.595	759.0	-121.0	0.5850202429149798	-0.46153846153846156	35.0	-3219.0	0.6117143294081664	727.0	-11.842432324243335	-179.0	48.12463229790227	
2083.0	0.8096639902031753	1292.0	9.537827591746096	-0.5240383745281065	2022.0	0.0	1178.89404296875	38630.0	0.6275000000000001	772.0	-120.0	0.5870445344129555	-0.4230769230769231	16.0	-3257.0	-3.700871692919407	731.0	-11.737299295982293	103.0	48.70877400719362	
2080.0	0.23919993322592	1285.0	9.634279036877716	-0.49166940788199365	2070.0	0.0	1198.42529296875	39270.0	0.6275000000000001	772.0	-120.0	0.5870445344129555	-0.4230769230769231	16.0	-3554.0	4.159657439975532	643.0	-10.743755030328035	-411.0	53.276021096313265	
2093.0	-0.15685398371532766	1312.0	9.314601628467232	-0.6586500012437122	2103.0	0.0	1217.95654296875	39910.0	0.6275000000000001	772.0	-120.0	0.5870445344129555	-0.4230769230769231	16.0	-3570.0	5.536014681143906	556.0	-9.463136846202017	-501.0	53.53433901668452	
2049.0	0.21206649569566433	1312.0	9.301887664804525	-0.1250945937951456	2072.0	0.0	1237.48779296875	40550.0	0.6275000000000001	772.0	-120.0	0.5870445344129555	-0.4230769230769231	16.0	-3961.0	-4.587857470561248	428.0	-7.1494823994290275	161.0	59.55716867147909	
2022.0	0.5241774501974098	1290.0	9.560602162598117	0.20850201052502082	2046.0	0.0	1257.01904296875	41190.0	0.6625	786.0	-120.0	0.5870445344129555	-0.3805668016194332	-5.0	-4112.0	-7.554671968190855	457.0	-7.500030152731103	355.0	61.87068022632294	
2010.0	0.2858717933525977	1292.0	9.539560287640722	0.3502764297104368	2066.0	0.0	1276.55029296875	41830.0	0.6625	786.0	-120.0	0.5870445344129555	-0.3805668016194332	-5.0	-3976.0	1.2846000917571496	819.0	-13.400516585003624	-223.0	59.72482558449523	
1971.0	0.392458544949637	1296.0	9.483949733058937	0.8201096042070606	2057.0	0.0	1296.08154296875	42470.0	0.6625	786.0	-120.0	0.5870445344129555	-0.3805668016194332	-5.0	-4128.0	3.3032573788040986	1003.0	-16.33462687541761	-355.0	62.027845997626066	
1926.0	0.027331754378147943	1264.0	9.876032580671938	1.366468667952401	2088.0	0.0	1315.61279296875	43110.0	0.6725	790.0	-121.0	0.5850202429149798	-0.305668016194332	-42.0	-4329.0	1.1928429423459246	1097.0	-17.72684488348128	-217.0	65.09816503282855	
1942.0	0.14759374719401303	1254.0	9.997469957496541	1.1773289510797023	2078.0	0.0	1335.14404296875	43750.0	0.6725	790.0	-121.0	0.5850202429149798	-0.305668016194332	-42.0	-4023.0	-5.520721822908702	1054.0	-16.750009154404303	222.0	60.412521390733076	
1941.0	0.803076209586759	1247.0	10.069525720580657	1.1973730837363963	2023.0	0.0	1354.67529296875	44390.0	0.6725	790.0	-121.0	0.5850202429149798	-0.305668016194332	-42.0	-3894.0	-11.959015139929654	932.0	-14.596264048371077	643.0	58.4546204498953	
1909.0	0.5894045223854487	1242.0	10.130928429021065	1.58200658970789	2041.0	0.0	1374.20654296875	45030.0	0.6725	790.0	-121.0	0.5850202429149798	-0.305668016194332	-42.0	-4104.0	-4.144364581740327	923.0	-14.802612611561312	132.0	61.67489853246964	
1875.0	0.22026820240339912	1243.0	10.122058335578005	1.9877763788560758	2072.0	0.0	1393.73779296875	45670.0	0.6900000000000001	797.0	-120.0	0.5870445344129555	-0.23481781376518218	-77.0	-4104.0	3.792628842330632	862.0	-14.181837244088893	-387.0	61.681106286144356	
1837.0	0.5677073122157088	1224.0	10.342159792999453	2.453484124403833	2043.0	0.0	1413.26904296875	46310.0	0.6900000000000001	797.0	-120.0	0.5870445344129555	-0.23481781376518218	-77.0	-3939.0	-0.5964214711729623	681.0	-11.197068262264587	-100.0	59.17911417237199	
1821.0	0.4158828888264897	1200.0	10.635907930268017	2.650611927252661	2056.0	0.0	1432.80029296875	46950.0	0.6900000000000001	797.0	-120.0	0.5870445344129555	-0.23481781376518218	-77.0	-3776.0	4.37375745526839	569.0	-9.648206921997385	-425.0	56.6934519495003	
1832.0	0.1793115644309097	1188.0	10.78829930023383	2.5187639209260944	2076.0	0.0	1452.33154296875	47590.0	0.715	807.0	-117.0	0.5931174089068826	-0.1437246963562753	-122.0	-3456.0	10.230922159351584	563.0	-9.741088381000091	-808.0	51.782288364310304	
1810.0	0.43833345543688235	1211.0	10.500012210354896	2.7806486390024303	2054.0	0.0	1471.86279296875	48230.0	0.715	807.0	-117.0	0.5931174089068826	-0.1437246963562753	-122.0	-3249.0	3.4256002446857323	480.0	-8.160543820259896	-363.0	48.62178569268585	
1793.0	0.5206543530731218	1219.0	10.39876864064551	2.984266253693039	2047.0	0.0	1491.39404296875	48870.0	0.715	807.0	-117.0	0.5931174089068826	-0.1437246963562753	-122.0	-2877.0	-1.1928429423459246	388.0	-6.50372339821221	-61.0	42.93020597608387	
1794.0	0.16358445720635573	1219.0	10.406064768254621	2.968793284515469	2077.0	0.0	1510.92529296875	49510.0	0.71	805.0	-118.0	0.5910931174089069	-0.11740890688259109	-135.0	-2714.0	3.9455574246826735	294.0	-5.238443037396718	-397.0	40.44170794341766	
1795.0	0.13819619115237625	1232.0	10.24819054380905	2.9533337245949336	2079.0	0.0	1530.45654296875	50150.0	0.71	805.0	-118.0	0.5910931174089069	-0.11740890688259109	-135.0	-2527.0	4.771371769383698	155.0	-3.104862189843434	-451.0	37.59362530782383	
1787.0	0.17169942442182737	1250.0	10.027085299325595	3.0456321942066333	2076.0	0.0	1549.98779296875	50790.0	0.71	805.0	-118.0	0.5910931174089069	-0.11740890688259109	-135.0	-2328.0	4.022021715858695	61.0	-1.5985718990818676	-402.0	34.55513596276459	
1745.0	0.20735595231593185	1250.0	10.021309517307472	3.5518973402307545	2073.0	0.0	1569.51904296875	51430.0	0.71	805.0	-118.0	0.5910931174089069	-0.11740890688259109	-135.0	-2247.0	2.584493041749503	46.0	-1.2979380504674758	-308.0	33.31523912494262	
1740.0	0.031008622592841928	1232.0	10.243719402141336	3.614823028485622	2088.0	0.0	1589.05029296875	52070.0	0.7225	810.0	-115.0	0.597165991902834	-0.058704453441295545	-164.0	-2221.0	4.083193148799511	30.0	-1.1077995206947495	-406.0	32.9181839351291	
1747.0	0.030407541263833632	1237.0	10.183611269240506	3.529277505616726	2088.0	0.0	1608.58154296875	52710.0	0.7225	810.0	-115.0	0.597165991902834	-0.058704453441295545	-164.0	-2173.0	0.16822144058724578	-63.0	0.4865544106816901	-150.0	32.19759225885287	
1758.0	-0.04428479416729668	1264.0	9.857234868984616	3.3894729337753686	2094.0	0.0	1628.11279296875	53350.0	0.7225	810.0	-115.0	0.597165991902834	-0.058704453441295545	-164.0	-2124.0	-5.306621807615844	-160.0	2.204973237543943	208.0	31.462896747873373	
1774.0	0.13085675988876197	1292.0	9.514247417447624	3.19159351594784	2079.0	0.0	1647.64404296875	53990.0	0.72	809.0	-111.0	0.6052631578947368	-0.04048582995951417	-173.0	-2080.0	-10.796757914054139	-240.0	3.6617644862691336	567.0	30.80230737940313	
1748.0	0.3797999985927393	1300.0	9.408571287845357	3.505222437791027	2058.0	0.0	1667.17529296875	54630.0	0.72	809.0	-111.0	0.6052631578947368	-0.04048582995951417	-173.0	-2083.0	-14.40587245756232	-243.0	3.85179647695501	803.0	30.85024115028436	
1740.0	0.2606447614976568	1301.0	9.39780948309901	3.6002011914938237	2068.0	0.0	1686.70654296875	55270.0	0.72	809.0	-111.0	0.6052631578947368	-0.04048582995951417	-173.0	-2146.0	-7.524086251720448	-88.0	1.1828763188905445	353.0	31.79025441916558	
1722.0	0.05779518398177534	1305.0	9.350946969606106	3.8141029153283252	2085.0	0.0	1706.23779296875	55910.0	0.72	809.0	-111.0	0.6052631578947368	-0.04048582995951417	-173.0	-2185.0	-2.385685884691849	-18.0	-0.10527265145532042	17.0	32.375807792128995	
1710.0	0.21202393268702757	1309.0	9.297631363940855	3.9591572039550846	2072.0	0.0	1725.76904296875	56550.0	0.715	807.0	-106.0	0.6153846153846154	-0.004048582995951417	-191.0	-2347.0	-3.4867716776265487	-14.0	-0.14761204486390178	89.0	34.86119075081115	
1705.0	0.2955783057260778	1307.0	9.31973533451254	4.020675790952331	2065.0	0.0	1745.30029296875	57190.0	0.715	807.0	-106.0	0.6153846153846154	-0.004048582995951417	-191.0	-2448.0	-5.398378957027069	-2.0	-0.2712203079737196	214.0	36.409747517650665	
1688.0	-0.04985470286135675	1309.0	9.30024399957861	4.221650911276212	2094.0	0.0	1764.83154296875	57830.0	0.715	807.0	-106.0	0.6153846153846154	-0.004048582995951417	-191.0	-2636.0	0.22939287352806242	33.0	-1.0634782956419762	-154.0	39.28658786550147	
1689.0	0.18612156188690612	1326.0	9.088346664881088	4.20772453445866	2074.0	0.0	1784.36279296875	58470.0	0.7075	804.0	-108.0	0.611336032388664	0.04048582995951417	-213.0	-2769.0	1.146964367640312	105.0	-2.2279947867273244	-214.0	41.315759027121224	
1683.0	-0.04100591295315752	1334.0	8.994646799922345	4.2758684190375895	2093.0	0.0	1803.89404296875	59110.0	0.7075	804.0	-108.0	0.611336032388664	0.04048582995951417	-213.0	-2761.0	-0.3517357394096957	165.0	-3.0896679895196124	-116.0	41.1843864258283	
1672.0	-0.004458734275841356	1327.0	9.07793609622539	4.410429797232352	2090.0	0.0	1823.42529296875	59750.0	0.7075	804.0	-108.0	0.611336032388664	0.04048582995951417	-213.0	-2749.0	3.135035938216853	213.0	-3.9655578760668186	-344.0	40.99149372306533	
1645.0	-0.06400310139082446	1327.0	9.07588033710803	4.735094443198132	2095.0	0.0	1842.95654296875	60390.0	0.7000000000000001	801.0	-110.0	0.6072874493927125	0.06477732793522267	-225.0	-2788.0	2.82917877351277	293.0	-5.189765428133073	-324.0	41.577686510211535	
1619.0	-0.03974206477537759	1323.0	9.121031617700337	5.049493091224325	2093.0	0.0	1862.48779296875	61030.0	0.7000000000000001	801.0	-110.0	0.6072874493927125	0.06477732793522267	-225.0	-2796.0	2.64566447469032	371.0	-6.383348469582063	-312.0	41.68850654906204	
1603.0	0.07926236591091206	1323.0	9.116712781567395	5.243367843145879	2083.0	0.0	1882.01904296875	61670.0	0.7000000000000001	801.0	-110.0	0.6072874493927125	0.06477732793522267	-225.0	-2778.0	0.9787429270530663	462.0	-7.713561227857896	-203.0	41.39900371563304	
1612.0	-0.03938478811971967	1320.0	9.156759283266128	5.134548566699787	2093.0	0.0	1901.55029296875	62310.0	0.7000000000000001	801.0	-110.0	0.6072874493927125	0.06477732793522267	-225.0	-2681.0	1.1928429423459246	532.0	-8.783891468232278	-217.0	39.89988549839118	
1587.0	0.05677928221938705	1312.0	9.249356793367276	5.43856697688231	2085.0	0.0	1921.08154296875	62950.0	0.6975	800.0	-107.0	0.6133603238866396	0.09919028340080972	-242.0	-2719.0	1.5445786817556202	587.0	-9.649728906518208	-240.0	40.47431750301707	
1555.0	0.3913480293495545	1301.0	9.372898173050691	5.829925660621979	2057.0	0.0	1940.61279296875	63590.0	0.6975	800.0	-107.0	0.6133603238866396	0.09919028340080972	-242.0	-2724.0	-2.7068359076311364	594.0	-9.588121450064797	38.0	40.551655995872224	
1548.0	0.28690012034110973	1279.0	9.642392986491926	5.9186084271983095	2066.0	0.0	1960.14404296875	64230.0	0.6975	800.0	-107.0	0.6133603238866396	0.09919028340080972	-242.0	-2677.0	-1.881021562930112	603.0	-9.752365932048404	-16.0	39.82882281912052	
1537.0	-0.13152461264569368	1294.0	9.466586354478252	6.043438167710095	2101.0	0.0	1979.67529296875	64870.0	0.68	793.0	-110.0	0.6072874493927125	0.13157894736842105	-258.0	-2720.0	4.970178926441353	609.0	-10.125268282669914	-464.0	40.48490659291368	
1529.0	0.24861017886019382	1300.0	9.38482740982891	6.1419898789008425	2069.0	0.0	1999.20654296875	65510.0	0.68	793.0	-110.0	0.6072874493927125	0.13157894736842105	-258.0	-2493.0	-3.8538002752714484	486.0	-7.845688481848748	113.0	37.024504600527536	
1533.0	0.43759008827376683	1312.0	9.235199303567157	6.092694344785405	2053.0	0.0	2018.73779296875	614.0	0.68	793.0	-110.0	0.6072874493927125	0.13157894736842105	-258.0	-2085.0	-14.14589386756385	373.0	-5.633426347064454	786.0	30.786077889360413	
1549.0	0.5675602090362487	1320.0	9.136973284577248	5.899258441275883	2042.0	0.0	2038.26904296875	1254.0	0.68	793.0	-110.0	0.6072874493927125	0.13157894736842105	-258.0	-1680.0	-15.965743997553144	274.0	-3.9758103050597686	905.0	24.588138168239876	
1563.0	0.4356757809771109	1328.0	9.043768573901568	5.727400803986598	2053.0	0.0	2057.80029296875	1894.0	0.6775	792.0	-122.0	0.582995951417004	0.1680161943319838	-276.0	-1226.0	-2.171585869398991	187.0	-3.1197426281692713	3.0	17.63030326422007	
1566.0	0.33875380121851184	1342.0	8.875380121851185	5.6869192368347505	2061.0	0.0	2077.33154296875	2534.0	0.6775	792.0	-122.0	0.582995951417004	0.1680161943319838	-276.0	-1080.0	-1.0093286435234747	184.0	-3.0976854301288728	-73.0	15.39022922211424	
1565.0	0.4455082199330793	1345.0	8.836536279022217	5.699258096936402	2052.0	0.0	2096.86279296875	3174.0	0.6775	792.0	-122.0	0.582995951417004	0.1680161943319838	-276.0	-989.0	1.819850129989295	180.0	-3.135356338310524	-258.0	13.99350450014306	
1565.0	0.17090039342063973	1352.0	8.75670600873064	5.694915413265447	2075.0	0.0	2116.39404296875	3814.0	0.6675	788.0	-112.0	0.6032388663967612	0.1680161943319838	-276.0	-940.0	3.257378804098486	194.0	-3.400663641939065	-352.0	13.238971727858651	
1562.0	0.15740968002807743	1365.0	8.5981108599506	5.727753181469173	2076.0	0.0	2135.92529296875	4454.0	0.6675	788.0	-112.0	0.6032388663967612	0.1680161943319838	-276.0	-883.0	0.18351429882244993	160.0	-2.746031707153614	-151.0	12.370882478693387	
1559.0	0.2274793613562565	1376.0	8.462221849911364	5.761880676394922	2070.0	0.0	2155.45654296875	5094.0	0.6675	788.0	-112.0	0.6032388663967612	0.1680161943319838	-276.0	-835.0	-2.1257072946933784	92.0	-1.6004191283494484	0.0	11.645803388891434	
1561.0	0.5239438991681099	1385.0	8.346770869191937	5.738439916616484	2045.0	0.0	2174.98779296875	5734.0	0.665	787.0	-116.0	0.5951417004048583	0.20445344129554657	-294.0	-795.0	-1.988071570576541	60.0	-1.1076040810424204	-9.0	11.036952193039507	
1551.0	0.32037254232288315	1395.0	8.227730422764507	5.854505321830326	2062.0	0.0	2194.51904296875	6374.0	0.665	787.0	-116.0	0.5951417004048583	0.20445344129554657	-294.0	-792.0	1.7892644135188869	32.0	-0.8275622213084324	-256.0	10.993719160662474	
1542.0	0.2721427115853825	1400.0	8.166652110919205	5.961235192225804	2066.0	0.0	2214.05029296875	7014.0	0.665	787.0	-116.0	0.5951417004048583	0.20445344129554657	-294.0	-760.0	2.1410001529285827	-9.0	-0.20611135692439345	-279.0	10.508910192246315	
1550.0	0.23400718952227423	1420.0	7.924528476036946	5.859625822138852	2069.0	0.0	2233.58154296875	7654.0	0.665	787.0	-116.0	0.5951417004048583	0.20445344129554657	-294.0	-627.0	-2.4009787429270535	-18.0	0.13438215278724958	18.0	8.471498800812821	
1543.0	0.39953481823261183	1429.0	7.810624680404043	5.943340371910889	2055.0	0.0	2253.11279296875	8294.0	0.6575	784.0	-115.0	0.597165991902834	0.2165991902834008	-300.0	-581.0	-4.3278788805627775	12.0	-0.2429131162412898	144.0	7.76187959984879	
1535.0	0.529476034922976	1437.0	7.7095082542023645	6.039002997722433	2044.0	0.0	2272.64404296875	8934.0	0.6575	784.0	-115.0	0.597165991902834	0.2165991902834008	-300.0	-613.0	-1.9421929958709285	50.0	-0.9277077645566365	-12.0	8.246055130425633	
1529.0	0.37559131517366107	1430.0	7.797226755461346	6.111507677176626	2057.0	0.0	2292.17529296875	9574.0	0.6575	784.0	-115.0	0.597165991902834	0.2165991902834008	-300.0	-805.0	-0.764642911760208	77.0	-1.4195427129390747	-89.0	11.18727764330179	
1539.0	0.32714056215323656	1437.0	7.714056215323656	5.988877831132824	2061.0	0.0	2311.70654296875	10214.0	0.6525	782.0	-110.0	0.6072874493927125	0.19635627530364372	-290.0	-941.0	-5.688943263495948	-34.0	0.46380209508585457	233.0	13.292960868887027	
1536.0	0.4580630192186934	1437.0	7.711063826631246	6.026271786242884	2050.0	0.0	2331.23779296875	10854.0	0.6525	782.0	-110.0	0.6072874493927125	0.19635627530364372	-290.0	-1067.0	-8.579293469949535	-135.0	2.113524219085843	422.0	15.242863031050765	
1524.0	0.40909816145212696	1448.0	7.57648281187936	6.167668830623192	2054.0	0.0	2350.76904296875	11494.0	0.6525	782.0	-110.0	0.6072874493927125	0.19635627530364372	-290.0	-1143.0	-6.958250497017893	-215.0	3.26748520727254	316.0	16.420583398950125	
1525.0	0.5401473381996119	1447.0	7.586162391389763	6.157124721209791	2043.0	0.0	2370.30029296875	12134.0	0.6525	782.0	-110.0	0.6072874493927125	0.19635627530364372	-290.0	-1143.0	-4.037314574093899	-180.0	2.612334574451319	125.0	16.414031892621914	
1522.0	0.31546152310206677	1435.0	7.736628500682867	6.1940317635579305	2062.0	0.0	2389.83154296875	12774.0	0.6475	780.0	-105.0	0.6174089068825911	0.2550607287449393	-319.0	-1202.0	0.9175714941122497	-137.0	1.7437360441719683	-199.0	17.31067044314849	
1506.0	0.22217373105329685	1419.0	7.931658819615399	6.389770576353443	2070.0	0.0	2409.36279296875	13414.0	0.6475	780.0	-105.0	0.6174089068825911	0.2550607287449393	-319.0	-1336.0	0.6575929041137789	-69.0	0.6876862604828758	-182.0	19.356270755500333	
1505.0	0.1973925680100168	1427.0	7.834494896239778	6.399627679026582	2072.0	0.0	2428.89404296875	14054.0	0.6475	780.0	-105.0	0.6174089068825911	0.2550607287449393	-319.0	-1410.0	-3.8690931335066527	-106.0	1.4264681146323832	114.0	20.499150364743073	
1505.0	0.37470909474481706	1437.0	7.709004712576946	6.398891040620673	2057.0	0.0	2448.42529296875	14694.0	0.645	779.0	-101.0	0.6255060728744939	0.2631578947368421	-323.0	-1378.0	-7.56996482642606	-27.0	0.36432176985606746	356.0	19.997505424235314	
1491.0	0.45800882408347277	1437.0	7.705644313109181	6.568331528719885	2050.0	0.0	2467.95654296875	15334.0	0.645	779.0	-101.0	0.6255060728744939	0.2631578947368421	-323.0	-1293.0	-3.502064535861753	75.0	-1.3541689678315991	90.0	18.67603940591782	
1485.0	0.41197684841514026	1424.0	7.864351508180689	6.6433345094911385	2054.0	0.0	2487.48779296875	15974.0	0.645	779.0	-101.0	0.6255060728744939	0.2631578947368421	-323.0	-1284.0	0.6423000458785748	40.0	-0.9802212313780831	-181.0	18.54167853035923	
1494.0	0.1977450273203218	1424.0	7.869740827270274	6.532866242722223	2072.0	0.0	2507.01904296875	16614.0	0.6275000000000001	772.0	-97.0	0.6336032388663968	0.28542510121457493	-334.0	-1313.0	-0.33644288117449156	-75.0	0.823256859384607	-117.0	19.00470333735248	
1496.0	0.5641609571326938	1445.0	7.606571903745563	6.5071706380076835	2041.0	0.0	2526.55029296875	17254.0	0.6275000000000001	772.0	-97.0	0.6336032388663968	0.28542510121457493	-334.0	-1243.0	-5.750114696436764	-161.0	2.373263274006001	237.0	17.94608954542995	
1508.0	0.5520292344886321	1447.0	7.583875829815584	6.362017086049631	2042.0	0.0	2546.08154296875	17894.0	0.6275000000000001	772.0	-97.0	0.6336032388663968	0.28542510121457493	-334.0	-1224.0	1.422235815873987	-152.0	1.9508867031026227	-232.0	17.650320590216545	
1505.0	0.267709667020561	1436.0	7.723347654437051	6.398107905180632	2066.0	0.0	2565.61279296875	18534.0	0.6275000000000001	772.0	-97.0	0.6336032388663968	0.28542510121457493	-334.0	-1235.0	6.866493347606668	-164.0	1.9160189820204734	-588.0	17.818761233245095	
1512.0	0.11128065457346416	1450.0	7.556636885917843	6.308872050288188	2079.0	0.0	2585.14404296875	19174.0	0.6125	766.0	-99.0	0.6295546558704453	0.3016194331983806	-342.0	-1146.0	4.5113931793852275	-172.0	2.1469144807334866	-434.0	16.45541114265911	
1499.0	0.5520183954615879	1447.0	7.582791927111171	6.470429034545032	2042.0	0.0	2604.67529296875	19814.0	0.6125	766.0	-99.0	0.6295546558704453	0.3016194331983806	-342.0	-877.0	-1.1775500841107205	-108.0	1.43135649948544	-62.0	12.320589458811028	
1483.0	0.46929204771616106	1442.0	7.643490485901821	6.66358682658074	2049.0	0.0	2624.20654296875	20454.0	0.6125	766.0	-99.0	0.6295546558704453	0.3016194331983806	-342.0	-758.0	2.553907325279095	-93.0	1.069660574983662	-306.0	10.490978944249148	
1465.0	0.4098804219648973	1441.0	7.654708863156395	6.8800845477478365	2054.0	0.0	2643.73779296875	21094.0	0.605	763.0	-98.0	0.631578947368421	0.2935222672064777	-338.0	-814.0	6.713564765254627	-238.0	3.124901930694628	-578.0	11.37082244266125	
1473.0	0.34842776923494945	1457.0	7.461824542542563	6.7792267926395855	2059.0	0.0	2663.26904296875	21734.0	0.605	763.0	-98.0	0.631578947368421	0.2935222672064777	-338.0	-817.0	9.527450680532192	-354.0	4.796059914410697	-762.0	11.433567473472786	
1467.0	0.002642301337209954	1462.0	7.407087276578139	6.846963349267826	2088.0	0.0	2682.80029296875	22374.0	0.605	763.0	-98.0	0.631578947368421	0.2935222672064777	-338.0	-698.0	10.689707906407708	-320.0	4.244888216015928	-838.0	9.602062201171975	
1472.0	-0.10483871405205572	1465.0	7.373271451937287	6.784971258765696	2097.0	0.0	2702.33154296875	23014.0	0.605	763.0	-98.0	0.631578947368421	0.2935222672064777	-338.0	-497.0	8.992200642300046	-152.0	1.759661628747584	-727.0	6.4929687200161865	
1472.0	-0.08176538805856656	1471.0	7.299651670333821	6.783729596393561	2095.0	0.0	2721.86279296875	23654.0	0.6175	768.0	-100.0	0.6275303643724697	0.2935222672064777	-338.0	-271.0	6.591221899372994	56.0	-1.3088216081799657	-570.0	2.994430580910682	
1454.0	-0.08215277312268038	1474.0	7.260913163922439	6.99981842229421	2095.0	0.0	2741.39404296875	24294.0	0.6175	768.0	-100.0	0.6275303643724697	0.2935222672064777	-338.0	-204.0	4.603150328796453	208.0	-3.5568949644579497	-440.0	1.9438694422535334	
1451.0	-0.07061972313495053	1477.0	7.223741972219234	7.035334907273276	2094.0	0.0	2760.92529296875	24934.0	0.6175	768.0	-100.0	0.6275303643724697	0.2935222672064777	-338.0	-178.0	1.819850129989295	212.0	-3.503107765013643	-258.0	1.5454507391367287	
1466.0	-0.11943016148370941	1487.0	7.104602899248106	6.851741129864101	2098.0	0.0	2780.45654296875	25574.0	0.61	765.0	-106.0	0.6153846153846154	0.2773279352226721	-330.0	-249.0	3.150328796452057	244.0	-4.059397830376069	-345.0	2.629346178209973	
1479.0	-0.20382821618878005	1496.0	6.9981307620743785	6.692141200549479	2105.0	0.0	2799.98779296875	26214.0	0.61	765.0	-106.0	0.6153846153846154	0.2773279352226721	-330.0	-205.0	5.47484324820309	405.0	-6.621912654604812	-497.0	1.9285637490101897	
1473.0	-0.15781069255650634	1509.0	6.837978363396987	6.7616874844387596	2101.0	0.0	2819.51904296875	26854.0	0.61	765.0	-106.0	0.6153846153846154	0.2773279352226721	-330.0	-124.0	4.11377886526992	641.0	-10.184895486050982	-408.0	0.6500307443876105	
1472.0	-0.34617747727768866	1492.0	7.0489189388978035	6.776070820872649	2117.0	0.0	2839.05029296875	27494.0	0.625	771.0	-110.0	0.6072874493927125	0.2975708502024291	-340.0	0.0	4.174950298210736	800.0	-12.613849860876181	-412.0	-1.2769747729681296	
1471.0	-0.07205846444828805	1489.0	7.079867840885482	6.7914791818117815	2094.0	0.0	2858.58154296875	28134.0	0.625	771.0	-110.0	0.6072874493927125	0.2975708502024291	-340.0	-37.0	1.330478666462762	839.0	-13.105606985354012	-226.0	-0.7141464488622866	
1475.0	0.17862753705928902	1483.0	7.148467991643188	6.747165273757673	2073.0	0.0	2878.11279296875	28774.0	0.625	771.0	-110.0	0.6072874493927125	0.2975708502024291	-340.0	-163.0	1.2998929499923537	708.0	-11.108842678628015	-224.0	1.2392261351287117	
1475.0	0.11996900338216464	1476.0	7.234995576311702	6.7483092401142715	2078.0	0.0	2897.64404296875	29414.0	0.625	771.0	-110.0	0.6072874493927125	0.2975708502024291	-340.0	-292.0	6.377121884080135	673.0	-10.793379055305296	-556.0	3.2218191632600517	
1474.0	-0.05966487208580244	1485.0	7.128750886657852	6.7564362003376	2093.0	0.0	2917.17529296875	30054.0	0.625	771.0	-117.0	0.5931174089068826	0.3016194331983806	-342.0	-395.0	10.200336442881175	648.0	-10.577577813829679	-806.0	4.804458992461673	
1450.0	0.10669559926351149	1487.0	7.098131354922579	7.046644040922412	2079.0	0.0	2936.70654296875	30694.0	0.625	771.0	-117.0	0.5931174089068826	0.3016194331983806	-342.0	-396.0	9.068664933476068	631.0	-10.270996825347526	-732.0	4.82286928600462	
1348.0	0.8597134304737604	1460.0	7.399914475947469	8.289125544305616	2016.0	0.0	2956.23779296875	31334.0	0.625	771.0	-117.0	0.5931174089068826	0.3016194331983806	-342.0	-321.0	4.159657439975532	521.0	-8.371270758144068	-411.0	3.6910302723172856	
1433.0	0.2093301281371091	1426.0	7.837774718472815	7.267282530590586	2071.0	0.0	2975.76904296875	31974.0	0.635	775.0	-124.0	0.5789473684210527	0.3259109311740891	-354.0	480.0	20.614772901055208	652.0	-10.921385654903089	-1487.0	-8.625402286808354	
1357.0	0.6185514675992451	1388.0	8.28371818849594	8.195956263988078	2037.0	0.0	2995.30029296875	32614.0	0.635	775.0	-124.0	0.5789473684210527	0.3259109311740891	-354.0	833.0	22.00642300045879	547.0	-9.307910846144296	-1578.0	-14.025870270038858	
1408.0	-0.22523635836143308	1378.0	8.428745116237648	7.575961092958006	2108.0	0.0	3014.83154296875	33254.0	0.635	775.0	-124.0	0.5789473684210527	0.3259109311740891	-354.0	1987.0	21.63939440281389	263.0	-4.748051663462513	-1554.0	-31.68780581968818	
1415.0	-0.1909836460268572	1390.0	8.28258777826666	7.489043123924342	2105.0	0.0	3034.36279296875	33894.0	0.635	775.0	-124.0	0.5789473684210527	0.3259109311740891	-354.0	3209.0	-4.92430035173574	123.0	-1.344819762298184	183.0	-50.40473253090517	
1480.0	-0.09288265036718138	1367.0	8.568877820424722	6.712617404603618	2097.0	0.0	3053.89404296875	34534.0	0.655	783.0	-133.0	0.5607287449392713	0.2793522267206478	-331.0	3447.0	-8.22755773053984	18.0	0.4387881760691112	399.0	-54.03888356215522	
1517.0	-0.5349324128866144	1381.0	8.411520616100455	6.259266630361818	2134.0	0.0	3073.42529296875	35174.0	0.655	783.0	-133.0	0.5607287449392713	0.2793522267206478	-331.0	3058.0	2.5080287505734824	-11.0	0.3957641954513559	-303.0	-48.07030965895082	
1475.0	-0.5864933498135071	1413.0	8.017331685315963	6.7568913387624	2138.0	0.0	3092.95654296875	35814.0	0.655	783.0	-133.0	0.5607287449392713	0.2793522267206478	-331.0	2655.0	-1.5904572564612327	83.0	-0.9479316589940281	-35.0	-41.89991970327094	
1472.0	-0.017986956241084248	1436.0	7.725113899701099	6.792876625299081	2090.0	0.0	3112.48779296875	36454.0	0.67	789.0	-126.0	0.5748987854251012	0.2793522267206478	-331.0	2101.0	-1.8657287046949076	156.0	-2.144713730912949	-17.0	-33.411043577388924	
1515.0	-0.6394183592007665	1457.0	7.486735508494786	6.263822454288731	2142.0	0.0	3132.01904296875	37094.0	0.67	789.0	-126.0	0.5748987854251012	0.2793522267206478	-331.0	1485.0	23.795687413977674	398.0	-6.98771232525291	-1695.0	-24.007271629927384	
1466.0	-2.6251008230884754	1440.0	7.728012929247679	6.839152623848045	2309.0	0.0	3151.55029296875	37734.0	0.67	789.0	-126.0	0.5748987854251012	0.2793522267206478	-331.0	1455.0	32.69613090686649	1309.0	-21.36012490284906	-2277.0	-23.690661245959596	
1459.0	-2.0134560943039093	1402.0	8.17820009341864	6.938610163816899	2258.0	0.0	3171.08154296875	38374.0	0.685	795.0	-140.0	0.5465587044534413	0.25303643724696356	-318.0	1590.0	1.8351429882244994	1643.0	-25.242253247849252	-259.0	-25.80098782325646	
1452.0	-1.360297002326021	1414.0	8.017918815016955	7.026273478566235	2203.0	0.0	3190.61279296875	39014.0	0.685	795.0	-140.0	0.5465587044534413	0.25303643724696356	-318.0	962.0	-8.808686343477596	1893.0	-28.758074071068606	437.0	-16.199810294186214	
1505.0	-1.8288140868844367	1450.0	7.594781787746806	6.374571350307778	2242.0	0.0	3210.14404296875	39654.0	0.685	795.0	-140.0	0.5465587044534413	0.25303643724696356	-318.0	286.0	-6.988836213488302	1848.0	-28.242447148673932	318.0	-5.82178307206983	
1548.0	-1.71229854942437	1471.0	7.341573628991567	5.852600053350647	2232.0	0.0	3229.67529296875	40294.0	0.685	795.0	-140.0	0.5465587044534413	0.25303643724696356	-318.0	-15.0	-6.514757608196972	1944.0	-29.78413891245971	287.0	-1.2185104086120915	
1564.0	-1.5857416940887934	1507.0	6.902021067311129	5.652303486333046	2221.0	0.0	3249.20654296875	40934.0	0.68	793.0	-137.0	0.5526315789473685	0.2692307692307692	-326.0	-508.0	-1.238721517051537	2050.0	-31.701155340684675	-58.0	6.327149870561237	
1572.0	-1.215905272831487	1500.0	6.9809012882798855	5.561193912796319	2190.0	0.0	3268.73779296875	41574.0	0.68	793.0	-137.0	0.5526315789473685	0.2692307692307692	-326.0	-807.0	-6.560636182902585	1945.0	-29.919200822737594	290.0	10.932970029520053	
1579.0	-0.7984605758834379	1493.0	7.0587043164181145	5.482587070930974	2155.0	0.0	3288.26904296875	42214.0	0.68	793.0	-137.0	0.5526315789473685	0.2692307692307692	-326.0	-1067.0	-13.167150940510783	2025.0	-30.925315189290693	722.0	14.912474636967	
1565.0	-0.2114823338235054	1462.0	7.423195189078031	5.664421369599952	2106.0	0.0	3307.80029296875	42854.0	0.68	793.0	-137.0	0.5526315789473685	0.25101214574898784	-317.0	-1127.0	-20.308915736351125	2237.0	-33.90958962378334	1189.0	15.803300912109565	
1559.0	-0.0925877621105086	1463.0	7.407890455615808	5.737593377274344	2096.0	0.0	3327.33154296875	43494.0	0.68	793.0	-137.0	0.5526315789473685	0.25101214574898784	-317.0	-1457.0	-21.777030126930725	2489.0	-37.77744177798286	1285.0	20.828301997748788	
1537.0	0.025068516854324555	1474.0	7.268756447337218	6.001047500862275	2086.0	0.0	3346.86279296875	44134.0	0.68	793.0	-137.0	0.5526315789473685	0.25101214574898784	-317.0	-1869.0	-30.004587857470565	2660.0	-40.14168687622149	1823.0	27.126586813913864	
1523.0	0.07058879644919161	1491.0	7.058879644919161	6.165979866405043	2082.0	0.0	3366.39404296875	44774.0	0.68	793.0	-137.0	0.5526315789473685	0.25101214574898784	-317.0	-1879.0	-46.582046184431874	2739.0	-40.695265295565086	2907.0	27.274495866301677	
1521.0	0.29502478519169517	1505.0	6.883430900121901	6.188811636938692	2063.0	0.0	3385.92529296875	45414.0	0.655	783.0	-134.0	0.5587044534412956	0.33805668016194335	-360.0	-1644.0	-59.97858999847072	2840.0	-41.676852985001474	3783.0	23.65872632974796	
1531.0	0.41479194264283015	1499.0	6.955384740473488	6.070966457609392	2053.0	0.0	3405.45654296875	46054.0	0.655	783.0	-134.0	0.5587044534412956	0.33805668016194335	-360.0	-1255.0	-63.49594739256768	2912.0	-42.58389986282437	4013.0	17.680651717959144	
1541.0	0.9918471561549131	1452.0	7.518048948824651	5.9675083662006925	2005.0	0.0	3424.98779296875	46694.0	0.655	783.0	-134.0	0.5587044534412956	0.33805668016194335	-360.0	-1327.0	-52.68389662027833	2830.0	-41.76616728665488	3306.0	18.793631867105834	
1529.0	0.7185658033098418	1448.0	7.570866045269896	6.11041020785416	2028.0	0.0	3444.51904296875	47334.0	0.595	759.0	-115.0	0.597165991902834	0.3582995951417004	-370.0	-2061.0	-29.62226640159046	2588.0	-39.079025489514294	1798.0	30.08335429014092	
1480.0	0.8051147439668892	1421.0	7.89242677764131	6.70806835769129	2021.0	0.0	3464.05029296875	47974.0	0.595	759.0	-115.0	0.597165991902834	0.3582995951417004	-370.0	-2718.0	-27.068359076311364	1981.0	-29.94588328131448	1631.0	40.25601147561098	
1483.0	1.0180200913943394	1432.0	7.754390091814901	6.671292099135783	2003.0	0.0	3483.58154296875	48614.0	0.595	759.0	-115.0	0.597165991902834	0.3582995951417004	-370.0	-3132.0	-30.845695060406793	1291.0	-19.245634298690568	1878.0	46.71563019990093	
1462.0	0.36458347332563057	1422.0	7.886918761134486	6.920420354534259	2058.0	0.0	3503.11279296875	49254.0	0.56	745.0	-110.0	0.6072874493927125	0.39271255060728744	-387.0	-3230.0	-19.95717999694143	822.0	-12.482614070271902	1166.0	48.28701980068136	
1437.0	0.2418725947492176	1452.0	7.520592808255092	7.213071545968015	2068.0	0.0	3522.64404296875	49894.0	0.56	745.0	-110.0	0.6072874493927125	0.39271255060728744	-387.0	-3267.0	-9.63450068817862	405.0	-6.48740043798299	491.0	48.914717832354874	
1437.0	0.4562371572077553	1451.0	7.5284776255374375	7.215372887938248	2050.0	0.0	3542.17529296875	50534.0	0.56	745.0	-110.0	0.6072874493927125	0.39271255060728744	-387.0	-3061.0	-4.541978895855636	61.0	-1.368509946022656	158.0	45.804943103700744	
1436.0	-0.030907901049432418	1444.0	7.623495609342473	7.224449989802861	2091.0	0.0	3561.70654296875	51174.0	0.56	745.0	-110.0	0.6072874493927125	0.39271255060728744	-387.0	-2557.0	6.560636182902585	51.0	-1.5814345702257453	-568.0	38.069194093763755	
1421.0	-0.1985343648826895	1452.0	7.527515892683434	7.401577022397612	2105.0	0.0	3581.23779296875	51814.0	0.54	737.0	-111.0	0.6052631578947368	0.41700404858299595	-399.0	-2078.0	7.875821991130143	95.0	-2.2372952906910086	-654.0	30.712627814317276	
1433.0	-0.18686134751321087	1454.0	7.5043414391551035	7.256651950247728	2104.0	0.0	3600.76904296875	52454.0	0.54	737.0	-111.0	0.6052631578947368	0.41700404858299595	-399.0	-1980.0	3.211500229392874	-63.0	0.3944473232983843	-349.0	29.23518584196093	
1440.0	-0.7380190075705254	1484.0	7.150480195328412	7.159725799373032	2150.0	0.0	3620.30029296875	53094.0	0.54	737.0	-111.0	0.6052631578947368	0.41700404858299595	-399.0	-2169.0	12.249579446398533	-97.0	0.5269062966897191	-940.0	32.13661784308045	
1428.0	-0.4889370058211375	1491.0	7.0586803702671945	7.304958936142312	2129.0	0.0	3639.83154296875	53734.0	0.52	729.0	-113.0	0.6012145748987854	0.4493927125506073	-415.0	-2081.0	7.371157669368405	-121.0	1.1046625110035297	-621.0	30.792080843308597	
1416.0	-0.6655365705719456	1475.0	7.255866752329255	7.451714981389058	2144.0	0.0	3659.36279296875	54374.0	0.52	729.0	-113.0	0.6012145748987854	0.4493927125506073	-415.0	-1864.0	8.349900596421472	-54.0	0.06830328410150244	-685.0	27.45196429722647	
1422.0	-0.7720411629314715	1470.0	7.319693230662378	7.37963730840562	2153.0	0.0	3678.89404296875	55014.0	0.52	729.0	-113.0	0.6012145748987854	0.4493927125506073	-415.0	-1713.0	8.028750573482185	31.0	-1.2030445650791306	-664.0	25.122233786357803	
1428.0	-0.773984374300245	1486.0	7.1253720937850185	7.303442296927878	2153.0	0.0	3698.42529296875	55654.0	0.515	727.0	-122.0	0.582995951417004	0.46153846153846156	-421.0	-1642.0	5.994800428200032	44.0	-1.3107504407852355	-531.0	24.031698387873874	
1416.0	-0.7404859583761468	1504.0	6.903785114766267	7.443923854759756	2150.0	0.0	3717.95654296875	56294.0	0.515	727.0	-122.0	0.582995951417004	0.46153846153846156	-421.0	-1522.0	2.9515216393944033	50.0	-1.2629041867773831	-332.0	22.190838811438965	
1432.0	-0.777149017708447	1512.0	6.808907752964823	7.248888592593055	2153.0	0.0	3737.48779296875	56934.0	0.515	727.0	-122.0	0.582995951417004	0.46153846153846156	-421.0	-1550.0	7.340571952897998	22.0	-1.0120847679096538	-619.0	22.62299254805514	
1412.0	-0.8117830934254455	1503.0	6.916928752693549	7.491666527252146	2156.0	0.0	3757.01904296875	57574.0	0.515	727.0	-122.0	0.582995951417004	0.46153846153846156	-421.0	-1519.0	13.014222358158742	113.0	-2.6338964615323155	-990.0	22.13109543771704	
1363.0	-0.7733312421421793	1480.0	7.190685309591593	8.087887622686074	2153.0	0.0	3776.55029296875	58214.0	0.51	725.0	-126.0	0.5748987854251012	0.5101214574898786	-445.0	-1339.0	10.964979354641384	314.0	-5.615840502245103	-856.0	19.33926893884743	
1367.0	-0.6206679544322928	1497.0	6.980823604389776	8.037024250374797	2140.0	0.0	3796.08154296875	58854.0	0.51	725.0	-126.0	0.5748987854251012	0.5101214574898786	-445.0	-1413.0	2.1562930111637866	290.0	-4.905745002728076	-280.0	20.481861684543844	
1369.0	-0.2558367549966982	1531.0	6.559181643187319	8.008143337602936	2109.0	0.0	3815.61279296875	59494.0	0.51	725.0	-126.0	0.5748987854251012	0.5101214574898786	-445.0	-1516.0	-5.750114696436764	245.0	-3.913191568119971	237.0	22.07226903567679	
1379.0	-0.49448162345209457	1536.0	6.504218607171486	7.884175700487222	2129.0	0.0	3835.14404296875	60134.0	0.4925	718.0	-126.0	0.5748987854251012	0.5060728744939271	-443.0	-1379.0	-4.92430035173574	327.0	-5.186419285077215	183.0	19.957342497344104	
1363.0	-0.5772079711975215	1531.0	6.564917165962136	8.07733349252293	2136.0	0.0	3854.67529296875	60774.0	0.4925	718.0	-126.0	0.5748987854251012	0.5060728744939271	-443.0	-1024.0	-2.1410001529285827	454.0	-7.196622964043205	1.0	14.489948761920104	
1392.0	-0.4702955200561317	1533.0	6.541876565815398	7.728544214669963	2127.0	0.0	3874.20654296875	61414.0	0.4925	718.0	-126.0	0.5748987854251012	0.5060728744939271	-443.0	-973.0	-2.4162716011622574	372.0	-5.9165700161904695	19.0	13.72018062483426	
1396.0	-0.3416807770331358	1552.0	6.308112772876896	7.676962315157085	2116.0	0.0	3893.73779296875	62054.0	0.4925	718.0	-126.0	0.5748987854251012	0.5060728744939271	-443.0	-1146.0	-0.9940357852882705	252.0	-4.154311765204649	-74.0	16.39239888019973	
1362.0	-0.34159982213196066	1551.0	6.31620826299441	8.086763588725315	2116.0	0.0	3913.26904296875	62694.0	0.485	715.0	-125.0	0.576923076923077	0.52834008097166	-454.0	-1229.0	1.2234286588163328	209.0	-3.5943655569800597	-219.0	17.67159048590634	
1367.0	-0.4011056504841202	1551.0	6.318006380159409	8.025963528929672	2121.0	0.0	3932.80029296875	63334.0	0.485	715.0	-125.0	0.576923076923077	0.52834008097166	-454.0	-1274.0	4.343171738797982	165.0	-3.0492958538651678	-423.0	18.367542947553112	
1361.0	-0.37852715985536123	1561.0	6.194903062082927	8.096016404100936	2119.0	0.0	3952.33154296875	63974.0	0.485	715.0	-125.0	0.576923076923077	0.52834008097166	-454.0	-1294.0	3.211500229392874	76.0	-1.6382188471752182	-349.0	18.688543390782506	
1351.0	-0.2840516571846336	1567.0	6.118643805346167	8.215917901703753	2111.0	0.0	3971.86279296875	64614.0	0.465	707.0	-124.0	0.5789473684210527	0.5080971659919028	-444.0	-1235.0	1.5598715399908245	19.0	-0.6864074489478088	-241.0	17.79273696893541	
1367.0	-0.6759572816699102	1560.0	6.213795642532794	8.021130797865283	2144.0	0.0	3991.39404296875	65254.0	0.465	707.0	-124.0	0.5789473684210527	0.5080971659919028	-444.0	-1178.0	7.371157669368405	-73.0	0.5049352246952546	-621.0	16.930014827158725	
1357.0	-0.6519207803464019	1558.0	6.236493393931243	8.142307045617327	2142.0	0.0	4010.92529296875	358.0	0.465	707.0	-124.0	0.5789473684210527	0.5080971659919028	-444.0	-1065.0	12.93775806698272	-142.0	1.3609000518919436	-985.0	15.204647822062576	
1336.0	-0.7361159778136221	1565.0	6.150306980542546	8.392753413567654	2149.0	0.0	4030.45654296875	998.0	0.47500000000000003	711.0	-125.0	0.576923076923077	0.5445344129554656	-462.0	-947.0	10.597950756996484	-192.0	2.241623206931824	-832.0	13.402805981954234	
1332.0	-0.6786812848486026	1582.0	5.941395324663551	8.43734229846406	2144.0	0.0	4049.98779296875	1638.0	0.47500000000000003	711.0	-125.0	0.576923076923077	0.5445344129554656	-462.0	-766.0	9.03807921700566	-191.0	2.316401857202849	-730.0	10.626202226336337	
1328.0	-0.45266297440199804	1583.0	5.924178750276388	8.48745092116512	2125.0	0.0	4069.51904296875	2278.0	0.47500000000000003	711.0	-125.0	0.576923076923077	0.5445344129554656	-462.0	-427.0	10.567365040526076	-109.0	1.0460308524110247	-830.0	5.411718556184077	
1335.0	-0.8451889495976947	1581.0	5.957295516421008	8.399850647338466	2158.0	0.0	4089.05029296875	2918.0	0.47500000000000003	711.0	-125.0	0.576923076923077	0.5445344129554656	-462.0	-291.0	11.928429423459246	-145.0	1.5661657212341957	-919.0	3.3300701273673217	
1337.0	-0.7617480485409521	1580.0	5.968052288761941	8.376803806253683	2151.0	0.0	4108.58154296875	3558.0	0.465	707.0	-121.0	0.5850202429149798	0.5728744939271255	-476.0	-225.0	8.732222052301577	-196.0	2.4885438306080623	-710.0	2.3265579870248163	
1333.0	-0.7507038122362611	1587.0	5.881999728754837	8.423385968500925	2150.0	0.0	4128.11279296875	4198.0	0.465	707.0	-121.0	0.5850202429149798	0.5728744939271255	-476.0	-261.0	8.885150634653618	-258.0	3.430507907646143	-720.0	2.8883790394876936	
1313.0	-0.870848720060804	1596.0	5.772270851062458	8.66095379729052	2160.0	0.0	4147.64404296875	4838.0	0.465	707.0	-121.0	0.5850202429149798	0.5728744939271255	-476.0	-217.0	10.353265025233217	-293.0	3.9168649800928326	-816.0	2.2180853292546647	
1317.0	-0.9648438394028602	1586.0	5.896568440666351	8.61430702680484	2168.0	0.0	4167.17529296875	5478.0	0.47000000000000003	709.0	-133.0	0.5607287449392713	0.5688259109311741	-474.0	-159.0	13.411836672274049	-237.0	2.942113452337618	-1016.0	1.3183577618058684	
1291.0	-0.9977785084244357	1563.0	6.174530109937397	8.932789925548239	2171.0	0.0	4186.70654296875	6118.0	0.47000000000000003	709.0	-133.0	0.5607287449392713	0.5688259109311741	-474.0	-109.0	13.870622419330175	-176.0	1.9932119724604191	-1046.0	0.541644564100851	
1260.0	-1.0575714975581219	1565.0	6.1476121489497055	9.305147612340763	2176.0	0.0	4206.23779296875	6758.0	0.47000000000000003	709.0	-133.0	0.5607287449392713	0.5688259109311741	-474.0	-90.0	10.781465055818934	-240.0	3.104046564063117	-844.0	0.26120772051250474	
1242.0	-0.9390570848912095	1569.0	6.094291510879041	9.522133813585535	2166.0	0.0	4225.76904296875	7398.0	0.47000000000000003	709.0	-133.0	0.5607287449392713	0.5688259109311741	-474.0	-153.0	11.270836519345467	-381.0	5.24348782944586	-876.0	1.2493046036282014	
1223.0	-1.0709812560495091	1577.0	5.99711249028718	9.74778665411272	2177.0	0.0	4245.30029296875	8038.0	0.47250000000000003	710.0	-129.0	0.5688259109311741	0.5465587044534413	-463.0	-203.0	15.246979660498548	-375.0	4.984502267218175	-1136.0	2.0139389309121696	
1176.0	-1.141598763541301	1570.0	6.078218883965157	10.314967667152324	2183.0	0.0	4264.83154296875	8678.0	0.47250000000000003	710.0	-129.0	0.5688259109311741	0.5465587044534413	-463.0	-271.0	18.534944181067445	-319.0	3.9812438258039657	-1351.0	3.047331235250521	
1150.0	-1.402019388394936	1558.0	6.226632589077844	10.628584747054234	2205.0	0.0	4284.36279296875	9318.0	0.47250000000000003	710.0	-129.0	0.5688259109311741	0.5465587044534413	-463.0	-647.0	21.42529438752103	-308.0	3.638764069234273	-1540.0	8.813432293139787	
1158.0	-1.868396426028419	1576.0	6.017500254300968	10.523352787813687	2244.0	0.0	4303.89404296875	9958.0	0.4825	714.0	-133.0	0.5607287449392713	0.5344129554655871	-457.0	-1074.0	19.116072794005202	-273.0	3.127284424751618	-1389.0	15.360412018714298	
1158.0	-1.7747621963510352	1589.0	5.8571136982298135	10.521081398989036	2236.0	0.0	4323.42529296875	10598.0	0.4825	714.0	-133.0	0.5607287449392713	0.5344129554655871	-457.0	-1244.0	10.689707906407708	-92.0	0.654313646968045	-838.0	17.944244532817695	
1162.0	-1.8560016293295951	1572.0	6.066503733707163	10.476264034284462	2243.0	0.0	4342.95654296875	11238.0	0.4825	714.0	-133.0	0.5607287449392713	0.5344129554655871	-457.0	-1405.0	8.258143447010246	141.0	-2.8568412680095006	-679.0	20.37959485262603	
1158.0	-2.0684205717466826	1557.0	6.2531809205698226	10.52606615968188	2261.0	0.0	4362.48779296875	11878.0	0.47250000000000003	710.0	-138.0	0.5506072874493927	0.548582995951417	-464.0	-1646.0	4.389050313503594	366.0	-6.199729458543327	-426.0	24.044186532328794	
1154.0	-2.079596345078755	1551.0	6.3260797778388165	10.575605150178276	2262.0	0.0	4382.01904296875	12518.0	0.47250000000000003	710.0	-138.0	0.5506072874493927	0.548582995951417	-464.0	-1895.0	-1.1928429423459246	508.0	-8.198740933110368	-61.0	27.844972848456226	
