Device	Device	Device	Device	Device	Device	Device	Device	Device	Device	Device	Device	Device	Device	Device	Device	Device	Device	Device	Device	Device	
Low Noise Accelerometer X	Low Noise Accelerometer X	Low Noise Accelerometer Z	Low Noise Accelerometer Z	Low Noise Accelerometer Y	Low Noise Accelerometer Y	Event_Marker	Timestamp	Timestamp	Magnetometer Z	Magnetometer Z	Magnetometer X	Magnetometer X	Magnetometer Y	Magnetometer Y	Gyroscope Y	Gyroscope Y	Gyroscope Z	Gyroscope Z	Gyroscope X	Gyroscope X	
CAL	UNCAL	UNCAL	CAL	CAL	UNCAL	CAL	CAL	UNCAL	CAL	UNCAL	UNCAL	CAL	CAL	UNCAL	CAL	UNCAL	UNCAL	CAL	CAL	UNCAL	
m/(s^2)	no units	no units	m/(s^2)	m/(s^2)	no units	no units	ms	no units	local_flux	no units	no units	local_flux	local_flux	no units	deg/s	no units	no units	deg/s	deg/s	no units	
0.15328068632757513	2486.0	1408.0	8.185211489900372	-5.413076216350764	2076.0	0.0	1024.0478515625	33556.0	0.40750000000000003	684.0	-764.0	-0.7165991902834008	-0.5931174089068826	100.0	10.674415048172504	-22.0	268.0	-4.6946397515837095	-0.8602040313964571	-837.0	
-1.0443952670164185	2447.0	1371.0	8.655711393596246	-4.945763459737997	2177.0	0.0	1043.5791015625	34196.0	0.40750000000000003	684.0	-764.0	-0.7165991902834008	-0.5931174089068826	100.0	17.770301269307236	-42.0	50.0	-1.6285204522071046	-0.5226531652401929	-1301.0	
-1.6145890239208822	2466.0	1362.0	8.779192846007023	-5.17791143090943	2225.0	0.0	1063.1103515625	34836.0	0.41000000000000003	685.0	-763.0	-0.7145748987854251	-0.5809716599190283	94.0	5.260743232910231	63.0	-140.0	1.8102569874553618	-2.099436174946683	-483.0	
-1.1891633054574193	2456.0	1387.0	8.46462183521047	-5.059466666229882	2189.0	0.0	1082.6416015625	35476.0	0.41000000000000003	685.0	-763.0	-0.7145748987854251	-0.5809716599190283	94.0	-10.169750726410767	-166.0	-283.0	4.591721322342142	1.4422652261127877	526.0	
-0.5269882579109201	2445.0	1325.0	9.205936113669885	-4.905488509703301	2134.0	0.0	1102.1728515625	36116.0	0.41000000000000003	685.0	-763.0	-0.7145748987854251	-0.5809716599190283	94.0	-8.625172044655146	0.0	-369.0	5.878154778690448	-1.0920547265724634	425.0	
-1.3840711660443399	2453.0	1326.0	9.211931014613645	-5.010324982934435	2206.0	0.0	1121.7041015625	36756.0	0.4175	688.0	-769.0	-0.7267206477732794	-0.5809716599190283	94.0	-2.8597644899831782	-6.0	-517.0	7.92298615929449	-0.9795395108176737	48.0	
-1.1840939894432672	2414.0	1345.0	8.971553436625667	-4.543253244655895	2189.0	0.0	1141.2353515625	37396.0	0.4175	688.0	-769.0	-0.7267206477732794	-0.5809716599190283	94.0	-15.10934393638171	29.0	-398.0	6.587985789178139	-1.5299464425532088	849.0	
-0.3251717072326756	2415.0	1329.0	9.149495943399103	-4.543153364469404	2117.0	0.0	1160.7666015625	38036.0	0.4175	688.0	-769.0	-0.7267206477732794	-0.5809716599190283	94.0	-8.686343477595964	413.0	-242.0	3.990617498876174	-7.448201850176192	429.0	
-2.110752947876474	2430.0	1331.0	9.162800450447858	-4.741465978301132	2267.0	0.0	1180.2978515625	38676.0	0.4175	688.0	-769.0	-0.7267206477732794	-0.5809716599190283	94.0	1.3763572411683744	704.0	-296.0	4.463356083490778	-11.908719208844394	-229.0	
-1.6316293571130835	2451.0	1404.0	8.265635717263054	-5.007630085249966	2226.0	0.0	1199.8291015625	39316.0	0.40750000000000003	684.0	-761.0	-0.7105263157894737	-0.562753036437247	85.0	-15.32344395167457	689.0	-203.0	3.6985737905998795	-11.686199776901429	863.0	
-0.1803029430519717	2425.0	1410.0	8.160181885279023	-4.6819728857008425	2104.0	0.0	1219.3603515625	39956.0	0.40750000000000003	684.0	-761.0	-0.7105263157894737	-0.562753036437247	85.0	-13.258908089922008	808.0	150.0	-1.7951321940483846	-13.567130392064778	728.0	
-0.5406589461509064	2495.0	1340.0	9.029343480147462	-5.511566707810366	2135.0	0.0	1238.8916015625	40596.0	0.40750000000000003	684.0	-761.0	-0.7105263157894737	-0.562753036437247	85.0	11.974307998164859	785.0	239.0	-4.176772055573115	-13.238023666543151	-922.0	
-2.043055074783195	2482.0	1362.0	8.789730616918547	-5.374756420337172	2261.0	0.0	1258.4228515625	41236.0	0.405	683.0	-765.0	-0.7186234817813765	-0.5789473684210527	93.0	10.58265789876128	402.0	302.0	-5.148859894965229	-7.370807303875233	-831.0	
-1.0849893095307808	2438.0	1411.0	8.167735713588607	-4.847495178823535	2180.0	0.0	1277.9541015625	41876.0	0.405	683.0	-765.0	-0.7186234817813765	-0.5789473684210527	93.0	0.565835754702554	350.0	603.0	-9.385799361079366	-6.615263548313878	-176.0	
-0.41805475205147996	2468.0	1408.0	8.194524794852004	-5.201735834756005	2124.0	0.0	1297.4853515625	42516.0	0.405	683.0	-765.0	-0.7186234817813765	-0.5789473684210527	93.0	8.915736351124027	713.0	646.0	-10.325437647474432	-12.19470749907717	-722.0	
-1.8336993471553846	2473.0	1402.0	8.296731951128208	-5.2740891014369415	2243.0	0.0	1317.0166015625	43156.0	0.405	683.0	-765.0	-0.7186234817813765	-0.5789473684210527	93.0	13.320079522862825	713.0	405.0	-6.794842452629812	-12.159401547128724	-1010.0	
-1.6442258067134197	2482.0	1410.0	8.196466947705652	-5.3826334010407315	2227.0	0.0	1336.5478515625	43796.0	0.39	677.0	-776.0	-0.7408906882591093	-0.6133603238866396	110.0	0.2752714482336749	728.0	319.0	-4.948059731276384	-12.371100974787062	-157.0	
-0.8467826726322172	2469.0	1410.0	8.178875593921136	-5.218384290751514	2160.0	0.0	1356.0791015625	44436.0	0.39	677.0	-776.0	-0.7408906882591093	-0.6133603238866396	110.0	-5.826578987612786	755.0	339.0	-5.007481738749824	-12.78599625363117	242.0	
-1.0035448750082072	2503.0	1427.0	7.9788458325126115	-5.633591062220312	2173.0	0.0	1375.6103515625	45076.0	0.39	677.0	-776.0	-0.7408906882591093	-0.6133603238866396	110.0	-4.4655146046796155	777.0	181.0	-2.628391112928607	-13.099783987851705	153.0	
-1.5058800533533805	2505.0	1447.0	7.745327997995284	-5.667381156236278	2215.0	0.0	1395.1416015625	45716.0	0.375	671.0	-757.0	-0.7024291497975709	-0.6255060728744939	116.0	-4.312586022327573	619.0	89.0	-1.2437241097024485	-10.66150889983571	143.0	
-0.7486243073410145	2517.0	1484.0	7.280426408755692	-5.813684943813959	2151.0	0.0	1414.6728515625	46356.0	0.375	671.0	-757.0	-0.7024291497975709	-0.6255060728744939	116.0	-6.713564765254627	462.0	164.0	-2.3253363044681676	-8.263241087457756	300.0	
-0.36861503118081695	2506.0	1491.0	7.186115929537359	-5.679240940154796	2119.0	0.0	1434.2041015625	46996.0	0.375	671.0	-757.0	-0.7024291497975709	-0.6255060728744939	116.0	2.7068359076311364	277.0	167.0	-2.776641242311706	-5.429024660083084	-316.0	
-0.8792039397868723	2501.0	1481.0	7.317701259408008	-5.621474158788022	2162.0	0.0	1453.7353515625	47636.0	0.39	677.0	-766.0	-0.7206477732793523	-0.631578947368421	119.0	8.931029209359231	-88.0	-162.0	1.9786680124364482	0.21926496767998827	-723.0	
-1.1954456231566317	2503.0	1439.0	7.836390065289205	-5.638359185046264	2189.0	0.0	1473.2666015625	48276.0	0.39	677.0	-766.0	-0.7206477732793523	-0.631578947368421	119.0	5.872457562318398	-448.0	-507.0	7.352109258275747	5.797013497063348	-523.0	
-1.9821087993242439	2495.0	1448.0	7.741501019956578	-5.5517380555459175	2255.0	0.0	1492.7978515625	48916.0	0.39	677.0	-766.0	-0.7206477732793523	-0.631578947368421	119.0	-0.24468573176326658	-559.0	-633.0	9.517709412646214	7.521907184658915	-123.0	
-1.1616188346489933	2460.0	1454.0	7.647640344624476	-5.123723622417856	2186.0	0.0	1512.3291015625	49556.0	0.39	677.0	-766.0	-0.7206477732793523	-0.631578947368421	119.0	-15.246979660498548	-738.0	-720.0	11.428399128052506	10.287676656617338	858.0	
-0.924899112517297	2471.0	1465.0	7.510088748270304	-5.25663757760555	2166.0	0.0	1531.8603515625	50196.0	0.3875	676.0	-769.0	-0.7267206477732794	-0.6275303643724697	117.0	-9.787429270530662	-567.0	-772.0	12.036072354195491	7.669846683339408	501.0	
-0.7585265978046006	2457.0	1467.0	7.4806735528732675	-5.086887457571183	2152.0	0.0	1551.3916015625	50836.0	0.3875	676.0	-769.0	-0.7267206477732794	-0.6275303643724697	117.0	-7.080593362899527	-565.0	-870.0	13.435426262881663	7.65315125511002	324.0	
-1.652143938372732	2450.0	1377.0	8.595129972250591	-4.989197153191728	2228.0	0.0	1570.9228515625	51476.0	0.3875	676.0	-769.0	-0.7267206477732794	-0.6275303643724697	117.0	2.27863587704542	-755.0	-877.0	13.139607898363387	10.56564496650857	-288.0	
-1.760492722154783	2443.0	1387.0	8.474537308331223	-4.908355144910344	2237.0	0.0	1590.4541015625	52116.0	0.395	679.0	-773.0	-0.7348178137651822	-0.597165991902834	102.0	-0.382321455880104	-803.0	-836.0	12.608061789859095	11.296864721013522	-114.0	
-0.8236332090829059	2431.0	1415.0	8.112869567899889	-4.76164159133524	2158.0	0.0	1609.9853515625	52756.0	0.395	679.0	-773.0	-0.7348178137651822	-0.597165991902834	102.0	-1.819850129989295	-892.0	-720.0	10.867739507960632	12.645120543767653	-20.0	
-0.6758640798851003	2420.0	1472.0	7.413592011489963	-4.641619330689534	2145.0	0.0	1629.5166015625	53396.0	0.395	679.0	-773.0	-0.7348178137651822	-0.597165991902834	102.0	16.13396543814039	-1010.0	-579.0	7.96287378833586	14.426720958230145	-1194.0	
-0.8833170421225214	2426.0	1514.0	6.906391025843111	-4.726127036651351	2162.0	0.0	1649.0478515625	54036.0	0.395	679.0	-773.0	-0.7348178137651822	-0.597165991902834	102.0	30.708059336289956	-1077.0	-612.0	7.877252003735364	15.45394514547851	-2147.0	
-0.5523945260655653	2403.0	1533.0	6.665309298205372	-4.450531012308596	2134.0	0.0	1668.5791015625	54676.0	0.405	683.0	-781.0	-0.7510121457489879	-0.5870445344129555	97.0	39.91435999388286	-1517.0	-812.0	10.517669984495212	22.231922134861065	-2749.0	
0.17181307894291786	2396.0	1548.0	6.467022180006073	-4.362917329224906	2073.0	0.0	1688.1103515625	55316.0	0.405	683.0	-781.0	-0.7510121457489879	-0.5870445344129555	97.0	55.19192537085182	-1700.0	-1008.0	12.893170195719206	25.063717646410165	-3748.0	
-1.6660248840147933	2362.0	1490.0	7.2070354080444785	-3.9568568900768484	2228.0	0.0	1707.6416015625	55956.0	0.405	683.0	-781.0	-0.7510121457489879	-0.5870445344129555	97.0	87.68924912066066	-2024.0	-1562.0	20.064609856880384	30.107044748254246	-5873.0	
-4.425915510554379	2359.0	1478.0	7.408448944562123	-3.944282947298639	2460.0	0.0	1727.1728515625	56596.0	0.34750000000000003	660.0	-802.0	-0.7935222672064778	-0.5789473684210527	93.0	86.80226334301882	-1404.0	-1729.0	22.763790732338308	20.62045668897138	-5815.0	
-3.4324999119373114	2322.0	1530.0	6.750008806268863	-3.501734461548213	2376.0	0.0	1746.7041015625	57236.0	0.34750000000000003	660.0	-802.0	-0.7935222672064778	-0.5789473684210527	93.0	45.9244532803181	-1113.0	-2192.0	31.564656729348144	16.243220604427133	-3142.0	
-1.2620315958728534	2334.0	1593.0	5.939697555571807	-3.640814316654521	2193.0	0.0	1766.2353515625	57876.0	0.34750000000000003	660.0	-802.0	-0.7935222672064778	-0.5789473684210527	93.0	26.731916195136872	-357.0	-2186.0	32.35598988258677	4.650704290417091	-1887.0	
-0.24587154530295346	2291.0	1556.0	6.365226422085605	-3.10406984966192	2108.0	0.0	1785.7666015625	58516.0	0.325	651.0	-819.0	-0.8279352226720648	-0.4939271255060729	51.0	28.796452056889436	-397.0	-2580.0	38.32727958628911	5.324196533779111	-2022.0	
-4.223515943592199	2307.0	1477.0	7.410310402684814	-3.3157156983701777	2443.0	0.0	1805.2978515625	59156.0	0.325	651.0	-819.0	-0.8279352226720648	-0.4939271255060729	51.0	72.87046949074782	351.0	-2784.0	39.816925434609246	-6.138580784015118	-4904.0	
-5.394508232869036	2367.0	1515.0	6.9777481416677904	-4.058968432748347	2541.0	0.0	1824.8291015625	59796.0	0.325	651.0	-819.0	-0.8279352226720648	-0.4939271255060729	51.0	59.85624713258909	1525.0	-2455.0	35.457314645066035	-24.19660070654919	-4053.0	
-3.3283526757766277	2383.0	1555.0	6.450446708051549	-4.2416239901870965	2367.0	0.0	1844.3603515625	60436.0	0.325	651.0	-819.0	-0.8279352226720648	-0.4939271255060729	51.0	13.947086710506195	1338.0	-2528.0	38.38759801776084	-21.297879428752886	-1051.0	
-1.9688893259742977	2374.0	1436.0	7.872972164474962	-4.091145112620847	2254.0	0.0	1863.8916015625	61076.0	0.28250000000000003	634.0	-835.0	-0.8603238866396761	-0.45546558704453444	32.0	1.3610643829331703	809.0	-2306.0	35.39530656903444	-13.210570488092072	-228.0	
-3.647228538556828	2388.0	1437.0	7.896193763364826	-4.276138771564055	2395.0	0.0	1883.4228515625	61716.0	0.28250000000000003	634.0	-835.0	-0.8603238866396761	-0.45546558704453444	32.0	51.460467961462	1246.0	-2007.0	28.85974695888901	-19.981465442794107	-3504.0	
-4.324830284846633	2408.0	1528.0	6.802685801050956	-4.5457488036949165	2451.0	0.0	1902.9541015625	62356.0	0.28250000000000003	634.0	-835.0	-0.8603238866396761	-0.45546558704453444	32.0	59.45863281847378	1264.0	-1679.0	23.497740938058964	-20.311286208848657	-4027.0	
-2.882253640747472	2368.0	1508.0	7.012731163348058	-4.045194419164609	2330.0	0.0	1922.4853515625	62996.0	0.23750000000000002	616.0	-851.0	-0.8927125506072875	-0.43724696356275305	23.0	34.347759596268546	479.0	-1666.0	24.181684040418425	-8.259027106197014	-2385.0	
-2.7144067560884073	2327.0	1400.0	8.321229153064031	-3.523370086909242	2317.0	0.0	1942.0166015625	63636.0	0.23750000000000002	616.0	-851.0	-0.8927125506072875	-0.43724696356275305	23.0	44.79278177091299	327.0	-1516.0	21.43349702425587	-5.954147460323654	-3068.0	
-5.686655606771052	2407.0	1471.0	7.524915513370973	-4.532874269896677	2566.0	0.0	1961.5478515625	64276.0	0.23750000000000002	616.0	-851.0	-0.8927125506072875	-0.43724696356275305	23.0	89.49380639241475	1614.0	-1172.0	14.55213406400518	-25.77131155793291	-5991.0	
-7.142871361998893	2422.0	1505.0	7.141435228682189	-4.735828924708995	2688.0	0.0	1981.0791015625	64916.0	0.23750000000000002	616.0	-851.0	-0.8927125506072875	-0.43724696356275305	23.0	62.56308304022022	1506.0	-1446.0	19.82699966361385	-24.061358666859334	-4230.0	
-5.38208814510711	2392.0	1511.0	7.029280727384282	-4.3590183994335066	2540.0	0.0	2000.6103515625	20.0	0.1575	584.0	-862.0	-0.9149797570850202	-0.4352226720647773	22.0	-8.27343630524545	1199.0	-1433.0	22.413125024563712	-19.324740930205493	402.0	
-4.305254089311017	2403.0	1465.0	7.569829164136347	-4.4699692106224305	2450.0	0.0	2020.1416015625	660.0	0.1575	584.0	-862.0	-0.9149797570850202	-0.4352226720647773	22.0	-38.33919559565683	1403.0	-1395.0	23.062467750948198	-22.44852216919913	2368.0	
-5.194003968188615	2462.0	1531.0	6.790079371614743	-5.205295078755615	2524.0	0.0	2039.6728515625	1300.0	0.1575	584.0	-862.0	-0.9149797570850202	-0.4352226720647773	22.0	-16.806851200489373	2019.0	-1402.0	22.403437639680185	-31.90731440371675	960.0	
-4.899938938347441	2496.0	1560.0	6.4346775938272955	-5.619101018229819	2499.0	0.0	2059.2041015625	1940.0	0.18	593.0	-864.0	-0.9190283400809717	-0.4291497975708502	19.0	-17.67854411989601	1590.0	-1179.0	18.94258210580899	-25.359139469719878	1017.0	
-3.2106205236224854	2424.0	1566.0	6.318900018703851	-4.7370535060669665	2357.0	0.0	2078.7353515625	2580.0	0.18	593.0	-864.0	-0.9190283400809717	-0.4291497975708502	19.0	-42.72824590916043	405.0	-906.0	15.56372198649588	-7.209714936034996	2655.0	
-3.079828399248071	2414.0	1567.0	6.302874360907157	-4.6155841702683125	2346.0	0.0	2098.2666015625	3220.0	0.18	593.0	-864.0	-0.9190283400809717	-0.4291497975708502	19.0	-27.771830555130755	465.0	-253.0	4.931126800282307	-8.236709907384625	1677.0	
-2.9946375093696997	2452.0	1552.0	6.4886300154110055	-5.068848473580658	2339.0	0.0	2117.7978515625	3860.0	0.21	605.0	-866.0	-0.9230769230769231	-0.4433198380566802	26.0	-10.58265789876128	671.0	-128.0	2.352646267818142	-11.423458346282999	553.0	
-2.952993314942452	2422.0	1503.0	7.0816208867071895	-4.695126431077932	2336.0	0.0	2137.3291015625	4500.0	0.21	605.0	-866.0	-0.9230769230769231	-0.4433198380566802	26.0	-0.36702859764489987	-46.0	-287.0	4.279586026649974	-0.40219416581912254	-115.0	
-3.1869538437751337	2374.0	1469.0	7.495091812962818	-4.110883364829097	2356.0	0.0	2156.8603515625	5140.0	0.21	605.0	-866.0	-0.9230769230769231	-0.4433198380566802	26.0	13.33537238109803	-688.0	-601.0	8.462586252215642	9.490794344952723	-1011.0	
-3.7701278223350325	2409.0	1469.0	7.5110272903062825	-4.538083142055778	2405.0	0.0	2176.3916015625	5780.0	0.21	605.0	-866.0	-0.9230769230769231	-0.4433198380566802	26.0	18.82550848753632	-325.0	-384.0	4.961083425920964	3.8857317487904357	-1370.0	
-4.824693695040832	2438.0	1528.0	6.816344781631068	-4.911920041317787	2493.0	0.0	2195.9228515625	6420.0	0.1925	598.0	-867.0	-0.9251012145748988	-0.43724696356275305	23.0	20.584187184584803	-62.0	-636.0	8.807034393929404	-0.11140794361632975	-1485.0	
-4.533792605728639	2440.0	1485.0	7.335025141421795	-4.922733808771019	2469.0	0.0	2215.4541015625	7060.0	0.1925	598.0	-867.0	-0.9251012145748988	-0.43724696356275305	23.0	-6.163021868787277	-423.0	-914.0	14.097265336934932	5.480852966396816	264.0	
-3.9787509316064535	2419.0	1423.0	8.077287791735559	-4.649326090830751	2423.0	0.0	2234.9853515625	7700.0	0.1925	598.0	-867.0	-0.9251012145748988	-0.43724696356275305	23.0	-21.792322985165928	-882.0	-1081.0	17.220529438948503	12.555203606496283	1286.0	
-4.517713039193781	2467.0	1451.0	7.752505604431499	-5.239524608664754	2468.0	0.0	2254.5166015625	8340.0	0.2125	606.0	-877.0	-0.9453441295546559	-0.3967611336032389	3.0	-13.687108120507725	-863.0	-1087.0	16.99155268724111	12.261368649474836	756.0	
-4.83284746538564	2514.0	1498.0	7.191443937626409	-5.820162246503738	2494.0	0.0	2274.0478515625	8980.0	0.2125	606.0	-877.0	-0.9453441295546559	-0.3967611336032389	3.0	-10.047407860529134	-755.0	-836.0	13.001991205259415	10.56426879957753	518.0	
-4.329884445945505	2426.0	1472.0	7.487745881640012	-4.748965613573643	2452.0	0.0	2293.5791015625	9620.0	0.2125	606.0	-877.0	-0.9453441295546559	-0.3967611336032389	3.0	-19.51368710812051	-1723.0	-654.0	10.432795395902131	25.392037022548863	1137.0	
-4.309993125526069	2379.0	1406.0	8.286401733107366	-4.166528523099137	2451.0	0.0	2313.1103515625	10260.0	0.2125	606.0	-877.0	-0.9453441295546559	-0.3967611336032389	3.0	-14.55880103991436	-2186.0	-534.0	8.317896617540168	32.475383968477075	813.0	
-4.495185632148344	2382.0	1363.0	8.814770118498968	-4.193957658770781	2467.0	0.0	2332.6416015625	10900.0	0.2425	618.0	-873.0	-0.937246963562753	-0.3825910931174089	-4.0	-7.860529132894939	-1880.0	-277.0	4.144099277597	27.738233995691427	375.0	
-4.197260674969065	2382.0	1360.0	8.845361074522119	-4.190366590078525	2442.0	0.0	2352.1728515625	11540.0	0.2425	618.0	-873.0	-0.937246963562753	-0.3825910931174089	-4.0	-8.625172044655146	-1894.0	-312.0	4.7108588013704376	27.958724362142906	425.0	
-3.744970614711799	2382.0	1360.0	8.83627186215342	-4.186025473723326	2404.0	0.0	2371.7041015625	12180.0	0.2425	618.0	-873.0	-0.937246963562753	-0.3825910931174089	-4.0	-11.882550848753633	-1668.0	-55.0	0.9229733117604525	24.452992200510582	638.0	
-4.268470833435497	2349.0	1358.0	8.867202370736031	-3.7930515042931283	2448.0	0.0	2391.2353515625	12820.0	0.245	619.0	-872.0	-0.9352226720647774	-0.38461538461538464	-3.0	0.33644288117449156	-1677.0	30.0	-0.8744788509565232	24.573118031806533	-161.0	
-4.4025603425818325	2354.0	1384.0	8.553489551340599	-3.8609076196279215	2459.0	0.0	2410.7666015625	13460.0	0.245	619.0	-872.0	-0.9352226720647774	-0.38461538461538464	-3.0	0.764642911760208	-1275.0	134.0	-2.4295204077364554	18.38908518567252	-189.0	
-3.9508894286986482	2346.0	1389.0	8.482485701563718	-3.761425445315953	2421.0	0.0	2430.2978515625	14100.0	0.245	619.0	-872.0	-0.9352226720647774	-0.38461538461538464	-3.0	-12.02018657287047	-1000.0	184.0	-2.6450207924922564	14.167197175840615	647.0	
-3.5588486541769764	2341.0	1395.0	8.40084886801667	-3.6988968103862554	2388.0	0.0	2449.8291015625	14740.0	0.2775	632.0	-868.0	-0.9271255060728745	-0.340080971659919	-25.0	-22.939287352806243	-838.0	87.0	-0.6915159064329346	11.700925872084975	1361.0	
-3.5371246842412822	2334.0	1412.0	8.192293480633731	-3.6185133290369667	2386.0	0.0	2469.3603515625	15380.0	0.2775	632.0	-868.0	-0.9271255060728745	-0.340080971659919	-25.0	-23.85685884691849	-759.0	-191.0	3.633141819619642	10.531958240353632	1421.0	
-3.3356148280924893	2353.0	1419.0	8.105183857417753	-3.8471560855904015	2369.0	0.0	2488.8916015625	16020.0	0.2775	632.0	-868.0	-0.9271255060728745	-0.340080971659919	-25.0	-31.289187949227713	-522.0	-209.0	4.243620842005694	6.9014204036018905	1907.0	
-3.4812205265178187	2375.0	1442.0	7.8303283005990565	-4.119169494674884	2381.0	0.0	2508.4228515625	16660.0	0.2775	632.0	-868.0	-0.9271255060728745	-0.340080971659919	-25.0	-39.302645664474696	-414.0	-176.0	4.073134028449734	5.24251130038884	2431.0	
-2.578210684344007	2387.0	1455.0	7.655122041789801	-4.258221834682343	2305.0	0.0	2527.9541015625	17300.0	0.315	647.0	-853.0	-0.8967611336032388	-0.32186234817813764	-34.0	-46.96436764031198	-340.0	45.0	0.9917889563595298	4.076206058966696	2932.0	
-2.39794923214759	2403.0	1441.0	7.8241244042886	-4.445810257247752	2290.0	0.0	2547.4853515625	17940.0	0.315	647.0	-853.0	-0.8967611336032388	-0.32186234817813764	-34.0	-43.79874598562472	-476.0	83.0	0.2598433293377873	6.155736380201465	2725.0	
-2.4207932055037875	2391.0	1433.0	7.920679449621219	-4.29952928282165	2292.0	0.0	2567.0166015625	18580.0	0.315	647.0	-853.0	-0.8967611336032388	-0.32186234817813764	-34.0	-27.48126624866188	-795.0	-31.0	1.3116664275457475	11.06114489812539	1658.0	
-2.4644813370395124	2408.0	1401.0	8.313771057953529	-4.496923609078794	2296.0	0.0	2586.5478515625	19220.0	0.35000000000000003	661.0	-855.0	-0.9008097165991903	-0.32793522267206476	-31.0	-17.617372686955193	-979.0	-105.0	2.02709171009251	13.891684144045838	1013.0	
-3.2952103951162566	2407.0	1381.0	8.57419858361242	-4.4879741563753	2366.0	0.0	2606.0791015625	19860.0	0.35000000000000003	661.0	-855.0	-0.9008097165991903	-0.32793522267206476	-31.0	-8.808686343477596	-1246.0	-232.0	3.5871640861165535	18.00426200452543	437.0	
-3.879026402440664	2415.0	1386.0	8.525931184505051	-4.591163206599365	2415.0	0.0	2625.6103515625	20500.0	0.35000000000000003	661.0	-855.0	-0.9008097165991903	-0.32793522267206476	-31.0	-4.098486007034715	-1378.0	-280.0	4.116796337474751	20.0350301699115	129.0	
-3.6871124065925183	2426.0	1374.0	8.669711721700518	-4.718898576378903	2399.0	0.0	2645.1416015625	21140.0	0.35000000000000003	661.0	-855.0	-0.9008097165991903	-0.32793522267206476	-31.0	-14.941122495794465	-1448.0	-375.0	6.000885893563606	21.12798492154113	838.0	
-3.7438554286366488	2397.0	1351.0	8.947790469668444	-4.364506841278539	2404.0	0.0	2664.6728515625	21780.0	0.3575	664.0	-843.0	-0.8765182186234818	-0.2935222672064777	-48.0	-20.675944333996025	-1577.0	-403.0	6.641123328203259	23.113825687785642	1213.0	
-3.2047244495954565	2388.0	1322.0	9.289459802359147	-4.243848409894555	2359.0	0.0	2684.2041015625	22420.0	0.3575	664.0	-843.0	-0.8765182186234818	-0.2935222672064777	-48.0	-21.65468726104909	-1642.0	-563.0	9.131209943811951	24.136117991719846	1277.0	
-3.466720170135163	2370.0	1323.0	9.28036393886468	-4.029782814490322	2381.0	0.0	2703.7353515625	23060.0	0.3575	664.0	-843.0	-0.8765182186234818	-0.2935222672064777	-48.0	-12.738950909925066	-1481.0	-382.0	6.015409640340479	21.634498119727024	694.0	
-3.5274919909712654	2336.0	1333.0	9.155562807635368	-3.6232480011064023	2386.0	0.0	2723.2666015625	23700.0	0.3875	676.0	-837.0	-0.8643724696356275	-0.2894736842105263	-50.0	-4.633736045266861	-1633.0	-275.0	4.022176123273304	23.946927300591337	164.0	
-3.7207408908411463	2330.0	1356.0	8.878291868266311	-3.5584367522659766	2402.0	0.0	2742.7978515625	24340.0	0.3875	676.0	-837.0	-0.8643724696356275	-0.2894736842105263	-50.0	-3.3032573788040986	-1508.0	-89.0	1.1273287733520683	21.99991836982651	77.0	
-3.4817351327210777	2316.0	1348.0	8.969343870749405	-3.3855509558399337	2382.0	0.0	2762.3291015625	24980.0	0.3875	676.0	-837.0	-0.8643724696356275	-0.2894736842105263	-50.0	-9.267472090533722	-1202.0	87.0	-1.2941821708129722	17.280291260998638	467.0	
-3.517730607859253	2279.0	1350.0	8.941224928360421	-2.9406901569089743	2385.0	0.0	2781.8603515625	25620.0	0.405	683.0	-845.0	-0.8805668016194332	-0.2874493927125506	-51.0	-10.108579293469951	-1370.0	76.0	-1.1171295827673209	19.85993504144408	522.0	
-3.6260649396052447	2284.0	1360.0	8.822077468046938	-3.004397413288126	2394.0	0.0	2801.3916015625	26260.0	0.405	683.0	-845.0	-0.8805668016194332	-0.2874493927125506	-51.0	-13.824743844624562	-1303.0	68.0	-0.835172401310043	18.834674208164284	765.0	
-2.8649215665189933	2285.0	1365.0	8.745938586195887	-3.0103569499653684	2330.0	0.0	2820.9228515625	26900.0	0.405	683.0	-845.0	-0.8805668016194332	-0.2874493927125506	-51.0	-22.404037314574097	-1099.0	42.0	-0.060836878397316996	15.71214289713593	1326.0	
-2.485013718977721	2291.0	1373.0	8.641485245085038	-3.080936094938679	2298.0	0.0	2840.4541015625	27540.0	0.405	683.0	-845.0	-0.8805668016194332	-0.2874493927125506	-51.0	-29.056430646887907	-1064.0	52.0	0.0567951721226575	15.176262289606758	1761.0	
-2.7944934041988185	2276.0	1373.0	8.645897675356265	-2.9032197516192	2324.0	0.0	2859.9853515625	28180.0	0.425	691.0	-838.0	-0.8663967611336032	-0.24898785425101214	-70.0	-14.237651016975073	-1043.0	62.0	-0.6864818326530416	14.846595362738377	792.0	
-2.6378386521234445	2254.0	1357.0	8.835182406703156	-2.632807268507653	2311.0	0.0	2879.5166015625	28820.0	0.425	691.0	-838.0	-0.8663967611336032	-0.24898785425101214	-70.0	-14.543508181679158	-1253.0	-3.0	0.2932772398569605	18.07873452166971	812.0	
-2.529705973278965	2284.0	1349.0	8.934164576865431	-2.991192081448493	2302.0	0.0	2899.0478515625	29460.0	0.425	691.0	-838.0	-0.8663967611336032	-0.24898785425101214	-70.0	-15.048172503440895	-1250.0	-48.0	1.0060540693696356	18.03982883899046	845.0	
-2.7408504928577417	2326.0	1324.0	9.248284047559169	-3.493045233615948	2320.0	0.0	2918.5791015625	30100.0	0.4175	688.0	-837.0	-0.8643724696356275	-0.22672064777327935	-81.0	-4.358464597033186	-949.0	-35.0	0.4247415446745222	13.415326132647913	146.0	
-2.1996857128558944	2285.0	1278.0	9.793333476315333	-2.982756693626349	2275.0	0.0	2938.1103515625	30740.0	0.4175	688.0	-837.0	-0.8643724696356275	-0.22672064777327935	-81.0	1.146964367640312	-1380.0	109.0	-2.0764040633274576	20.003787133219728	-214.0	
-3.115008192491017	2236.0	1268.0	9.927752179469731	-2.3988600985764794	2352.0	0.0	2957.6416015625	31380.0	0.4175	688.0	-837.0	-0.8643724696356275	-0.22672064777327935	-81.0	15.843401131671511	-1964.0	408.0	-7.352638111598627	28.91220324908196	-1175.0	
-3.8271045485731885	2214.0	1251.0	10.146687999824005	-2.1365421047663604	2412.0	0.0	2977.1728515625	32020.0	0.4175	688.0	-837.0	-0.8643724696356275	-0.22672064777327935	-81.0	26.05903043278789	-1836.0	537.0	-9.72569514499506	26.924378770508007	-1843.0	
-3.6241390904023234	2227.0	1246.0	10.20513857881531	-2.2899699446289214	2395.0	0.0	2996.7041015625	32660.0	0.41250000000000003	686.0	-847.0	-0.8846153846153846	-0.1882591093117409	-100.0	12.20370087169292	-1521.0	502.0	-8.584882209354188	22.102274547555073	-937.0	
-3.3161089855216077	2253.0	1258.0	10.055768114505918	-2.6031300649144953	2369.0	0.0	3016.2353515625	33300.0	0.41250000000000003	686.0	-847.0	-0.8846153846153846	-0.1882591093117409	-100.0	-13.320079522862825	-636.0	350.0	-5.090379932937578	8.557351532878696	732.0	
-3.1160836354670054	2254.0	1277.0	9.820207881870889	-2.617889208837734	2352.0	0.0	3035.7666015625	33940.0	0.41250000000000003	686.0	-847.0	-0.8846153846153846	-0.1882591093117409	-100.0	0.5046643217617374	-732.0	323.0	-5.242764432695137	10.028898119061111	-172.0	
-3.6188907667864822	2269.0	1301.0	9.539494749923193	-2.809254434356148	2394.0	0.0	3055.2978515625	34580.0	0.395	679.0	-848.0	-0.8866396761133604	-0.1862348178137652	-101.0	2.737421624101545	-530.0	199.0	-3.3938648960394	6.947801415486438	-318.0	
-4.068723510928833	2285.0	1281.0	9.794315573783447	-3.0014274296577157	2432.0	0.0	3074.8291015625	35220.0	0.395	679.0	-848.0	-0.8866396761133604	-0.1862348178137652	-101.0	-8.961614925829638	-832.0	78.0	-1.1112199241276592	11.604661929959278	447.0	
-3.4489927190009113	2247.0	1274.0	9.862632861813614	-2.536032450676628	2380.0	0.0	3094.3603515625	35860.0	0.395	679.0	-848.0	-0.8866396761133604	-0.1862348178137652	-101.0	-23.367487383391957	-859.0	99.0	-0.862180166969102	12.021453386300236	1389.0	
-3.071276704847116	2255.0	1300.0	9.538996181955074	-2.635113566300936	2348.0	0.0	3113.8916015625	36500.0	0.395	679.0	-841.0	-0.8724696356275303	-0.14777327935222673	-120.0	-12.830708059336292	-723.0	141.0	-1.908732640070021	9.924138084064237	700.0	
-3.7527689883405997	2247.0	1325.0	9.246910689749559	-2.5513846568113063	2405.0	0.0	3133.4228515625	37140.0	0.395	679.0	-841.0	-0.8724696356275303	-0.14777327935222673	-120.0	-7.554671968190855	-828.0	196.0	-2.981802173266832	11.524578172835385	355.0	
-3.1570301372916725	2256.0	1320.0	9.296986270832754	-2.652859491618912	2355.0	0.0	3152.9541015625	37780.0	0.395	679.0	-841.0	-0.8724696356275303	-0.14777327935222673	-120.0	-20.171280012234288	-642.0	327.0	-4.463523543671033	8.65568699872011	1180.0	
-2.4805189888931363	2278.0	1336.0	9.090958253543528	-2.9152751814445668	2298.0	0.0	3172.4853515625	38420.0	0.395	679.0	-841.0	-0.8724696356275303	-0.14777327935222673	-120.0	-24.07095886221135	-530.0	514.0	-7.166560805703809	6.910074456389794	1435.0	
-1.7415631083625152	2306.0	1328.0	9.177022497081815	-3.243513735358856	2236.0	0.0	3192.0166015625	39060.0	0.4175	688.0	-853.0	-0.8967611336032388	-0.15789473684210525	-115.0	-8.242850588775044	-629.0	714.0	-10.89095351314945	8.391934411469702	400.0	
-2.750989361976649	2272.0	1309.0	9.424873326144647	-2.8390124270968733	2321.0	0.0	3211.5478515625	39700.0	0.4175	688.0	-853.0	-0.8967611336032388	-0.15789473684210525	-115.0	0.565835754702554	-1042.0	537.0	-8.584246302510383	14.752273234381681	-176.0	
-2.9161958441214755	2242.0	1297.0	9.570891778328631	-2.4762983397421117	2335.0	0.0	3231.0791015625	40340.0	0.4175	688.0	-853.0	-0.8967611336032388	-0.15789473684210525	-115.0	-11.0261507875822	-1033.0	249.0	-3.689587624338936	14.663119468240271	582.0	
-2.287566884495488	2240.0	1315.0	9.338549645689303	-2.45056250725647	2282.0	0.0	3250.6103515625	40980.0	0.395	679.0	-854.0	-0.8987854251012146	-0.1902834008097166	-99.0	-18.917265636947548	-876.0	2.0	0.4491494098178961	12.29542290425623	1098.0	
-2.2406912271611352	2238.0	1321.0	9.264210617219838	-2.427484145710347	2278.0	0.0	3270.1416015625	41620.0	0.395	679.0	-854.0	-0.8987854251012146	-0.1902834008097166	-99.0	-8.961614925829638	-970.0	-3.0	0.1134443816612928	13.734447317838404	447.0	
-2.5119074663007575	2220.0	1300.0	9.523539084209961	-2.2081422688824226	2301.0	0.0	3289.6728515625	42260.0	0.395	679.0	-854.0	-0.8987854251012146	-0.1902834008097166	-99.0	-2.477443034103074	-1024.0	38.0	-0.7847908959316632	14.554067082601218	23.0	
-3.1044852869504975	2204.0	1279.0	9.78956654304549	-2.0159764135748603	2351.0	0.0	3309.2041015625	42900.0	0.395	679.0	-854.0	-0.8987854251012146	-0.1902834008097166	-99.0	-0.8411072029362289	-1053.0	16.0	-0.516311601903283	15.001741901627124	-84.0	
-3.1313544460896527	2190.0	1304.0	9.483603010082339	-1.8536896770303342	2353.0	0.0	3328.7353515625	43540.0	0.3925	678.0	-854.0	-0.8987854251012146	-0.10931174089068826	-139.0	-10.796757914054139	-979.0	-29.0	0.5853603770659619	13.877266830715573	567.0	
-2.6245445099205282	2195.0	1345.0	8.974120436518607	-1.9190521929953392	2310.0	0.0	3348.2666015625	44180.0	0.3925	678.0	-854.0	-0.8987854251012146	-0.10931174089068826	-139.0	-11.240250802875059	-1094.0	-2.0	0.17017473508690525	15.637730594980148	596.0	
-1.900700203249394	2190.0	1363.0	8.7395034845844	-1.8562651251118902	2249.0	0.0	3367.7978515625	44820.0	0.3925	678.0	-854.0	-0.8987854251012146	-0.10931174089068826	-139.0	0.36702859764489987	-1435.0	234.0	-3.9762372258217296	20.828735402791654	-163.0	
-2.220108938700032	2194.0	1347.0	8.941487082377755	-1.9036123115948669	2276.0	0.0	3387.3291015625	45460.0	0.405	683.0	-868.0	-0.9271255060728745	-0.11538461538461539	-136.0	24.116837436916963	-1613.0	430.0	-7.968064359008999	23.52013522260601	-1716.0	
-3.478590698664112	2194.0	1321.0	9.283787276445926	-1.9093511253131443	2382.0	0.0	3406.8603515625	46100.0	0.405	683.0	-868.0	-0.9271255060728745	-0.11538461538461539	-136.0	32.05383086098792	-1924.0	339.0	-6.933584239644929	28.3026144414765	-2235.0	
-3.2723651901478106	2181.0	1289.0	9.668242889980824	-1.7429732519331869	2365.0	0.0	3426.3916015625	46740.0	0.405	683.0	-868.0	-0.9271255060728745	-0.11538461538461539	-136.0	15.13992965285212	-2175.0	266.0	-5.172814753660541	32.171687534525695	-1129.0	
-2.6778742665377533	2166.0	1294.0	9.593525727177063	-1.5577997943868964	2315.0	0.0	3445.9228515625	47380.0	0.385	675.0	-887.0	-0.965587044534413	-0.11336032388663968	-137.0	10.03211500229393	-2301.0	318.0	-5.787651675364202	34.0989441062324	-795.0	
-2.823757491053904	2160.0	1319.0	9.290917561276265	-1.4930216333235677	2327.0	0.0	3465.4541015625	48020.0	0.385	675.0	-887.0	-0.965587044534413	-0.11336032388663968	-137.0	16.82214405872458	-2301.0	450.0	-8.08947950763008	34.07592582790974	-1239.0	
-3.022205336749758	2153.0	1287.0	9.684228229786097	-1.4028025490127396	2344.0	0.0	3484.9853515625	48660.0	0.385	675.0	-887.0	-0.965587044534413	-0.11336032388663968	-137.0	16.21042972931641	-2283.0	563.0	-9.800271972129767	33.782617197418496	-1199.0	
-3.710493339809375	2134.0	1270.0	9.90304697144349	-1.1763933915595852	2402.0	0.0	3504.5166015625	49300.0	0.385	675.0	-887.0	-0.965587044534413	-0.11336032388663968	-137.0	16.638629759902127	-2359.0	578.0	-10.059769564445942	34.94620297951283	-1227.0	
-3.553698620352252	2127.0	1253.0	10.106328440965253	-1.0864224655769885	2389.0	0.0	3524.0478515625	49940.0	0.34750000000000003	660.0	-905.0	-1.0020242914979758	-0.10728744939271255	-140.0	-2.263343018810216	-2389.0	588.0	-9.462176246574543	35.41251342243528	9.0	
-3.3892536606359327	2132.0	1271.0	9.884157745930565	-1.1494623937359407	2375.0	0.0	3543.5791015625	50580.0	0.34750000000000003	660.0	-905.0	-1.0020242914979758	-0.10728744939271255	-140.0	-16.271601162257227	-2200.0	561.0	-8.457624582000015	32.52245152769542	925.0	
-3.3543998669723485	2132.0	1278.0	9.798108540860405	-1.150834839900708	2372.0	0.0	3563.1103515625	51220.0	0.34750000000000003	660.0	-905.0	-1.0020242914979758	-0.10728744939271255	-140.0	-22.985165927511854	-2167.0	611.0	-8.953081210359162	32.011129000693714	1364.0	
-3.1836195987579337	2134.0	1244.0	10.209468695635225	-1.1649962196652361	2358.0	0.0	3582.6416015625	51860.0	0.3975	680.0	-923.0	-1.0384615384615385	-0.08502024291497975	-151.0	-29.255237803945562	-2242.0	585.0	-8.313912143947588	33.168356965717194	1774.0	
-3.2719334817297856	2098.0	1187.0	10.901889922259556	-0.7182959942034319	2366.0	0.0	3602.1728515625	52500.0	0.3975	680.0	-923.0	-1.0384615384615385	-0.08502024291497975	-151.0	-30.32573788040985	-2440.0	556.0	-7.855434848602815	36.21114950297937	1844.0	
-3.2568532206150924	2105.0	1161.0	11.219439843252637	-0.7961315425700138	2365.0	0.0	3621.7041015625	53140.0	0.3975	680.0	-923.0	-1.0384615384615385	-0.08502024291497975	-151.0	-40.51078146505582	-2439.0	452.0	-5.848326487198693	36.21587610293529	2510.0	
-2.7717949541174423	2094.0	1185.0	10.915742683493896	-0.6648247826182845	2324.0	0.0	3641.2353515625	53780.0	0.3975	680.0	-923.0	-1.0384615384615385	-0.08502024291497975	-151.0	-53.020339501452824	-2576.0	356.0	-3.8924658014834677	38.337628970955556	3328.0	
-2.4345510801413335	2093.0	1250.0	10.11632055729524	-0.6653925936314121	2295.0	0.0	3660.7666015625	54420.0	0.4875	716.0	-919.0	-1.0303643724696356	-0.08704453441295547	-150.0	-53.87673956262426	-2363.0	301.0	-2.9795936473969307	35.078382673315815	3384.0	
-1.8986040138897544	2072.0	1247.0	10.139598611024567	-0.40655551370153875	2250.0	0.0	3680.2978515625	55060.0	0.4875	716.0	-919.0	-1.0303643724696356	-0.08704453441295547	-150.0	-49.227710659122195	-2470.0	211.0	-1.797689191865934	36.732061469290485	3080.0	
-1.5121580006125364	2041.0	1201.0	10.68896184350826	-0.01820981301547825	2218.0	0.0	3699.8291015625	55700.0	0.4875	716.0	-919.0	-1.0303643724696356	-0.08704453441295547	-150.0	-39.94494571035327	-2321.0	194.0	-1.8846295840854848	34.44486400030768	2473.0	
-1.8910894251240693	2036.0	1185.0	10.89105748759308	0.04228374947652458	2250.0	0.0	3719.3603515625	56340.0	0.5175	728.0	-914.0	-1.0202429149797572	-0.020242914979757085	-183.0	-26.31900902278636	-1969.0	228.0	-2.898549539198807	29.033466553096584	1582.0	
-1.7955216187686178	2022.0	1182.0	10.924028599328697	0.2125735485699721	2242.0	0.0	3738.8916015625	56980.0	0.5175	728.0	-914.0	-1.0202429149797572	-0.020242914979757085	-183.0	-26.64015904572565	-1837.0	119.0	-1.188954650899562	27.025090659107086	1603.0	
-1.6458020521840093	2011.0	1223.0	10.419794781599073	0.33651618836315345	2229.0	0.0	3758.4228515625	57620.0	0.5175	728.0	-914.0	-1.0202429149797572	-0.020242914979757085	-183.0	-22.694601621042974	-1671.0	41.0	-0.12159642782330682	24.48857995408912	1345.0	
-1.385162913720127	2016.0	1233.0	10.293232437511126	0.2763503690106116	2207.0	0.0	3777.9541015625	58260.0	0.5575	744.0	-920.0	-1.0323886639676114	-0.004048582995951417	-191.0	-20.981801498700108	-1494.0	-83.0	1.7442635790707526	21.791264946669948	1233.0	
-1.3952572223945192	1999.0	1218.0	10.474277760548082	0.4846896094930405	2208.0	0.0	3797.4853515625	58900.0	0.5575	744.0	-920.0	-1.0323886639676114	-0.004048582995951417	-191.0	-15.705765407554674	-1483.0	-98.0	1.7656416240946309	21.622689406880813	888.0	
-1.6710973199734311	1988.0	1235.0	10.271220383609254	0.6104001814604025	2231.0	0.0	3817.0166015625	59540.0	0.5575	744.0	-920.0	-1.0323886639676114	-0.004048582995951417	-191.0	-8.961614925829638	-1472.0	-156.0	2.38967153035504	21.460140385704044	447.0	
-1.6170758924353168	1984.0	1280.0	9.720982185039732	0.6481284028487306	2226.0	0.0	3836.5478515625	60180.0	0.5575	744.0	-920.0	-1.0323886639676114	-0.004048582995951417	-191.0	-8.8239792017128	-1510.0	-215.0	3.2857982691288323	22.052192032100525	438.0	
-1.4291834693611147	1996.0	1301.0	9.4626054448409	0.500261479022484	2210.0	0.0	3856.0791015625	60820.0	0.64	777.0	-897.0	-0.9858299595141701	0.03441295546558704	-210.0	-9.435693531120968	-1517.0	-259.0	3.9859416650401256	22.166604851666513	478.0	
-1.38158362402474	1988.0	1301.0	9.460685216573605	0.5970846150791764	2206.0	0.0	3875.6103515625	61460.0	0.64	777.0	-897.0	-0.9858299595141701	0.03441295546558704	-210.0	-5.536014681143906	-1691.0	-213.0	3.0957606788743224	24.82764319831859	223.0	
-1.5018371864862377	1979.0	1311.0	9.340090875185766	0.7019039275665637	2216.0	0.0	3895.1416015625	62100.0	0.64	777.0	-897.0	-0.9858299595141701	0.03441295546558704	-210.0	-1.7433858388132744	-1833.0	-162.0	2.1378674545848537	26.99698094552943	-25.0	
-1.1713890320762617	1967.0	1334.0	9.051572982850013	0.8440163645169605	2188.0	0.0	3914.6728515625	62740.0	0.6175	768.0	-903.0	-0.9979757085020243	0.024291497975708502	-205.0	-4.343171738797982	-2036.0	-116.0	1.5031896078427227	30.105564349661364	145.0	
-1.006953707050648	1964.0	1352.0	8.828438818744736	0.8773426127983641	2174.0	0.0	3934.2041015625	63380.0	0.6175	768.0	-903.0	-0.9979757085020243	0.024291497975708502	-205.0	-5.031350359382169	-2202.0	-100.0	1.2591533312646694	32.65030827414433	190.0	
-1.0915242462185997	1935.0	1362.0	8.704718235282895	1.2234200860988935	2181.0	0.0	3953.7353515625	64020.0	0.6175	768.0	-903.0	-0.9979757085020243	0.024291497975708502	-205.0	-2.09512157822297	-2540.0	-91.0	0.9514303575881243	37.833666520853775	-2.0	
-0.9110683671387003	1910.0	1346.0	8.893163286129962	1.5301983651837423	2166.0	0.0	3973.2666015625	64660.0	0.6175	768.0	-903.0	-0.9979757085020243	0.024291497975708502	-205.0	0.33644288117449156	-2928.0	-120.0	1.2406874745658252	43.79021875137602	-161.0	
-1.2952379791182516	1908.0	1373.0	8.571440183412944	1.5440185925517753	2198.0	0.0	3992.7978515625	65300.0	0.62	769.0	-912.0	-1.0161943319838056	0.10526315789473684	-245.0	2.997400214100016	-3192.0	-149.0	1.5397950512925034	47.844153512888255	-335.0	
-1.1710061999909878	1880.0	1330.0	9.08985619137743	1.8929786280926988	2188.0	0.0	4012.3291015625	404.0	0.62	769.0	-912.0	-1.0161943319838056	0.10526315789473684	-245.0	-3.37972166998012	-3466.0	-258.0	3.429312218157538	52.067437206883135	82.0	
-1.153159519559251	1856.0	1281.0	9.684048044074908	2.19419755845699	2187.0	0.0	4031.8603515625	1044.0	0.62	769.0	-912.0	-1.0161943319838056	0.10526315789473684	-245.0	-6.545343324667381	-3679.0	-258.0	3.5232439409809406	55.336751543291975	289.0	
-1.1997834433230024	1828.0	1175.0	10.974036620080723	2.55688048832983	2192.0	0.0	4051.3916015625	1684.0	0.6975	800.0	-892.0	-0.9757085020242915	0.15587044534412955	-270.0	-4.832543202324515	-3929.0	-234.0	3.047244353665758	59.168112461950045	177.0	
-1.577787822594663	1783.0	1151.0	11.268836788152749	3.101165122597349	2224.0	0.0	4070.9228515625	2324.0	0.6975	800.0	-892.0	-0.9757085020242915	0.15587044534412955	-270.0	-3.2726716623336904	-4239.0	-82.0	0.5994245442192654	63.9004241978743	75.0	
-1.7190495973442008	1768.0	1138.0	11.428373598913252	3.2836661326313292	2236.0	0.0	4090.4541015625	2964.0	0.6975	800.0	-892.0	-0.9757085020242915	0.15587044534412955	-270.0	-10.536779324055667	-3857.0	-110.0	1.3792297665139868	58.04662949269354	550.0	
-1.387344382261766	1751.0	1053.0	12.456037964299593	3.5123557491983135	2209.0	0.0	4109.9853515625	3604.0	0.705	803.0	-871.0	-0.9331983805668016	0.1862348178137652	-285.0	-19.941887138706225	-3340.0	-86.0	1.4655824511091686	50.11439496828891	1165.0	
