Device	Device	Device	Device	Device	Device	Device	Device	Device	Device	Device	Device	Device	Device	Device	Device	Device	Device	Device	Device	Device	
Low Noise Accelerometer X	Low Noise Accelerometer X	Low Noise Accelerometer Z	Low Noise Accelerometer Z	Low Noise Accelerometer Y	Low Noise Accelerometer Y	Event_Marker	Timestamp	Timestamp	Magnetometer Z	Magnetometer Z	Magnetometer X	Magnetometer X	Magnetometer Y	Magnetometer Y	Gyroscope Y	Gyroscope Y	Gyroscope Z	Gyroscope Z	Gyroscope X	Gyroscope X	
UNCAL	CAL	CAL	UNCAL	CAL	UNCAL	CAL	UNCAL	CAL	UNCAL	CAL	CAL	UNCAL	CAL	UNCAL	CAL	UNCAL	UNCAL	CAL	CAL	UNCAL	
no units	m/(s^2)	m/(s^2)	no units	m/(s^2)	no units	no units	no units	ms	no units	local_flux	local_flux	no units	local_flux	no units	deg/s	no units	no units	deg/s	deg/s	no units	
2354.0	-1.4913117254027566	9.202160793057686	1326.0	-3.8188217086217895	2215.0	0.0	27711.0	845.672607421875	658.0	0.3425	-0.7004048582995952	-756.0	-0.6862348178137652	146.0	-4.098486007034715	61.0	43.0	-0.6303882140158685	-2.093153659645146	129.0	
2346.0	-1.2541272763147857	9.111081892330942	1333.0	-3.72188589997677	2195.0	0.0	28351.0	865.203857421875	658.0	0.3425	-0.7004048582995952	-756.0	-0.6862348178137652	146.0	-5.306621807615844	53.0	0.0	0.07807551498766535	-1.9633131530901113	208.0	
2347.0	-1.251809927581619	9.342816765647623	1314.0	-3.729276221794189	2195.0	0.0	28991.0	884.735107421875	654.0	0.3325	-0.6983805668016194	-755.0	-0.6761133603238867	141.0	-3.058571647040832	90.0	-99.0	1.5165297616874098	-2.516674505973735	61.0	
2357.0	-1.3362115952957045	9.235983327572423	1323.0	-3.8527388349436773	2202.0	0.0	29631.0	904.266357421875	654.0	0.3325	-0.6983805668016194	-755.0	-0.6761133603238867	141.0	-4.81725034408931	107.0	-165.0	2.6046050906542724	-2.7666499748721898	176.0	
2358.0	-1.4664050470137864	9.3118762510023	1317.0	-3.8645711037633452	2213.0	0.0	30271.0	923.797607421875	654.0	0.3325	-0.6983805668016194	-755.0	-0.6761133603238867	141.0	-5.2301575164398235	74.0	-158.0	2.5083915770989584	-2.2612441492896216	203.0	
2360.0	-1.3828422436203687	9.33482325701075	1315.0	-3.88737292115141	2206.0	0.0	30911.0	943.328857421875	657.0	0.34	-0.7064777327935223	-759.0	-0.6639676113360324	135.0	-10.001529285823521	42.0	-224.0	3.7094445342039353	-1.7582101426585746	515.0	
2362.0	-1.2995232449003011	9.333389795684164	1315.0	-3.91066478593291	2199.0	0.0	31551.0	962.860107421875	657.0	0.34	-0.7064777327935223	-759.0	-0.6639676113360324	135.0	-8.22755773053984	15.0	-167.0	2.757649654460012	-1.3534270326866413	399.0	
2354.0	-1.2524110089106273	9.282708632746795	1319.0	-3.814821744663086	2195.0	0.0	32191.0	982.391357421875	657.0	0.34	-0.7064777327935223	-759.0	-0.6639676113360324	135.0	-6.774736198195443	45.0	-78.0	1.3352622262604545	-1.8279854167123841	304.0	
2360.0	-1.051038711470907	9.18184313862359	1327.0	-3.8871144881976587	2178.0	0.0	32831.0	1001.922607421875	657.0	0.34	-0.7064777327935223	-759.0	-0.6639676113360324	135.0	-3.3644288117449155	6.0	-7.0	0.10084935264325262	-1.2418946827816848	81.0	
2353.0	-1.169339427872925	9.2565334031837	1321.0	-3.8024663406728867	2188.0	0.0	33471.0	1021.453857421875	660.0	0.34750000000000003	-0.6902834008097166	-751.0	-0.6538461538461539	130.0	3.0126930723352197	-11.0	67.0	-1.2949909183889656	-0.9949968633038836	-336.0	
2348.0	-1.6453183474887467	9.27768906064915	1320.0	-3.746562052864314	2228.0	0.0	34111.0	1040.985107421875	660.0	0.34750000000000003	-0.6902834008097166	-751.0	-0.6538461538461539	130.0	3.0891573635112404	-30.0	55.0	-1.1163958148239632	-0.7016657227638604	-341.0	
2354.0	-1.527018835423067	9.202878362455216	1326.0	-3.819164428334042	2218.0	0.0	34751.0	1060.516357421875	660.0	0.34750000000000003	-0.6902834008097166	-751.0	-0.6538461538461539	130.0	-2.2480501605750116	117.0	46.0	-0.7419483276687023	-2.953560345636669	8.0	
2354.0	-1.3500680156982923	9.040817477789828	1339.0	-3.8206361378301024	2203.0	0.0	35391.0	1080.047607421875	657.0	0.34	-0.688259109311741	-750.0	-0.6659919028340081	136.0	-4.4655146046796155	81.0	27.0	-0.36654857518573924	-2.397404936419343	153.0	
2343.0	-1.219642802670242	8.988100685356754	1343.0	-3.687856101066555	2192.0	0.0	36031.0	1099.578857421875	657.0	0.34	-0.688259109311741	-750.0	-0.6659919028340081	136.0	-3.8385074170362445	143.0	50.0	-0.7358700750235528	-3.3524561382214646	112.0	
2360.0	-1.2907927443197624	9.015963663261852	1341.0	-3.8928296180333826	2198.0	0.0	36671.0	1119.110107421875	657.0	0.34	-0.688259109311741	-750.0	-0.6659919028340081	136.0	-3.027985930570424	235.0	41.0	-0.6157457819829322	-4.76294739183855	59.0	
2372.0	-1.3045091973406016	8.834794551654129	1356.0	-4.041168478048757	2199.0	0.0	37311.0	1138.641357421875	657.0	0.34	-0.688259109311741	-750.0	-0.6659919028340081	136.0	-1.8504358464597035	185.0	60.0	-0.9627480557599979	-3.999193231670075	-18.0	
2362.0	-1.1391070839759538	8.708339221452237	1366.0	-3.921561635808305	2185.0	0.0	37951.0	1158.172607421875	658.0	0.3425	-0.688259109311741	-750.0	-0.6862348178137652	146.0	-2.079828719987766	36.0	54.0	-0.8841499879675391	-1.7120791859315398	-3.0	
2347.0	-1.0661261986036292	8.863570615827568	1353.0	-3.73700430750081	2179.0	0.0	38591.0	1177.703857421875	658.0	0.3425	-0.688259109311741	-750.0	-0.6862348178137652	146.0	1.422235815873987	-88.0	52.0	-1.0124823981274942	0.18935346357434885	-232.0	
2336.0	-1.2449188010782524	8.841453225508115	1355.0	-3.6067044608500174	2194.0	0.0	39231.0	1197.235107421875	658.0	0.3425	-0.688259109311741	-750.0	-0.6862348178137652	146.0	3.6244074017433863	-21.0	1.0	-0.30586442618438603	-0.8316607618005888	-376.0	
2332.0	-1.2703130888139227	8.682976832893427	1368.0	-3.561935160495331	2196.0	0.0	39871.0	1216.766357421875	658.0	0.3425	-0.6963562753036437	-754.0	-0.7024291497975709	154.0	1.2998929499923537	134.0	-109.0	1.5027666157781177	-3.1919694183903244	-224.0	
2327.0	-1.1893186648450518	8.449085896447215	1387.0	-3.5055620711291446	2189.0	0.0	40511.0	1236.297607421875	658.0	0.3425	-0.6963562753036437	-754.0	-0.7024291497975709	154.0	-1.6822144058724577	258.0	-226.0	3.440607405189917	-5.075306984103694	-29.0	
2315.0	-1.1079669642205223	8.250922625566798	1403.0	-3.3641335062874957	2182.0	0.0	41151.0	1255.828857421875	658.0	0.3425	-0.6963562753036437	-754.0	-0.7024291497975709	154.0	-3.9608502829178778	436.0	-398.0	6.2045364364634255	-7.778985784937192	120.0	
2309.0	-0.9062434118068355	8.185182628840264	1408.0	-3.2911419140713836	2165.0	0.0	41791.0	1275.360107421875	661.0	0.35000000000000003	-0.7044534412955465	-758.0	-0.6943319838056681	150.0	-5.016057501146965	646.0	-634.0	9.908808450482972	-10.964284633003228	189.0	
2316.0	-1.085380043237396	8.12866234292708	1413.0	-3.3784010355015432	2180.0	0.0	42431.0	1294.891357421875	661.0	0.35000000000000003	-0.7044534412955465	-758.0	-0.6943319838056681	150.0	-2.8597644899831782	909.0	-806.0	12.50839957112858	-14.973887923883622	48.0	
2331.0	-1.2177508763068963	7.986817131215148	1425.0	-3.5632845396327415	2191.0	0.0	43071.0	1314.422607421875	661.0	0.35000000000000003	-0.7044534412955465	-758.0	-0.6943319838056681	150.0	-4.450221746444411	1121.0	-1001.0	15.60377716151667	-18.19596468350222	152.0	
2337.0	-1.3978639307671963	7.832654542327989	1438.0	-3.640458078581594	2206.0	0.0	43711.0	1333.953857421875	661.0	0.35000000000000003	-0.7044534412955465	-758.0	-0.6943319838056681	150.0	-5.367793240556661	1220.0	-1115.0	17.40906690399417	-19.697015668231813	212.0	
2330.0	-1.5404569965294552	7.8590622518163755	1436.0	-3.5570185056518584	2218.0	0.0	44351.0	1353.485107421875	656.0	0.3375	-0.7226720647773279	-767.0	-0.6740890688259109	140.0	-8.135800581128613	1175.0	-1256.0	19.68155202421383	-18.983789052413993	393.0	
2331.0	-1.5409434015398178	7.810421750780124	1440.0	-3.5700443724937716	2218.0	0.0	44991.0	1373.016357421875	656.0	0.3375	-0.7226720647773279	-767.0	-0.6740890688259109	140.0	-13.258908089922008	1376.0	-1374.0	21.73221903842184	-22.04752359755502	728.0	
2334.0	-1.3075246771890574	7.342770376332355	1478.0	-3.6132077910524725	2198.0	0.0	45631.0	1392.547607421875	656.0	0.3375	-0.7226720647773279	-767.0	-0.6740890688259109	140.0	-17.923229851659276	1447.0	-1539.0	24.467484031779108	-23.109629287348316	1033.0	
2330.0	-1.133382428553165	6.899852382778739	1514.0	-3.5721319573528483	2183.0	0.0	46271.0	1412.078857421875	655.0	0.335	-0.728744939271255	-770.0	-0.6578947368421053	132.0	-24.086251720446555	1494.0	-1772.0	28.304897062702185	-23.792445888970956	1436.0	
2333.0	-0.8915524429718167	7.273327131389768	1483.0	-3.5983887408380673	2163.0	0.0	46911.0	1431.610107421875	655.0	0.335	-0.728744939271255	-770.0	-0.6578947368421053	132.0	-27.022480501605752	1482.0	-2065.0	32.92704158469996	-23.56209063985348	1628.0	
2381.0	-1.3550775534082409	7.349387516318773	1478.0	-4.1798160372558995	2202.0	0.0	47551.0	1451.141357421875	655.0	0.335	-0.728744939271255	-770.0	-0.6578947368421053	132.0	-23.55100168221441	1612.0	-2159.0	34.2539289671116	-25.5436046415856	1401.0	
2415.0	-0.8190642486580588	7.379289419908403	1475.0	-4.583496420353472	2157.0	0.0	48191.0	1470.672607421875	655.0	0.335	-0.728744939271255	-770.0	-0.6578947368421053	132.0	-21.547637253402662	1395.0	-2273.0	35.8939092352599	-22.19745188509101	1270.0	
2392.0	-1.1507735782066248	7.541689798385138	1462.0	-4.306457072344484	2185.0	0.0	48831.0	1490.203857421875	661.0	0.35000000000000003	-0.7267206477732794	-769.0	-0.6336032388663968	120.0	-9.58862211347301	454.0	-2089.0	32.441168517710715	-7.792820169970969	488.0	
2390.0	-1.0064847187579573	7.684861457537601	1450.0	-4.278054365024779	2173.0	0.0	49471.0	1509.735107421875	661.0	0.35000000000000003	-0.7267206477732794	-769.0	-0.6336032388663968	120.0	-7.799357699954122	415.0	-1939.0	30.05651472520449	-7.218231845229158	371.0	
2388.0	-1.347754982853362	8.081644571806669	1418.0	-4.249435019838184	2202.0	0.0	50111.0	1529.266357421875	661.0	0.35000000000000003	-0.7267206477732794	-769.0	-0.6336032388663968	120.0	-0.25997858999847073	177.0	-1759.0	26.949925549355864	-3.5973106263539174	-122.0	
2376.0	-1.8587180288238103	8.175816165237995	1411.0	-4.108082905176249	2245.0	0.0	50751.0	1548.797607421875	660.0	0.34750000000000003	-0.7388663967611336	-775.0	-0.6376518218623481	122.0	0.7340571952897997	2.0	-1590.0	24.283977804788076	-0.938685463627737	-187.0	
2414.0	-2.075109166224973	7.965273853693128	1429.0	-4.572288988082362	2263.0	0.0	51391.0	1568.328857421875	660.0	0.34750000000000003	-0.7388663967611336	-775.0	-0.6376518218623481	122.0	-4.541978895855636	429.0	-1269.0	19.623304368981053	-7.537386720005141	158.0	
2375.0	-1.488892446593548	8.25361248350234	1404.0	-4.090780530217575	2214.0	0.0	52031.0	1587.860107421875	660.0	0.34750000000000003	-0.7388663967611336	-775.0	-0.6376518218623481	122.0	-10.796757914054139	64.0	-1026.0	16.079956020188487	-1.972083668277477	567.0	
2300.0	-1.9027619683123413	8.533326978289665	1381.0	-3.1857104777076914	2249.0	0.0	52671.0	1607.391357421875	663.0	0.355	-0.7388663967611336	-775.0	-0.5991902834008097	103.0	-7.309986236427589	-91.0	-730.0	11.364027126405771	0.3591520097940562	339.0	
2313.0	-1.881379618659908	8.290609562580643	1401.0	-3.3469775085494438	2247.0	0.0	53311.0	1626.922607421875	663.0	0.355	-0.7388663967611336	-775.0	-0.5991902834008097	103.0	-23.092215935158283	590.0	-473.0	8.146895997789443	-10.122612672675169	1371.0	
2411.0	-1.0211214924577556	8.602136468510164	1375.0	-4.512867280735097	2175.0	0.0	53951.0	1646.453857421875	663.0	0.355	-0.7388663967611336	-775.0	-0.5991902834008097	103.0	-40.31197430799817	1392.0	-373.0	7.420596833078976	-22.436151558138448	2497.0	
2376.0	-0.9447514283852901	9.09628573289955	1334.0	-4.080533847818633	2169.0	0.0	54591.0	1665.985107421875	663.0	0.355	-0.7388663967611336	-775.0	-0.5991902834008097	103.0	-37.987459856247135	583.0	-445.0	8.310912270375635	-10.01356112434243	2345.0	
2346.0	-1.1217383782002122	9.254733608550229	1321.0	-3.7176889766712384	2184.0	0.0	55231.0	1685.516357421875	676.0	0.3875	-0.742914979757085	-777.0	-0.5991902834008097	103.0	-40.60253861446705	577.0	-498.0	9.229762057599931	-9.912305724521438	2516.0	
2424.0	-0.6992542365558638	8.64600491584219	1371.0	-4.665397745253534	2148.0	0.0	55871.0	1705.047607421875	676.0	0.3875	-0.742914979757085	-777.0	-0.5991902834008097	103.0	-52.36274659733905	1423.0	-427.0	8.737894224625972	-22.89865757762485	3285.0	
2408.0	-0.2247634360432474	8.476037348056215	1384.0	-4.471281104266778	2108.0	0.0	56511.0	1724.578857421875	676.0	0.3875	-0.742914979757085	-777.0	-0.5991902834008097	103.0	-57.10353265025234	789.0	-476.0	9.583887236403374	-13.161795008255885	3595.0	
2435.0	0.3026304314360269	8.834471715031265	1354.0	-4.7841396830717615	2064.0	0.0	57151.0	1744.110107421875	693.0	0.43	-0.7024291497975709	-757.0	-0.6214574898785425	114.0	-48.26426059030433	842.0	-557.0	10.48432104663098	-13.96604830403423	3017.0	
2533.0	0.639184277340293	9.156522972124542	1328.0	-5.955056011037118	2036.0	0.0	57791.0	1763.641357421875	693.0	0.43	-0.7024291497975709	-757.0	-0.6214574898785425	114.0	-27.588316256308307	1279.0	-477.0	8.49395779239961	-20.691491295177123	1665.0	
2513.0	-0.03139530687588091	8.765231217173815	1361.0	-5.728623786556608	2092.0	0.0	58431.0	1783.172607421875	693.0	0.43	-0.7024291497975709	-757.0	-0.6214574898785425	114.0	-4.587857470561248	229.0	-413.0	6.428564973214971	-4.600437382337821	161.0	
2499.0	-0.2093382060027924	8.82808416162552	1356.0	-5.560471457863662	2107.0	0.0	59071.0	1802.703857421875	693.0	0.43	-0.7024291497975709	-757.0	-0.6214574898785425	114.0	0.29056430646887904	-333.0	-255.0	3.717067929883098	3.996047463095057	-158.0	
2500.0	-0.32519124098060065	9.147542568606598	1330.0	-5.567289012844903	2117.0	0.0	59711.0	1822.235107421875	697.0	0.44	-0.6963562753036437	-754.0	-0.6295546558704453	118.0	8.472243462303105	-498.0	-222.0	2.8569541637924627	6.51928612902476	-693.0	
2491.0	-0.5399323494762082	9.102003147617282	1334.0	-5.461913477409886	2135.0	0.0	60351.0	1841.766357421875	697.0	0.44	-0.6963562753036437	-754.0	-0.6295546558704453	118.0	14.681143905795995	-867.0	-312.0	3.936271469254546	12.192193771927471	-1099.0	
2463.0	-0.48398938862340846	8.743918280516292	1363.0	-5.131166347553016	2130.0	0.0	60991.0	1861.297607421875	697.0	0.44	-0.6963562753036437	-754.0	-0.6295546558704453	118.0	11.913136565224042	-1120.0	-419.0	5.6538990871327846	16.091524413611854	-918.0	
2429.0	-0.7100534638508661	8.756558376818152	1362.0	-4.7235356321623865	2149.0	0.0	61631.0	1880.828857421875	697.0	0.44	-0.7348178137651822	-773.0	-0.6518218623481782	129.0	9.496864964061784	-1500.0	-450.0	6.169039114704038	21.92757960397503	-760.0	
2431.0	-0.29005483951432937	9.089754143805159	1334.0	-4.73676811612145	2114.0	0.0	62271.0	1900.360107421875	697.0	0.44	-0.7348178137651822	-773.0	-0.6518218623481782	129.0	0.21410001529285827	-1528.0	-403.0	5.81312315124188	22.353665986767908	-153.0	
2433.0	-0.6347335516912862	9.145692449918993	1330.0	-4.76319252266311	2143.0	0.0	62911.0	1919.891357421875	697.0	0.44	-0.7348178137651822	-773.0	-0.6518218623481782	129.0	1.4528215323443954	-1616.0	-478.0	6.903630760538761	23.714885624775867	-234.0	
2383.0	-0.8133293186097502	9.143258615215453	1330.0	-4.162617518472149	2158.0	0.0	63551.0	1939.422607421875	707.0	0.465	-0.728744939271255	-770.0	-0.6194331983805668	113.0	-0.8564000611714331	-2095.0	-583.0	8.53747229630603	31.08123171237537	-83.0	
2359.0	-0.4561652201420885	9.145382747695916	1329.0	-3.8698467683318403	2128.0	0.0	64191.0	1958.953857421875	707.0	0.465	-0.728744939271255	-770.0	-0.6194331983805668	113.0	-3.9149717082122653	-1988.0	-458.0	6.753631033229794	29.42153354832524	117.0	
2422.0	-0.10157819581985422	8.889799465633626	1350.0	-4.630448708308176	2098.0	0.0	64831.0	1978.485107421875	707.0	0.465	-0.728744939271255	-770.0	-0.6194331983805668	113.0	-2.966814497629607	-1250.0	-271.0	3.9527465811934923	18.0692957641087	55.0	
2392.0	-0.24383325430786715	8.950007902546623	1345.0	-4.269221307022266	2110.0	0.0	65471.0	1998.016357421875	707.0	0.465	-0.728744939271255	-770.0	-0.6194331983805668	113.0	5.337207524086252	-1622.0	-293.0	3.9019187793621293	23.776935406912852	-488.0	
2367.0	-0.8359343046379505	9.263712393347815	1320.0	-3.9676634084324354	2160.0	0.0	575.0	2017.547607421875	713.0	0.48	-0.728744939271255	-770.0	-0.5748987854251012	91.0	18.290258449304176	-1773.0	-198.0	1.8995131685359659	26.073928383181446	-1335.0	
2389.0	-1.2976621927690408	9.519495008810186	1300.0	-4.2322252759683545	2199.0	0.0	1215.0	2037.078857421875	713.0	0.48	-0.728744939271255	-770.0	-0.5748987854251012	91.0	22.985165927511854	-1351.0	-79.0	-0.05382169335851228	19.579022930833794	-1642.0	
2384.0	-1.1909125913998264	9.480169431445924	1303.0	-4.171703327646525	2190.0	0.0	1855.0	2056.610107421875	713.0	0.48	-0.728744939271255	-770.0	-0.5748987854251012	91.0	16.179844012846	-1231.0	-10.0	-0.8244935422475392	17.729978173369915	-1197.0	
2356.0	-1.2245810831141295	9.684748831444212	1286.0	-3.8305990269733403	2193.0	0.0	2495.0	2076.141357421875	711.0	0.47500000000000003	-0.742914979757085	-777.0	-0.576923076923077	92.0	11.194372228169446	-1249.0	43.0	-1.4430340147653964	17.999993474490985	-871.0	
2364.0	-1.4596931924786216	9.983061704518777	1262.0	-3.9233694327741695	2213.0	0.0	3135.0	2095.672607421875	711.0	0.47500000000000003	-0.742914979757085	-777.0	-0.576923076923077	92.0	12.4942651781618	-1047.0	200.0	-3.8788033737513317	14.876050081959894	-956.0	
2416.0	-1.7359450262149256	9.738830711840768	1283.0	-4.557522595061478	2236.0	0.0	3775.0	2115.203857421875	711.0	0.47500000000000003	-0.742914979757085	-777.0	-0.576923076923077	92.0	10.337972166998012	-423.0	352.0	-6.034688317271345	5.279533429854753	-815.0	
2392.0	-1.7007544296134338	9.686461800561394	1287.0	-4.269061440815027	2233.0	0.0	4415.0	2134.735107421875	711.0	0.47500000000000003	-0.742914979757085	-777.0	-0.576923076923077	92.0	-0.6270071876433706	-747.0	557.0	-8.798889871363933	10.223504119546298	-98.0	
2374.0	-1.8807744858091764	9.541599038129986	1299.0	-4.056891426746095	2248.0	0.0	5055.0	2154.266357421875	715.0	0.485	-0.728744939271255	-770.0	-0.5323886639676113	70.0	-11.423765101697509	-959.0	753.0	-11.414209109651404	13.450381462685902	608.0	
2378.0	-1.6180642119581539	9.622150232756034	1292.0	-4.1008460711994	2226.0	0.0	5695.0	2173.797607421875	715.0	0.485	-0.728744939271255	-770.0	-0.5323886639676113	70.0	-27.465973390426672	-702.0	805.0	-11.532950522968447	9.505661748414632	1657.0	
2392.0	-0.9028080298131334	9.719197018686662	1283.0	-4.2604272724545185	2166.0	0.0	6335.0	2193.328857421875	715.0	0.485	-0.728744939271255	-770.0	-0.5323886639676113	70.0	-43.17173879798135	-603.0	893.0	-12.243095755182747	7.979456413938124	2684.0	
2402.0	-0.023971043335563505	9.507657571205556	1299.0	-4.376351619250208	2092.0	0.0	6975.0	2212.860107421875	729.0	0.52	-0.7125506072874495	-762.0	-0.5809716599190283	94.0	-48.76892491206607	-566.0	851.0	-11.36756395168515	7.420465836622476	3050.0	
2370.0	0.41832854553891113	9.689997411033978	1283.0	-3.982739657890196	2055.0	0.0	7615.0	2232.391357421875	729.0	0.52	-0.7125506072874495	-762.0	-0.5809716599190283	94.0	-39.22618137329867	-997.0	833.0	-11.53851084318705	14.032228824359292	2426.0	
2372.0	0.3843304769047299	9.861619119044418	1269.0	-4.003743589958497	2058.0	0.0	8255.0	2251.922607421875	729.0	0.52	-0.7125506072874495	-762.0	-0.5809716599190283	94.0	-18.657287046949076	-1220.0	882.0	-13.149053955841946	17.437943248994596	1081.0	
2386.0	-0.10657548874431516	9.580546363663721	1293.0	-4.182948803517783	2099.0	0.0	8895.0	2271.453857421875	739.0	0.545	-0.6700404858299596	-741.0	-0.52834008097166	68.0	0.8411072029362289	-953.0	918.0	-14.441651654552624	13.328040135288143	-194.0	
2331.0	-0.22639684133067073	9.50317300979007	1299.0	-3.5230438817114815	2109.0	0.0	9535.0	2290.985107421875	739.0	0.545	-0.6700404858299596	-741.0	-0.52834008097166	68.0	9.420400672885764	-1512.0	914.0	-14.809033323293502	21.901932683492557	-755.0	
2301.0	-0.6173826465941048	9.690306769160957	1284.0	-3.1617652814441675	2142.0	0.0	10175.0	2310.516357421875	739.0	0.545	-0.6700404858299596	-741.0	-0.52834008097166	68.0	12.738950909925066	-1728.0	790.0	-13.067694689626409	25.233754539984204	-972.0	
2310.0	-0.29454498934416445	9.831215351297839	1272.0	-3.2641524681686898	2115.0	0.0	10815.0	2330.047607421875	739.0	0.545	-0.6700404858299596	-741.0	-0.52834008097166	68.0	7.677014834072489	-1407.0	632.0	-10.385834316290719	20.334993889459465	-641.0	
2328.0	-0.20052337460266695	9.709567301638065	1282.0	-3.482512682893988	2107.0	0.0	11455.0	2349.578857421875	741.0	0.55	-0.6842105263157895	-748.0	-0.5263157894736842	67.0	9.175714941122497	-991.0	453.0	-7.628802421367547	13.979259006628737	-739.0	
2300.0	-0.34497026647815676	9.550592399803373	1295.0	-3.1497872522590753	2119.0	0.0	12095.0	2369.110107421875	741.0	0.55	-0.6842105263157895	-748.0	-0.5263157894736842	67.0	10.521486465820463	-1132.0	378.0	-6.5507081473817985	16.153612145164207	-827.0	
2293.0	-0.548781814987719	9.407532786942376	1307.0	-3.0703492106038004	2136.0	0.0	12735.0	2388.641357421875	741.0	0.55	-0.6842105263157895	-748.0	-0.5263157894736842	67.0	11.714329408166387	-1198.0	440.0	-7.562147511210407	17.156233672962163	-905.0	
2317.0	-0.3718020911908267	9.248362309488757	1320.0	-3.3609194494209285	2121.0	0.0	13375.0	2408.172607421875	742.0	0.5525	-0.6781376518218624	-745.0	-0.5323886639676113	70.0	5.153693225263802	-794.0	483.0	-7.899133353377101	10.953692416658036	-476.0	
2296.0	-0.21794988852264416	9.157392100116537	1327.0	-3.1081882833889196	2108.0	0.0	14015.0	2427.703857421875	742.0	0.5525	-0.6781376518218624	-745.0	-0.5323886639676113	70.0	-2.293928735280624	-875.0	490.0	-7.721351027144538	12.19837341622848	11.0	
2272.0	-0.14741788891086732	9.067734918437079	1334.0	-2.8201194805203667	2102.0	0.0	14655.0	2447.235107421875	742.0	0.5525	-0.6781376518218624	-745.0	-0.5323886639676113	70.0	-9.22159351582811	-1261.0	443.0	-6.780602520108717	18.130751593335052	464.0	
2289.0	0.47128202048557977	9.03296395331988	1336.0	-3.01944717783718	2050.0	0.0	15295.0	2466.766357421875	742.0	0.5525	-0.6781376518218624	-745.0	-0.5323886639676113	70.0	-11.056736504052608	-973.0	321.0	-4.786569726979641	13.731480627726368	584.0	
2303.0	0.49473791419782975	8.997600943592502	1339.0	-3.188594577889786	2048.0	0.0	15935.0	2486.297607421875	745.0	0.56	-0.6680161943319838	-740.0	-0.5344129554655871	71.0	1.7892644135188869	-735.0	286.0	-4.725517286852633	10.080104041493913	-256.0	
2268.0	0.03184425786538301	9.136806738919255	1328.0	-2.768752651558624	2087.0	0.0	16575.0	2505.828857421875	745.0	0.56	-0.6680161943319838	-740.0	-0.5344129554655871	71.0	18.96314421165316	-1270.0	381.0	-6.955656096522766	18.267101410494035	-1379.0	
2244.0	-0.454597086107533	9.302196151151456	1315.0	-2.4811526502476844	2128.0	0.0	17215.0	2525.360107421875	745.0	0.56	-0.6680161943319838	-740.0	-0.5344129554655871	71.0	26.364887597491975	-1606.0	417.0	-7.856954127096891	23.41383493931826	-1863.0	
2251.0	-0.7396360242322728	9.369730910106048	1310.0	-2.5669896938474306	2152.0	0.0	17855.0	2544.891357421875	749.0	0.5700000000000001	-0.6943319838056681	-753.0	-0.5344129554655871	71.0	24.713258908089923	-1371.0	352.0	-6.755093451480625	19.81889988641507	-1755.0	
2262.0	-0.8836702399805458	9.252023620993032	1320.0	-2.7033143022691015	2164.0	0.0	18495.0	2564.422607421875	749.0	0.5700000000000001	-0.6943319838056681	-753.0	-0.5344129554655871	71.0	23.22985165927512	-1084.0	358.0	-6.7440130947736066	15.415143880100294	-1658.0	
2280.0	-0.5377484177100723	9.320396324230861	1314.0	-2.915355099861158	2135.0	0.0	19135.0	2583.953857421875	749.0	0.5700000000000001	-0.6943319838056681	-753.0	-0.5344129554655871	71.0	17.173879798134273	-907.0	253.0	-4.859666785981341	12.718013735700108	-1262.0	
2269.0	-1.163833084638278	9.807167726648377	1275.0	-2.779350398000162	2188.0	0.0	19775.0	2603.485107421875	741.0	0.55	-0.7145748987854251	-763.0	-0.5182186234817814	63.0	21.777030126930725	-1011.0	251.0	-5.028969634083265	14.312147007664079	-1563.0	
2236.0	-1.3153122747352217	10.135439193144494	1248.0	-2.376709399125426	2201.0	0.0	20415.0	2623.016357421875	741.0	0.55	-0.7145748987854251	-763.0	-0.5182186234817814	63.0	17.9996941428353	-1490.0	278.0	-5.366663221972326	21.658777744027017	-1316.0	
2248.0	-1.2334440606918744	9.98892726414592	1260.0	-2.5233992688179763	2194.0	0.0	21055.0	2642.547607421875	741.0	0.55	-0.7145748987854251	-763.0	-0.5182186234817814	63.0	10.246215017586788	-1269.0	251.0	-4.607367957715106	18.275239808223983	-809.0	
2271.0	-1.0352207502879587	9.573163066442229	1294.0	-2.8068407534029505	2177.0	0.0	21695.0	2662.078857421875	741.0	0.55	-0.7145748987854251	-763.0	-0.5182186234817814	63.0	9.160422082887292	-828.0	278.0	-4.911557368342981	11.505280620884625	-738.0	
2258.0	-1.0579440256438195	9.681787911808543	1285.0	-2.648268983225086	2179.0	0.0	22335.0	2681.610107421875	743.0	0.555	-0.7186234817813765	-765.0	-0.4898785425101215	49.0	8.793393485242392	-902.0	434.0	-7.307622361871609	12.616811761650581	-714.0	
2243.0	-1.4015460905084494	9.845390949155043	1272.0	-2.4677100515605375	2208.0	0.0	22975.0	2701.141357421875	743.0	0.555	-0.7186234817813765	-765.0	-0.4898785425101215	49.0	13.56476525462609	-1174.0	587.0	-9.893439725833064	16.764653143020944	-1026.0	
2230.0	-0.9847349919705414	9.859834136279204	1270.0	-2.306626570808579	2173.0	0.0	23615.0	2720.672607421875	743.0	0.555	-0.7186234817813765	-765.0	-0.4898785425101215	49.0	9.466279247591375	-1191.0	643.0	-10.593444784815729	17.018509314619234	-758.0	
2238.0	-0.9967496296232807	9.84884656148145	1271.0	-2.4033520108497366	2174.0	0.0	24255.0	2740.203857421875	745.0	0.56	-0.7105263157894737	-761.0	-0.4757085020242915	42.0	4.74078605291329	-1005.0	693.0	-11.144941611981125	14.158920385936351	-449.0	
2234.0	-0.9966325446319585	9.860555060613674	1270.0	-2.3549238989328414	2174.0	0.0	24895.0	2759.735107421875	745.0	0.56	-0.7105263157894737	-761.0	-0.4757085020242915	42.0	10.964979354641384	-1111.0	775.0	-12.671366262815306	15.77017140718925	-856.0	
2233.0	-1.0436337173120012	9.92234255451415	1265.0	-2.3421099680105475	2178.0	0.0	25535.0	2779.266357421875	745.0	0.56	-0.7105263157894737	-761.0	-0.4757085020242915	42.0	9.879186419941888	-1158.0	763.0	-12.450581544601025	16.49356998630326	-785.0	
2227.0	-1.377151108192945	9.903936799753104	1267.0	-2.2735241003880717	2206.0	0.0	26175.0	2798.797607421875	745.0	0.56	-0.7105263157894737	-761.0	-0.4757085020242915	42.0	13.503593821685275	-1318.0	719.0	-11.943340787668827	18.953759779172568	-1022.0	
2225.0	-1.389909203229118	9.818603486612004	1274.0	-2.251261962059087	2207.0	0.0	26815.0	2818.328857421875	745.0	0.56	-0.7125506072874495	-762.0	-0.46558704453441296	37.0	13.365958097568436	-1302.0	684.0	-11.397056158814197	18.713710886931118	-1013.0	
2216.0	-1.6307711961350941	9.541928005538182	1297.0	-2.1507703566698644	2227.0	0.0	27455.0	2837.860107421875	745.0	0.56	-0.7125506072874495	-762.0	-0.46558704453441296	37.0	4.786664627618903	-1434.0	537.0	-8.813206937303407	20.765021222018714	-452.0	
2204.0	-1.1555441642570738	9.445583574292614	1304.0	-2.0033666617229833	2187.0	0.0	28095.0	2857.391357421875	745.0	0.56	-0.7125506072874495	-762.0	-0.46558704453441296	37.0	-0.5046643217617374	-1356.0	471.0	-7.574480528319804	19.580538760774807	-106.0	
2200.0	-1.0943304988551235	9.614569162106703	1290.0	-1.951182042228345	2182.0	0.0	28735.0	2876.922607421875	743.0	0.555	-0.7064777327935223	-759.0	-0.4534412955465587	31.0	6.530050466432177	-1404.0	568.0	-9.355134548425784	20.29926743616374	-566.0	
2192.0	-1.4874840507792697	9.584928255406373	1293.0	-1.8593208537129184	2215.0	0.0	29375.0	2896.453857421875	743.0	0.555	-0.7064777327935223	-759.0	-0.4534412955465587	31.0	5.948921853494419	-1437.0	574.0	-9.429239166362382	20.804894350702497	-528.0	
2180.0	-1.3809866844377732	9.520379175270309	1298.0	-1.7149685483992123	2206.0	0.0	30015.0	2915.985107421875	743.0	0.555	-0.7064777327935223	-759.0	-0.4534412955465587	31.0	-3.1656216546872615	-1413.0	500.0	-7.922838972502317	20.4516907448461	68.0	
2178.0	-0.8934795321795745	9.46157059156636	1302.0	-1.6871732630085408	2165.0	0.0	30655.0	2935.516357421875	746.0	0.5625	-0.708502024291498	-760.0	-0.4433198380566802	26.0	-3.8385074170362445	-1364.0	474.0	-7.488509706937973	19.70415433825362	112.0	
2174.0	-0.6549493400428238	9.505065995717615	1298.0	-1.6357252819198107	2145.0	0.0	31295.0	2955.047607421875	746.0	0.5625	-0.708502024291498	-760.0	-0.4433198380566802	26.0	0.7799357699954123	-1406.0	522.0	-8.417947120284092	20.339328277761407	-190.0	
2170.0	-0.8771983127432035	9.899216344727273	1266.0	-1.5818719935822843	2164.0	0.0	31935.0	2974.578857421875	746.0	0.5625	-0.708502024291498	-760.0	-0.4433198380566802	26.0	9.175714941122497	-1688.0	576.0	-9.62757020851476	24.654376438470326	-739.0	
2153.0	-1.2210465909538606	10.038198047471088	1255.0	-1.3777115652010807	2193.0	0.0	32575.0	2994.110107421875	746.0	0.5625	-0.708502024291498	-760.0	-0.4433198380566802	26.0	8.395779171127085	-1752.0	491.0	-8.298834965573546	25.649710745019732	-688.0	
2151.0	-1.2587065470336505	9.843631010920667	1271.0	-1.3578831199507184	2196.0	0.0	33215.0	3013.641357421875	749.0	0.5700000000000001	-0.7044534412955465	-758.0	-0.44129554655870445	25.0	2.8138859152775657	-1568.0	348.0	-5.847908887491888	22.850835012705566	-323.0	
2153.0	-1.2374593474176128	9.587398591572066	1292.0	-1.3868916818836987	2194.0	0.0	33855.0	3033.172607421875	749.0	0.5700000000000001	-0.7044534412955465	-758.0	-0.44129554655870445	25.0	2.584493041749503	-1545.0	319.0	-5.389164598079516	22.502499331462815	-308.0	
2149.0	-1.1404166696586766	9.767856843656146	1277.0	-1.3341193189800902	2186.0	0.0	34495.0	3052.703857421875	749.0	0.5700000000000001	-0.7044534412955465	-758.0	-0.44129554655870445	25.0	5.061936075852578	-1668.0	382.0	-6.476109019642555	24.37900137719655	-470.0	
2138.0	-1.4593558608076873	10.01679487161222	1257.0	-1.1997998298505312	2213.0	0.0	35135.0	3072.235107421875	752.0	0.5775	-0.7064777327935223	-759.0	-0.4331983805668016	21.0	3.318550237039303	-1705.0	401.0	-6.7042909556608805	24.94446545318699	-356.0	
2129.0	-1.4237814921510963	10.00280316584276	1258.0	-1.0912901853395953	2210.0	0.0	35775.0	3091.766357421875	752.0	0.5775	-0.7064777327935223	-759.0	-0.4331983805668016	21.0	-1.2846000917571496	-1729.0	399.0	-6.493104239489016	25.314844928143703	-55.0	
2130.0	-1.0670748946216795	9.95917720449874	1261.0	-1.1006438313622662	2180.0	0.0	36415.0	3111.297607421875	752.0	0.5775	-0.7064777327935223	-759.0	-0.4331983805668016	21.0	0.3058571647040832	-1665.0	379.0	-6.2392824646880065	24.335336191771717	-159.0	
2132.0	-1.1494138573029924	10.05861426970077	1253.0	-1.1235748652272073	2187.0	0.0	37055.0	3130.828857421875	752.0	0.5775	-0.7064777327935223	-759.0	-0.4331983805668016	21.0	15.124636794616915	-1811.0	606.0	-10.345796441474342	26.534565666090092	-1128.0	
2126.0	-1.4338589401167532	10.185534559753247	1243.0	-1.0515917536277894	2211.0	0.0	37695.0	3150.360107421875	756.0	0.5875	-0.7348178137651822	-773.0	-0.4352226720647773	22.0	19.896008564000613	-1851.0	810.0	-13.680434414412185	27.114998632685708	-1440.0	
2123.0	-1.8737626340295626	10.242784216091373	1239.0	-1.0187012191269018	2248.0	0.0	38335.0	3169.891357421875	756.0	0.5875	-0.7348178137651822	-773.0	-0.4352226720647773	22.0	16.94448692460621	-1863.0	971.0	-16.040520948672658	27.275531571240606	-1247.0	
2107.0	-1.5745160205282682	10.405540804316052	1225.0	-0.8196825368900461	2223.0	0.0	38975.0	3189.422607421875	756.0	0.5875	-0.7348178137651822	-773.0	-0.4352226720647773	22.0	11.041443645817404	-1879.0	1223.0	-19.682816824285158	27.484620351014478	-861.0	
2094.0	-1.8140419050761702	10.262476159049642	1237.0	-0.6683125826167569	2243.0	0.0	39615.0	3208.953857421875	757.0	0.59	-0.728744939271255	-770.0	-0.40890688259109315	9.0	12.050772289340879	-1790.0	1452.0	-23.231713484520554	26.083472338839005	-927.0	
2094.0	-1.9578455638508134	10.167824567299606	1245.0	-0.671643651039504	2255.0	0.0	40255.0	3228.485107421875	757.0	0.59	-0.728744939271255	-770.0	-0.40890688259109315	9.0	11.041443645817404	-1519.0	1521.0	-24.211034029061942	21.915324062041744	-861.0	
2093.0	-1.5643371439436857	10.23295227229808	1239.0	-0.6543578199693789	2222.0	0.0	40895.0	3248.016357421875	757.0	0.59	-0.728744939271255	-770.0	-0.40890688259109315	9.0	2.553907325279095	-1274.0	1400.0	-21.97291028859283	18.17830680320583	-306.0	
2089.0	-1.8633640394983948	10.092167478731964	1251.0	-0.6119710137119109	2247.0	0.0	41535.0	3267.547607421875	755.0	0.585	-0.7267206477732794	-769.0	-0.4008097165991903	5.0	-6.361829025844931	-1094.0	1162.0	-17.928090011411665	15.456747947515161	277.0	
2092.0	-1.4839474143128375	9.938591902049572	1263.0	-0.6473929373069562	2215.0	0.0	42175.0	3287.078857421875	755.0	0.585	-0.7267206477732794	-769.0	-0.4008097165991903	5.0	-20.614772901055208	-812.0	880.0	-12.97740169580898	11.179110439079965	1209.0	
2093.0	-1.0208509007425404	9.81967183050785	1272.0	-0.657188566373172	2176.0	0.0	42815.0	3306.610107421875	755.0	0.585	-0.7267206477732794	-769.0	-0.4008097165991903	5.0	-18.183208441657747	-657.0	752.0	-11.082141993232312	8.819668069096373	1050.0	
2095.0	-1.1186274011942043	9.565831309151012	1293.0	-0.687339527346994	2184.0	0.0	43455.0	3326.141357421875	755.0	0.585	-0.7267206477732794	-769.0	-0.4008097165991903	5.0	-10.21562930111638	-705.0	725.0	-10.9928987154484	9.557095717464207	529.0	
2089.0	-1.2515111346735082	9.372696056458707	1309.0	-0.6202419131091272	2195.0	0.0	44095.0	3345.672607421875	760.0	0.5975	-0.708502024291498	-760.0	-0.39068825910931176	0.0	-8.64046490289035	-728.0	709.0	-10.813336496684093	9.911814463788723	426.0	
2082.0	-1.1078378085899077	9.45431437910446	1302.0	-0.5328354639977857	2183.0	0.0	44735.0	3365.203857421875	760.0	0.5975	-0.708502024291498	-760.0	-0.39068825910931176	0.0	-13.30478666462762	-778.0	636.0	-9.511661866917196	10.692055392992636	731.0	
2061.0	-1.0230836815655175	9.596393748210152	1290.0	-0.27613428715265687	2176.0	0.0	45375.0	3384.735107421875	760.0	0.5975	-0.708502024291498	-760.0	-0.39068825910931176	0.0	-17.097415506958253	-931.0	577.0	-8.475984656739488	13.050118164787524	979.0	
2064.0	-0.8685930631418414	9.569265114387296	1292.0	-0.3112765319581303	2163.0	0.0	46015.0	3404.266357421875	768.0	0.6175	-0.6983805668016194	-755.0	-0.39068825910931176	0.0	-13.182443798745988	-848.0	575.0	-8.58907179714812	11.775395149759072	723.0	
2059.0	-0.8710371315570363	9.3248582728678	1312.0	-0.2559481456172505	2163.0	0.0	46655.0	3423.797607421875	768.0	0.6175	-0.6983805668016194	-755.0	-0.39068825910931176	0.0	-8.074629148187798	-975.0	622.0	-9.535742907890178	13.714677863233513	389.0	
2026.0	-0.9907100864072755	9.262324692605787	1317.0	0.13919481467478997	2173.0	0.0	47295.0	3443.328857421875	768.0	0.6175	-0.6983805668016194	-755.0	-0.39068825910931176	0.0	-7.875821991130143	-1150.0	665.0	-10.231915125398292	16.39300078123029	376.0	
2019.0	-0.7144040575357509	9.511975198805866	1296.0	0.2312882344850971	2150.0	0.0	47935.0	3462.860107421875	768.0	0.6175	-0.6983805668016194	-755.0	-0.39068825910931176	0.0	-10.674415048172504	-1069.0	617.0	-9.369280688327448	15.158723949292881	559.0	
2030.0	-0.8217559445703119	9.491072209635472	1298.0	0.09726653534941598	2159.0	0.0	48575.0	3482.391357421875	773.0	0.63	-0.6902834008097166	-751.0	-0.4048582995951417	7.0	-9.48157210582658	-965.0	509.0	-7.739916199908687	13.579191293732078	481.0	
2038.0	-0.8238186496030843	9.284801706358241	1315.0	-0.003265043935131051	2159.0	0.0	49215.0	3501.922607421875	773.0	0.63	-0.6902834008097166	-751.0	-0.4048582995951417	7.0	-10.6591221899373	-956.0	372.0	-5.58428065935327	13.462647296214508	558.0	
2035.0	-0.5149701541194512	9.217270302340594	1320.0	0.03461739125260535	2133.0	0.0	49855.0	3521.453857421875	773.0	0.63	-0.6902834008097166	-751.0	-0.4048582995951417	7.0	-12.295458021104146	-985.0	219.0	-3.170034471613822	13.931779784177525	665.0	
2020.0	-0.47830589045081284	9.312268097775862	1312.0	0.2176068813642621	2130.0	0.0	50495.0	3540.985107421875	777.0	0.64	-0.6639676113360324	-738.0	-0.354251012145749	-18.0	-8.30402202171586	-1095.0	149.0	-2.269903434781887	15.628674296939586	404.0	
2023.0	-0.6540340737998209	9.59659262001791	1289.0	0.18539151166235998	2145.0	0.0	51135.0	3560.516357421875	777.0	0.64	-0.6639676113360324	-738.0	-0.354251012145749	-18.0	-4.679614619972473	-1109.0	71.0	-1.2173178041134447	15.854022924460018	167.0	
2022.0	-0.7128157141499587	9.67080953738508	1283.0	0.19833622637728635	2150.0	0.0	51775.0	3580.047607421875	777.0	0.64	-0.6639676113360324	-738.0	-0.354251012145749	-18.0	-1.8351429882244994	-1242.0	-17.0	0.0020111363185391223	17.90703254039495	-19.0	
2001.0	-0.8205718469573688	9.609481970929775	1288.0	0.4490441619128772	2159.0	0.0	52415.0	3599.578857421875	783.0	0.655	-0.6720647773279352	-742.0	-0.3299595141700405	-30.0	-1.6516286894020493	-1480.0	-6.0	-0.2110327400857122	21.556889212264636	-31.0	
1980.0	-0.8294519496103624	9.911947896106625	1263.0	0.7080167275826553	2160.0	0.0	53055.0	3619.110107421875	783.0	0.655	-0.6720647773279352	-742.0	-0.3299595141700405	-30.0	-6.055971861140848	-1559.0	-27.0	0.27599736826361215	22.773973722339996	257.0	
1955.0	-0.4675348643487064	10.3893707079865	1223.0	1.0223891739499777	2130.0	0.0	53695.0	3638.641357421875	783.0	0.655	-0.6720647773279352	-742.0	-0.3299595141700405	-30.0	-8.655757761125555	-1630.0	82.0	-1.3074125665825616	23.8475979627184	427.0	
1954.0	-0.5627550287392058	10.391163792746084	1223.0	1.033521026772349	2138.0	0.0	54335.0	3658.172607421875	783.0	0.655	-0.6720647773279352	-742.0	-0.3299595141700405	-30.0	-4.4196360299740025	-1634.0	175.0	-2.907860316685125	23.892971419849875	150.0	
1965.0	-0.7782034645280997	10.27489164242813	1233.0	0.8965109789261732	2156.0	0.0	54975.0	3677.703857421875	782.0	0.6525	-0.6720647773279352	-742.0	-0.3076923076923077	-41.0	-3.731457409389815	-1522.0	227.0	-3.7179975680951736	22.166287877625788	105.0	
1951.0	-0.6585871134857576	10.33176484190043	1228.0	1.0675193052212233	2146.0	0.0	55615.0	3697.235107421875	782.0	0.6525	-0.6720647773279352	-742.0	-0.3076923076923077	-41.0	-7.7381862670133055	-1539.0	248.0	-3.883347667582693	22.425490598819035	367.0	
1957.0	-0.7154098860947248	10.601868533384668	1206.0	1.0000639946983123	2151.0	0.0	56255.0	3716.766357421875	782.0	0.6525	-0.6720647773279352	-742.0	-0.3076923076923077	-41.0	-11.286129377580671	-1484.0	205.0	-3.0716349463743113	21.58966112483425	599.0	
1952.0	-0.33405245821307067	10.642373226311985	1202.0	1.064928626691097	2119.0	0.0	56895.0	3736.297607421875	787.0	0.665	-0.6700404858299596	-741.0	-0.3097165991902834	-40.0	-12.998929499923538	-1441.0	216.0	-3.1657201427206245	20.928907475571418	711.0	
1949.0	-0.46620116466330885	10.522740676526263	1212.0	1.097359066944133	2130.0	0.0	57535.0	3755.828857421875	787.0	0.665	-0.6700404858299596	-741.0	-0.3097165991902834	-40.0	-6.514757608196972	-1426.0	267.0	-4.207175893390036	20.68832566319285	287.0	
1945.0	-0.6578629254837358	10.4041836421026	1222.0	1.141264079731793	2146.0	0.0	58175.0	3775.360107421875	787.0	0.665	-0.6700404858299596	-741.0	-0.3097165991902834	-40.0	-3.043278788805628	-1342.0	223.0	-3.6563818083707407	19.404896976760547	60.0	
1944.0	-0.41908531566462026	10.472420814490366	1216.0	1.1570647920488237	2126.0	0.0	58815.0	3794.891357421875	787.0	0.665	-0.6700404858299596	-741.0	-0.3097165991902834	-40.0	-6.698271907019422	-1103.0	92.0	-1.4586539365793585	15.75954266118661	299.0	
1939.0	-0.43233463305650854	10.337965265777717	1227.0	1.2144841517560736	2127.0	0.0	59455.0	3814.422607421875	791.0	0.675	-0.6639676113360324	-738.0	-0.3016194331983806	-44.0	-6.132436152316869	-1007.0	-9.0	0.08689591992217145	14.301927728571632	262.0	
1953.0	-0.42126871869772947	10.254080511179438	1234.0	1.044242417012515	2126.0	0.0	60095.0	3833.953857421875	791.0	0.675	-0.6639676113360324	-738.0	-0.3016194331983806	-44.0	-3.517357394096957	-827.0	-140.0	2.024793654311652	11.559299647453047	91.0	
1950.0	-0.5404179341111207	10.24392087460221	1235.0	1.0789923104400896	2136.0	0.0	60735.0	3853.485107421875	791.0	0.675	-0.6639676113360324	-738.0	-0.3016194331983806	-44.0	-1.3610643829331703	-941.0	-188.0	2.659333714958547	13.314916185085755	-50.0	
1937.0	-0.7198224569417963	10.160611448677516	1242.0	1.2321585827173853	2151.0	0.0	61375.0	3873.016357421875	791.0	0.675	-0.6700404858299596	-741.0	-0.2773279352226721	-56.0	-1.804557271754091	-1011.0	-225.0	3.235417892270083	14.394790882927612	-21.0	
1940.0	-0.7211597696362086	10.02688017923628	1253.0	1.1933260058883635	2151.0	0.0	62015.0	3892.547607421875	791.0	0.675	-0.6700404858299596	-741.0	-0.2773279352226721	-56.0	-4.74078605291329	-919.0	-295.0	4.443620570149224	12.995180413158913	171.0	
1941.0	-0.7447195006400603	10.051859459803493	1251.0	1.1815418014185848	2153.0	0.0	62655.0	3912.078857421875	791.0	0.675	-0.6700404858299596	-741.0	-0.2773279352226721	-56.0	-7.004129071723506	-833.0	-370.0	5.700893485915066	11.688127547717828	319.0	
1919.0	-0.5167724308607409	10.227518818687807	1236.0	1.4523947002579196	2134.0	0.0	63295.0	3931.610107421875	793.0	0.68	-0.6639676113360324	-738.0	-0.24696356275303644	-71.0	-7.2488148034867725	-907.0	-350.0	5.3917119377376626	12.820527522937299	335.0	
1922.0	-0.7200843266602203	10.134424476835123	1244.0	1.4123551161496184	2151.0	0.0	63935.0	3951.141357421875	793.0	0.68	-0.6639676113360324	-738.0	-0.24696356275303644	-71.0	-2.4468573176326656	-833.0	-252.0	3.703696966998463	11.668155582528664	21.0	
1926.0	-0.9594678351536974	10.005597437011236	1255.0	1.3591919691838683	2171.0	0.0	64575.0	3970.672607421875	793.0	0.68	-0.6639676113360324	-738.0	-0.24696356275303644	-71.0	-0.5964214711729623	-746.0	-149.0	2.0588220862776594	10.316736755464587	-100.0	
1922.0	-0.9116193677986191	10.028539410614274	1253.0	1.4083220644138172	2167.0	0.0	65215.0	3990.203857421875	793.0	0.68	-0.6639676113360324	-738.0	-0.24696356275303644	-71.0	-3.8079217005658363	-680.0	-77.0	1.0899844187298307	9.294312457352866	110.0	
1920.0	-0.7095252910295535	9.999851849425593	1255.0	1.4338656394999032	2150.0	0.0	319.0	4009.735107421875	794.0	0.6825	-0.6700404858299596	-741.0	-0.21862348178137653	-85.0	-7.661721975837285	-686.0	-14.0	0.2742156578557105	9.378221671692874	362.0	
1916.0	-0.5183607742465332	10.06868448010859	1249.0	1.4853467083657306	2134.0	0.0	959.0	4029.266357421875	794.0	0.6825	-0.6700404858299596	-741.0	-0.21862348178137653	-85.0	-7.432329102309223	-704.0	126.0	-1.8910203844098215	9.632770017116465	347.0	
1920.0	-0.5532097505647643	10.155215419714045	1242.0	1.43853606631032	2137.0	0.0	1599.0	4048.797607421875	794.0	0.6825	-0.6700404858299596	-741.0	-0.21862348178137653	-85.0	-1.9727787123413367	-696.0	299.0	-4.76901609881259	9.481234190707442	-10.0	
1918.0	-0.6370163586315326	10.107887946370555	1246.0	1.460847836304951	2144.0	0.0	2239.0	4068.328857421875	793.0	0.68	-0.6781376518218624	-745.0	-0.22469635627530365	-82.0	-0.3058571647040832	-727.0	410.0	-6.5477015083225	9.939126330014213	-119.0	
1899.0	-0.41040660154662556	10.149816035813634	1242.0	1.692868158315264	2125.0	0.0	2879.0	4087.860107421875	793.0	0.68	-0.6781376518218624	-745.0	-0.22469635627530365	-82.0	-2.9515216393944033	-730.0	460.0	-7.211381340100801	9.978522982670805	54.0	
1898.0	-0.28931176609178416	10.354537676535868	1225.0	1.7102217322553417	2115.0	0.0	3519.0	4107.391357421875	793.0	0.68	-0.6781376518218624	-745.0	-0.22469635627530365	-82.0	-3.4561859611561405	-645.0	463.0	-7.2242974111681795	8.674112711019514	87.0	
1901.0	-0.32245531403290095	10.611611453852763	1204.0	1.6788871940090153	2118.0	0.0	4159.0	4126.922607421875	793.0	0.68	-0.6781376518218624	-745.0	-0.22469635627530365	-82.0	-2.1410001529285827	-673.0	537.0	-8.419368209315977	9.091807545465535	1.0	
1900.0	-0.28674940834892876	10.61077345082141	1204.0	1.6912756857763125	2115.0	0.0	4799.0	4146.453857421875	791.0	0.675	-0.6396761133603239	-726.0	-0.18421052631578946	-102.0	-3.82321455880104	-655.0	548.0	-8.518512449331272	8.814615397219134	111.0	
1900.0	-0.11999432591747158	10.619615027300462	1203.0	1.693120068130208	2101.0	0.0	5439.0	4165.985107421875	791.0	0.675	-0.6396761133603239	-726.0	-0.18421052631578946	-102.0	-8.074629148187798	-596.0	478.0	-7.262770772630089	7.921848278156775	389.0	
1905.0	-0.07189121486199908	10.66802137094295	1199.0	1.6343282622581907	2097.0	0.0	6079.0	4185.516357421875	791.0	0.675	-0.6396761133603239	-726.0	-0.18421052631578946	-102.0	-7.432329102309223	-554.0	440.0	-6.697549155868592	7.283032180683144	347.0	
1913.0	-0.03593066547763238	10.692647737951049	1197.0	1.5387948529235216	2094.0	0.0	6719.0	4205.047607421875	792.0	0.6775	-0.6396761133603239	-726.0	-0.1902834008097166	-99.0	-4.358464597033186	-351.0	337.0	-5.205132040832088	4.183026169234153	146.0	
1896.0	-0.16602389291312766	10.778563089639617	1190.0	1.744031504791372	2105.0	0.0	7359.0	4224.578857421875	792.0	0.6775	-0.6396761133603239	-726.0	-0.1902834008097166	-99.0	-0.7799357699954123	-341.0	316.0	-5.023729659205422	4.0313953564691705	-88.0	
1901.0	-0.2149682769619441	10.646029446662732	1201.0	1.6806504242359241	2109.0	0.0	7999.0	4244.110107421875	792.0	0.6775	-0.6396761133603239	-726.0	-0.1902834008097166	-99.0	-1.498700107050008	-215.0	226.0	-3.59138587106199	2.1123138534268673	-41.0	
1904.0	-0.20367180562953516	10.585200389427435	1206.0	1.6434022294912896	2108.0	0.0	8639.0	4263.641357421875	791.0	0.675	-0.6518218623481782	-732.0	-0.19635627530364372	-96.0	-4.266707447621961	-55.0	167.0	-2.5486659913716503	-0.33237633307621467	140.0	
1903.0	-0.19152683528575293	10.609221233329471	1204.0	1.6560522888438525	2107.0	0.0	9279.0	4283.172607421875	791.0	0.675	-0.6518218623481782	-732.0	-0.19635627530364372	-96.0	-4.067900290564307	30.0	144.0	-2.1898196268309045	-1.6330689803714242	127.0	
1900.0	-0.3233098347259655	10.526159384546308	1211.0	1.68921780018704	2118.0	0.0	9919.0	4302.703857421875	791.0	0.675	-0.6518218623481782	-732.0	-0.19635627530364372	-96.0	-3.2879645205688948	86.0	139.0	-2.1355183324876705	-2.4918170522829866	76.0	
1899.0	-0.40333626601946465	10.856849588529727	1184.0	1.7070795327248576	2125.0	0.0	10559.0	4322.235107421875	791.0	0.675	-0.6518218623481782	-732.0	-0.19635627530364372	-96.0	-3.700871692919407	197.0	99.0	-1.4867445907158303	-4.188567000917133	103.0	
1884.0	-0.626939412122992	11.115582597224615	1163.0	1.8907410530039852	2144.0	0.0	11199.0	4341.766357421875	785.0	0.66	-0.6275303643724697	-720.0	-0.18218623481781376	-103.0	-3.762043125860224	121.0	148.0	-2.24961344944706	-3.030014931486952	107.0	
1875.0	-0.6234150833864556	11.468015470878248	1134.0	2.0062586887041824	2144.0	0.0	11839.0	4361.297607421875	785.0	0.66	-0.6275303643724697	-720.0	-0.18218623481781376	-103.0	-4.618443187031657	202.0	219.0	-3.294963551046836	-4.283371608811067	163.0	
1853.0	-0.5091280108611295	12.182437009125152	1075.0	2.286750231158229	2135.0	0.0	12479.0	4380.828857421875	785.0	0.66	-0.6275303643724697	-720.0	-0.18218623481781376	-103.0	-6.28536473466891	231.0	302.0	-4.500442898383073	-4.740416428370052	272.0	
1826.0	-0.7197461179638687	12.549197727422651	1045.0	2.6172804692724285	2153.0	0.0	13119.0	4400.360107421875	786.0	0.6625	-0.6255060728744939	-719.0	-0.20647773279352227	-91.0	-4.710200336442882	28.0	475.0	-7.2554523322628635	-1.6530363401094936	169.0	
1826.0	-0.7548437163008033	12.610866465157773	1040.0	2.618162868043761	2156.0	0.0	13759.0	4419.891357421875	786.0	0.6625	-0.6255060728744939	-719.0	-0.20647773279352227	-91.0	-5.933628995259214	-53.0	631.0	-9.618338755057776	-0.4337620280293257	249.0	
1824.0	-0.5150920921246243	12.776505073251865	1026.0	2.6479695419895743	2136.0	0.0	14399.0	4439.422607421875	786.0	0.6625	-0.6255060728744939	-719.0	-0.20647773279352227	-91.0	-8.961614925829638	-31.0	681.0	-10.262891520392987	-0.7777861961614257	447.0	
1833.0	-0.5965693080948433	12.962116809563295	1011.0	2.542433269616341	2143.0	0.0	15039.0	4458.953857421875	786.0	0.6625	-0.6255060728744939	-719.0	-0.20647773279352227	-91.0	-5.398378957027069	-15.0	716.0	-10.941276714207952	-1.030081786629574	214.0	
