Device	Device	Device	Device	Device	Device	Device	Device	Device	Device	Device	Device	Device	Device	Device	Device	Device	Device	Device	Device	Device	
Low Noise Accelerometer X	Low Noise Accelerometer X	Low Noise Accelerometer Z	Low Noise Accelerometer Z	Low Noise Accelerometer Y	Low Noise Accelerometer Y	Event_Marker	Timestamp	Timestamp	Magnetometer Z	Magnetometer Z	Magnetometer X	Magnetometer X	Magnetometer Y	Magnetometer Y	Gyroscope Y	Gyroscope Y	Gyroscope Z	Gyroscope Z	Gyroscope X	Gyroscope X	
UNCAL	CAL	CAL	UNCAL	CAL	UNCAL	CAL	UNCAL	CAL	UNCAL	CAL	CAL	UNCAL	CAL	UNCAL	CAL	UNCAL	UNCAL	CAL	CAL	UNCAL	
no units	m/(s^2)	m/(s^2)	no units	m/(s^2)	no units	no units	no units	ms	no units	local_flux	local_flux	no units	local_flux	no units	deg/s	no units	no units	deg/s	deg/s	no units	
2516.0	-1.8100087820033737	7.094359894900733	1501.0	-5.815971926066597	2240.0	0.0	33573.0	1024.566650390625	600.0	0.1975	-0.6740890688259109	-743.0	-0.7995951417004049	202.0	0.8411072029362289	830.0	-788.0	12.071405780774755	-13.766043652795291	-194.0	
2481.0	-0.7902260856299104	6.691677151294664	1532.0	-5.392141006987033	2154.0	0.0	34213.0	1044.097900390625	600.0	0.1975	-0.6740890688259109	-743.0	-0.7995951417004049	202.0	0.749350053525004	558.0	-831.0	12.694713442480774	-9.586111021168257	-188.0	
2489.0	-1.287799846826722	6.934301031613513	1513.0	-5.4886498091612985	2196.0	0.0	34853.0	1063.629150390625	601.0	0.2	-0.6761133603238867	-744.0	-0.7894736842105263	197.0	29.80578070041291	1005.0	-578.0	7.709835578492374	-16.49494399498997	-2088.0	
2564.0	-2.3020928235836706	6.695479546394856	1535.0	-6.407183626464566	2281.0	0.0	35493.0	1083.160400390625	601.0	0.2	-0.6761133603238867	-744.0	-0.7894736842105263	197.0	37.436916959779786	1156.0	-348.0	3.890225015996717	-18.850157132991793	-2587.0	
2580.0	-2.3288039502960034	6.405319256113935	1559.0	-6.606025027874657	2283.0	0.0	36133.0	1102.691650390625	601.0	0.2	-0.6761133603238867	-744.0	-0.7894736842105263	197.0	20.24774430341031	493.0	-596.0	8.290415699956897	-8.632762560815376	-1463.0	
2549.0	-1.8940170429716539	7.026867131406036	1507.0	-6.215752225391957	2247.0	0.0	36773.0	1122.222900390625	584.0	0.1575	-0.688259109311741	-750.0	-0.7692307692307693	187.0	18.611408472243465	-29.0	-538.0	7.383691165643947	-0.6320093366173062	-1356.0	
2559.0	-3.1974143881925783	7.639513561694564	1459.0	-6.337015197949239	2357.0	0.0	37413.0	1141.754150390625	584.0	0.1575	-0.688259109311741	-750.0	-0.7692307692307693	187.0	39.409695672121124	472.0	-293.0	2.860436889430863	-8.364828192100015	-2716.0	
2596.0	-2.9858090190330553	7.371479049075453	1481.0	-6.786042967040147	2339.0	0.0	38053.0	1161.285400390625	584.0	0.1575	-0.688259109311741	-750.0	-0.7692307692307693	187.0	26.05903043278789	61.0	-259.0	2.8084064121342727	-2.0587657133836443	-1843.0	
2565.0	-2.0336567529179295	7.348610422492819	1481.0	-6.4034848410070335	2259.0	0.0	38693.0	1180.816650390625	584.0	0.1575	-0.688259109311741	-750.0	-0.7692307692307693	187.0	19.085487077534793	-528.0	5.0	-1.0635573716073412	6.940415523414509	-1387.0	
2535.0	-2.9143463611723917	7.37488769228467	1480.0	-6.050320408561211	2333.0	0.0	39333.0	1200.347900390625	577.0	0.14	-0.7024291497975709	-757.0	-0.7651821862348178	185.0	29.98929499923536	-459.0	146.0	-3.6577596672766517	5.855704128047198	-2100.0	
2517.0	-3.0202703459206592	7.4967749317436185	1470.0	-5.832074433739996	2342.0	0.0	39973.0	1219.879150390625	577.0	0.14	-0.7024291497975709	-757.0	-0.7651821862348178	185.0	11.377886526991896	-465.0	147.0	-2.92967905435248	5.955051836125189	-883.0	
2469.0	-2.3666730223859385	7.380316809025238	1478.0	-5.249554369946969	2287.0	0.0	40613.0	1239.410400390625	577.0	0.14	-0.7024291497975709	-757.0	-0.7651821862348178	185.0	-6.912371922312281	-424.0	-282.0	4.406473678219864	5.39928953346779	313.0	
2476.0	-2.6892476055811168	7.265715632364573	1488.0	-5.339409488709724	2314.0	0.0	41253.0	1258.941650390625	574.0	0.1325	-0.7004048582995952	-756.0	-0.7591093117408907	182.0	-3.027985930570424	52.0	-355.0	5.4469381029098445	-1.8942800435527642	59.0	
2521.0	-2.5735829758050994	6.927416705204349	1516.0	-5.887187495653964	2304.0	0.0	41893.0	1278.472900390625	574.0	0.1325	-0.7004048582995952	-756.0	-0.7591093117408907	182.0	-6.499464749961769	410.0	-446.0	7.040355813926096	-7.371671016051319	286.0	
2539.0	-2.393928626619382	7.035708766633201	1507.0	-6.1000925808130475	2289.0	0.0	42533.0	1298.004150390625	574.0	0.1325	-0.7004048582995952	-756.0	-0.7591093117408907	182.0	0.0764642911760208	101.0	-443.0	6.683793107393271	-2.6337911927560507	-144.0	
2480.0	-2.9637287124115272	7.198557330275809	1494.0	-5.391690236904141	2337.0	0.0	43173.0	1317.535400390625	574.0	0.1325	-0.7004048582995952	-756.0	-0.7591093117408907	182.0	-8.19697201406943	-218.0	-627.0	9.795804250420169	2.292219205616063	397.0	
2469.0	-2.8085235406765356	7.242884027584532	1490.0	-5.256721530758688	2324.0	0.0	43813.0	1337.066650390625	573.0	0.13	-0.7105263157894737	-761.0	-0.7510121457489879	178.0	-22.556965896926137	80.0	-773.0	12.661452339405646	-2.2517804436153037	1336.0	
2533.0	-2.7969098001541437	7.213781889347515	1493.0	-6.028271773467603	2323.0	0.0	44453.0	1356.597900390625	573.0	0.13	-0.7105263157894737	-761.0	-0.7510121457489879	178.0	-26.517816179844015	249.0	-989.0	16.168033629089607	-4.809932368941573	1595.0	
2549.0	-2.0366016783795455	7.054117876331188	1505.0	-6.216633056847533	2259.0	0.0	45093.0	1376.129150390625	573.0	0.13	-0.7105263157894737	-761.0	-0.7510121457489879	178.0	-32.51261660804405	-289.0	-1065.0	17.494190623681245	3.458661409075542	1987.0	
2505.0	-1.5163636543074468	6.696967902588664	1533.0	-5.688453194153952	2215.0	0.0	45733.0	1395.660400390625	581.0	0.15	-0.7105263157894737	-761.0	-0.757085020242915	181.0	-24.30035173573941	-645.0	-900.0	14.573294690569597	8.892088632036891	1450.0	
2480.0	-1.471222329422326	6.449195629195991	1553.0	-5.391752407095845	2211.0	0.0	46373.0	1415.191650390625	581.0	0.15	-0.7105263157894737	-761.0	-0.757085020242915	181.0	-18.657287046949076	-530.0	-699.0	11.273716191232582	7.0944772263591585	1081.0	
2499.0	-1.611346035706287	6.72253928651417	1531.0	-5.6166024336629246	2223.0	0.0	47013.0	1434.722900390625	581.0	0.15	-0.7105263157894737	-761.0	-0.757085020242915	181.0	-5.505428964673498	-395.0	-699.0	10.768407451753976	5.01791884511751	221.0	
2501.0	-2.0174870353038976	6.584629802943583	1543.0	-5.6475184188724805	2257.0	0.0	47653.0	1454.254150390625	588.0	0.1675	-0.7125506072874495	-762.0	-0.7469635627530364	176.0	5.750114696436764	-579.0	-983.0	14.658121567246562	7.880200979367418	-515.0	
2477.0	-1.6963957538665717	6.550900803819019	1545.0	-5.355825459534574	2230.0	0.0	48293.0	1473.785400390625	588.0	0.1675	-0.7125506072874495	-762.0	-0.7469635627530364	176.0	5.245450374675027	-859.0	-1193.0	17.865295134322835	12.208728139313154	-482.0	
2450.0	-1.668966460833908	6.912877726132992	1515.0	-5.023010423338691	2228.0	0.0	48933.0	1493.316650390625	588.0	0.1675	-0.7125506072874495	-762.0	-0.7469635627530364	176.0	12.524850894632207	-828.0	-1369.0	20.28590964572993	11.757255291025354	-958.0	
2490.0	-2.823813885047108	6.904325781003478	1518.0	-5.516657647326787	2325.0	0.0	49573.0	1512.847900390625	588.0	0.1675	-0.7125506072874495	-762.0	-0.7469635627530364	176.0	27.74124483866035	-597.0	-1336.0	19.205193503635314	8.201872404577554	-1953.0	
2491.0	-2.7509356326300467	7.0492938798524705	1506.0	-5.52507769559672	2319.0	0.0	50213.0	1532.379150390625	589.0	0.17	-0.7469635627530364	-779.0	-0.742914979757085	174.0	10.368557883468421	-862.0	-1662.0	24.87348440749912	12.324843483019292	-817.0	
2463.0	-2.2708517766664302	7.438631857166479	1473.0	-5.175140699900443	2279.0	0.0	50853.0	1551.910400390625	589.0	0.17	-0.7469635627530364	-779.0	-0.742914979757085	174.0	5.428964673497477	-1225.0	-1909.0	28.814389044297663	17.934300097286616	-494.0	
2460.0	-2.753610759475988	7.972257385734545	1430.0	-5.1331512008439235	2320.0	0.0	51493.0	1571.441650390625	589.0	0.17	-0.7469635627530364	-779.0	-0.742914979757085	174.0	16.745679767548555	-1202.0	-2054.0	30.595497649210607	17.599188059198877	-1234.0	
2494.0	-3.376272024829466	7.61089275514863	1461.0	-5.556243660326045	2372.0	0.0	52133.0	1590.972900390625	590.0	0.17250000000000001	-0.7753036437246964	-793.0	-0.7125506072874495	159.0	9.741550695825051	-1141.0	-2207.0	33.23824275197313	16.68960200708088	-776.0	
2506.0	-3.1105486168582566	6.802281171317217	1527.0	-5.714336971175973	2349.0	0.0	52773.0	1610.504150390625	590.0	0.17250000000000001	-0.7753036437246964	-793.0	-0.7125506072874495	159.0	-23.56629454044961	-1226.0	-2136.0	33.465351368633165	17.996154204188095	1402.0	
2464.0	-2.374846500624867	6.562968985132357	1545.0	-5.205742097351793	2287.0	0.0	53413.0	1630.035400390625	590.0	0.17250000000000001	-0.7753036437246964	-793.0	-0.7125506072874495	159.0	-40.189631442116536	-1388.0	-1791.0	28.799017549304118	20.435297218611044	2489.0	
2428.0	-2.237624865151462	7.189894437234745	1493.0	-4.758096432195976	2276.0	0.0	54053.0	1649.566650390625	590.0	0.17250000000000001	-0.7753036437246964	-793.0	-0.7125506072874495	159.0	-34.5618596115614	-1235.0	-1635.0	26.19801301050596	18.06158117352995	2121.0	
2435.0	-2.613372376873381	7.710381360280942	1451.0	-4.835781518249862	2308.0	0.0	54693.0	1669.097900390625	610.0	0.2225	-0.7793522267206477	-795.0	-0.645748987854251	126.0	-17.479736962838356	-905.0	-1668.0	26.07299161596627	12.996651352403335	1004.0	
2432.0	-3.1870058946041913	7.489886730057073	1470.0	-4.809783167718393	2356.0	0.0	55333.0	1688.629150390625	610.0	0.2225	-0.7793522267206477	-795.0	-0.645748987854251	126.0	-17.907936993424073	-838.0	-1793.0	28.022986532347378	11.988070896472777	1032.0	
2440.0	-2.391000297499988	7.328541678572627	1482.0	-4.901435554945716	2289.0	0.0	55973.0	1708.160400390625	610.0	0.2225	-0.7793522267206477	-795.0	-0.645748987854251	126.0	-43.30937452209818	-580.0	-1610.0	26.26385716835269	8.011602819036604	2693.0	
2468.0	-2.128139217240173	7.424173514077964	1474.0	-5.234243705023373	2267.0	0.0	56613.0	1727.691650390625	623.0	0.255	-0.7874493927125507	-799.0	-0.6417004048582996	124.0	-42.070653005046644	-244.0	-1231.0	20.436576173527158	2.7975834999583804	2612.0	
2476.0	-2.545322044469798	7.372557457782127	1479.0	-5.33583339659026	2302.0	0.0	57253.0	1747.222900390625	623.0	0.255	-0.7874493927125507	-799.0	-0.6417004048582996	124.0	-30.432787888056282	-498.0	-1078.0	17.578888269773874	6.666505470084574	1851.0	
2414.0	-2.3060083874839385	7.494399346844242	1468.0	-4.58401547043193	2282.0	0.0	57893.0	1766.754150390625	623.0	0.255	-0.7874493927125507	-799.0	-0.6417004048582996	124.0	-28.96467349747668	-1002.0	-1044.0	16.919896933564605	14.393535320417431	1755.0	
2431.0	-1.921333101112613	7.866689888738689	1437.0	-4.7775421838387615	2250.0	0.0	58533.0	1786.285400390625	637.0	0.29	-0.7773279352226721	-794.0	-0.5931174089068826	100.0	-28.827037773359844	-781.0	-888.0	14.548909086242354	10.978694553498606	1746.0	
2466.0	-2.1362650234826885	7.8020690803025765	1443.0	-5.202670666219137	2268.0	0.0	59173.0	1805.816650390625	637.0	0.29	-0.7773279352226721	-794.0	-0.5931174089068826	100.0	-19.69720140694296	-876.0	-726.0	11.677501193564241	12.407706422093693	1149.0	
2459.0	-2.446344585696456	7.7464938113068	1448.0	-5.122545617823599	2294.0	0.0	59813.0	1825.347900390625	637.0	0.29	-0.7773279352226721	-794.0	-0.5931174089068826	100.0	-13.075393791099557	-1333.0	-672.0	10.511979710982637	19.408480239030958	716.0	
2417.0	-2.408006206395497	8.00890316997409	1426.0	-4.610889950471702	2291.0	0.0	60453.0	1844.879150390625	637.0	0.29	-0.7773279352226721	-794.0	-0.5931174089068826	100.0	-12.57072946933782	-1718.0	-669.0	10.386582669078217	25.314852476990005	683.0	
2395.0	-2.4053508503880843	8.274438770715385	1404.0	-4.340492443932947	2291.0	0.0	61093.0	1864.410400390625	644.0	0.3075	-0.7651821862348178	-788.0	-0.5809716599190283	94.0	-12.463679461691392	-1766.0	-551.0	8.560012605217985	26.033121991941393	676.0	
2421.0	-2.4066604633467175	8.143477474852093	1415.0	-4.656377778027992	2291.0	0.0	61733.0	1883.941650390625	644.0	0.3075	-0.7651821862348178	-788.0	-0.5809716599190283	94.0	-16.485701177550087	-1428.0	-309.0	5.050604539304943	20.811592434836047	939.0	
2410.0	-2.681647244568903	8.025751733585897	1425.0	-4.52895204018361	2314.0	0.0	62373.0	1903.472900390625	644.0	0.3075	-0.7651821862348178	-788.0	-0.5809716599190283	94.0	-18.718458479889893	-1483.0	-23.0	0.7325839863927881	21.612358830503798	1085.0	
2392.0	-2.4867206160576867	8.47079553708845	1388.0	-4.301234427948928	2298.0	0.0	63013.0	1923.004150390625	660.0	0.34750000000000003	-0.7631578947368421	-787.0	-0.5607287449392713	84.0	-27.34363052454504	-1579.0	249.0	-3.1207262017760407	23.0468961598021	1649.0	
2408.0	-2.315679682461186	8.908222230071837	1352.0	-4.483546569090645	2284.0	0.0	63653.0	1942.535400390625	660.0	0.34750000000000003	-0.7631578947368421	-787.0	-0.5607287449392713	84.0	-28.88820920630066	-1331.0	511.0	-7.050644950972929	19.20216502509515	1750.0	
2417.0	-2.3574710702882125	8.300512018797837	1402.0	-4.604552422134153	2287.0	0.0	64293.0	1962.066650390625	660.0	0.34750000000000003	-0.7631578947368421	-787.0	-0.5607287449392713	84.0	-26.364887597491975	-1171.0	717.0	-10.295445431690316	16.714599634987994	1585.0	
2404.0	-1.7028563762882514	8.285790942603436	1402.0	-4.441674190693947	2232.0	0.0	64933.0	1981.597900390625	660.0	0.34750000000000003	-0.7631578947368421	-787.0	-0.5607287449392713	84.0	-33.43018810215629	-1282.0	888.0	-12.659993892816718	18.394191836428597	2047.0	
2401.0	-1.0102063845077693	8.5031710730326	1383.0	-4.394255509854305	2174.0	0.0	37.0	2001.129150390625	670.0	0.3725	-0.7348178137651822	-773.0	-0.5748987854251012	91.0	-30.90686649334761	-1343.0	1024.0	-14.862052534667363	19.308184753155704	1882.0	
2385.0	-0.8392039896740923	8.936743889733632	1347.0	-4.191102945234598	2160.0	0.0	677.0	2020.660400390625	670.0	0.3725	-0.7348178137651822	-773.0	-0.5748987854251012	91.0	-13.70240097874293	-1604.0	1126.0	-17.159039945106482	23.29012511382192	757.0	
2376.0	-1.0422865328362798	8.866584811610103	1353.0	-4.086103217288932	2177.0	0.0	1317.0	2040.191650390625	670.0	0.3725	-0.7348178137651822	-773.0	-0.5748987854251012	91.0	7.661721975837285	-1709.0	1210.0	-19.321609220525282	24.87967020517084	-640.0	
2393.0	-1.7106273145477857	8.699173307126193	1368.0	-4.300954132304159	2233.0	0.0	1957.0	2059.722900390625	673.0	0.38	-0.7449392712550608	-778.0	-0.597165991902834	102.0	20.9512157822297	-1820.0	1271.0	-20.8083898535502	26.56804008489246	-1509.0	
2378.0	-1.8883276133376852	8.786286285279113	1361.0	-4.120265984162734	2248.0	0.0	2597.0	2079.254150390625	673.0	0.38	-0.7449392712550608	-778.0	-0.597165991902834	102.0	15.461079675791407	-2092.0	1143.0	-18.66180820575482	30.763205456380387	-1150.0	
2376.0	-1.7669901775458314	9.01526795970256	1342.0	-4.090376590774178	2238.0	0.0	3237.0	2098.785400390625	673.0	0.38	-0.7449392712550608	-778.0	-0.597165991902834	102.0	5.734821838201561	-2188.0	1010.0	-16.24189148655828	32.26047505475234	-514.0	
2365.0	-1.6218588407674819	9.242687351823243	1323.0	-3.951846769082053	2226.0	0.0	3877.0	2118.316650390625	682.0	0.4025	-0.7327935222672065	-772.0	-0.597165991902834	102.0	-1.1163786511699039	-2403.0	973.0	-15.431771910068923	35.56764023701409	-66.0	
2345.0	-1.689761979771287	9.595230594299874	1294.0	-3.704511080200872	2232.0	0.0	4517.0	2137.847900390625	682.0	0.4025	-0.7327935222672065	-772.0	-0.597165991902834	102.0	-2.171585869398991	-2672.0	959.0	-15.215510424141689	39.69746895590897	3.0	
2355.0	-1.6884090107044776	9.730527500980818	1283.0	-3.822273540087428	2232.0	0.0	5157.0	2157.379150390625	682.0	0.4025	-0.7327935222672065	-772.0	-0.597165991902834	102.0	-5.872457562318398	-2590.0	908.0	-14.270492888454685	38.44867147129959	245.0	
2371.0	-1.7017549393699383	9.586410824910946	1295.0	-4.01806041723283	2233.0	0.0	5797.0	2176.910400390625	682.0	0.4025	-0.7327935222672065	-772.0	-0.597165991902834	102.0	-10.429729316409238	-2544.0	930.0	-14.419538126749798	37.741334770642894	543.0	
2343.0	-1.7841300321413982	9.682234881098267	1287.0	-3.679618289446436	2240.0	0.0	6437.0	2196.441650390625	694.0	0.4325	-0.7267206477732794	-769.0	-0.5789473684210527	93.0	-17.49502982107356	-2821.0	814.0	-12.395291880285589	42.011999206408134	1005.0	
2331.0	-1.7304398873166171	10.28934460167162	1237.0	-3.5223608803337094	2236.0	0.0	7077.0	2215.972900390625	694.0	0.4325	-0.7267206477732794	-769.0	-0.5789473684210527	93.0	-26.013151858082278	-2784.0	772.0	-11.402934322446468	41.454176886635906	1562.0	
2346.0	-1.432253060418914	10.346122529537164	1232.0	-3.698966345073687	2211.0	0.0	7717.0	2235.504150390625	694.0	0.4325	-0.7267206477732794	-769.0	-0.5789473684210527	93.0	-26.53310903807922	-2581.0	861.0	-12.719875190079872	38.326077295360214	1596.0	
2358.0	-1.244482539681387	10.075555555670814	1254.0	-3.847078292596651	2195.0	0.0	8357.0	2255.035400390625	706.0	0.4625	-0.7024291497975709	-757.0	-0.5242914979757085	66.0	-24.392108885150638	-2448.0	1037.0	-15.49210561361186	36.25753866459428	1456.0	
2320.0	-1.182822212368236	10.289207334604972	1236.0	-3.3843573284436306	2190.0	0.0	8997.0	2274.566650390625	706.0	0.4625	-0.7024291497975709	-757.0	-0.5242914979757085	66.0	-18.41260131518581	-2561.0	1041.0	-15.810122376806962	37.98828515033045	1065.0	
2281.0	-1.0598227043074446	10.684396235922208	1203.0	-2.9053440372643893	2180.0	0.0	9637.0	2294.097900390625	706.0	0.4625	-0.7024291497975709	-757.0	-0.5242914979757085	66.0	-16.57745832696131	-2574.0	1024.0	-15.624043256082192	38.18962422909332	945.0	
2281.0	-1.0958955213377806	10.648543104317179	1206.0	-2.906421828066793	2183.0	0.0	10277.0	2313.629150390625	706.0	0.4625	-0.7024291497975709	-757.0	-0.5242914979757085	66.0	-9.420400672885764	-2359.0	918.0	-14.246954249493488	34.90433113266236	477.0	
2288.0	-1.059814273953077	10.685239271358974	1203.0	-2.9896644416497007	2180.0	0.0	10917.0	2333.160400390625	716.0	0.4875	-0.6842105263157895	-748.0	-0.520242914979757	64.0	-12.02018657287047	-2137.0	878.0	-13.493683431463387	31.50538846873892	647.0	
2263.0	-0.8924797882466997	10.752021175330027	1197.0	-2.685450639436107	2166.0	0.0	11557.0	2352.691650390625	716.0	0.4875	-0.6842105263157895	-748.0	-0.520242914979757	64.0	-17.78559412754244	-2274.0	761.0	-11.484566864024808	33.62767389557642	1024.0	
2237.0	-0.8340963719877198	10.63798184884706	1206.0	-2.373894579754984	2161.0	0.0	12197.0	2372.222900390625	716.0	0.4875	-0.6842105263157895	-748.0	-0.520242914979757	64.0	-15.736351124025083	-2244.0	756.0	-11.48502194913562	33.16733483498157	890.0	
2224.0	-0.9203542744877123	10.345524932181135	1230.0	-2.2239797910892065	2168.0	0.0	12837.0	2391.754150390625	725.0	0.51	-0.6720647773279352	-742.0	-0.548582995951417	78.0	-10.108579293469951	-2141.0	721.0	-11.155982197197607	31.590143415714078	522.0	
2214.0	-0.7083178997893856	10.120590973442386	1248.0	-2.105876178806155	2150.0	0.0	13477.0	2411.285400390625	725.0	0.51	-0.6720647773279352	-742.0	-0.548582995951417	78.0	-10.077993576999543	-2078.0	598.0	-9.255712015341194	30.642443647070774	520.0	
2216.0	-0.39690343355388247	10.309656644611751	1232.0	-2.123077106262581	2124.0	0.0	14117.0	2430.816650390625	725.0	0.51	-0.6720647773279352	-742.0	-0.548582995951417	78.0	-10.720293622878117	-1944.0	500.0	-7.702153370559521	28.601818423329853	562.0	
2211.0	-0.5631769283203302	10.348973834633657	1229.0	-2.0637125335543853	2138.0	0.0	14757.0	2450.347900390625	731.0	0.525	-0.6639676113360324	-738.0	-0.48785425101214575	48.0	-0.2752714482336749	-1948.0	374.0	-6.182556637081816	28.678392325297132	-121.0	
2191.0	-0.6102009833907994	10.408473089491483	1224.0	-1.822028933586247	2142.0	0.0	15397.0	2469.879150390625	731.0	0.525	-0.6639676113360324	-738.0	-0.48785425101214575	48.0	9.802722128765867	-2075.0	329.0	-5.912989631292781	30.62983741993688	-780.0	
2173.0	-1.0766093337690765	10.196209480235192	1242.0	-1.6140708193956377	2181.0	0.0	16037.0	2489.410400390625	731.0	0.525	-0.6639676113360324	-738.0	-0.48785425101214575	48.0	12.524850894632207	-1999.0	423.0	-7.455990069473415	29.448226657537585	-958.0	
2167.0	-1.3281510603060567	10.042036826537206	1255.0	-1.547380533108461	2202.0	0.0	16677.0	2508.941650390625	731.0	0.525	-0.6639676113360324	-738.0	-0.48785425101214575	48.0	8.885150634653618	-1700.0	504.0	-8.510378773733796	24.849682156715634	-720.0	
2171.0	-0.9707094357475736	10.07191356809977	1252.0	-1.591401353115962	2172.0	0.0	17317.0	2528.472900390625	731.0	0.525	-0.6558704453441295	-734.0	-0.4574898785425101	33.0	-3.899678849977061	-1415.0	511.0	-8.062974298563939	20.480978358901734	116.0	
2164.0	-0.7089876282896734	10.053618123413608	1253.0	-1.504812694537516	2150.0	0.0	17957.0	2548.004150390625	731.0	0.525	-0.6558704453441295	-734.0	-0.4574898785425101	33.0	-9.1910077993577	-1310.0	478.0	-7.327668750104558	18.877160630283214	462.0	
2157.0	-0.507509084885675	9.963377225718215	1260.0	-1.4202653776597938	2133.0	0.0	18597.0	2567.535400390625	731.0	0.525	-0.6558704453441295	-734.0	-0.4574898785425101	33.0	-7.524086251720448	-1365.0	462.0	-7.156686194121025	19.722817057039915	353.0	
2155.0	-0.711314611713546	9.820919781026337	1272.0	-1.4010561962797412	2150.0	0.0	19237.0	2587.066650390625	735.0	0.535	-0.6497975708502024	-731.0	-0.45546558704453444	32.0	-0.9634500688178621	-1330.0	522.0	-8.336558018061607	19.17396141076614	-76.0	
2140.0	-0.8077706601795328	9.699124458237202	1282.0	-1.2237337716539187	2158.0	0.0	19877.0	2606.597900390625	735.0	0.535	-0.6497975708502024	-731.0	-0.45546558704453444	32.0	3.991435999388286	-1268.0	604.0	-9.786439301346016	18.208104611129553	-400.0	
2139.0	-0.5949920324341107	9.54841580420798	1294.0	-1.2125719656859646	2140.0	0.0	20517.0	2626.129150390625	735.0	0.535	-0.6497975708502024	-731.0	-0.45546558704453444	32.0	5.7195289799663565	-1112.0	705.0	-11.385072900066074	15.798378824474865	-513.0	
2150.0	-0.2714205524914428	9.762706655617622	1276.0	-1.337580554340273	2113.0	0.0	21157.0	2645.660400390625	735.0	0.535	-0.6497975708502024	-731.0	-0.45546558704453444	32.0	5.9030432787888065	-996.0	748.0	-12.035985481763218	14.011909594315405	-525.0	
2140.0	-0.2697259631413726	9.932165590624649	1262.0	-1.213692502035788	2113.0	0.0	21797.0	2665.191650390625	736.0	0.5375	-0.6659919028340081	-739.0	-0.4757085020242915	42.0	9.236886374063314	-1042.0	736.0	-11.99181509847782	14.718197546422006	-743.0	
2137.0	-0.4941679735655673	10.10701216725279	1248.0	-1.1762954122942142	2132.0	0.0	22437.0	2684.722900390625	736.0	0.5375	-0.6659919028340081	-739.0	-0.4757085020242915	42.0	15.29285823520416	-1160.0	585.0	-9.929647098837176	16.54946829807715	-1139.0	
2136.0	-0.8042403097613053	10.052159500059954	1253.0	-1.168444996228944	2158.0	0.0	23077.0	2704.254150390625	736.0	0.5375	-0.6659919028340081	-739.0	-0.4757085020242915	42.0	19.636029974002142	-1144.0	488.0	-8.608972776611683	16.317163302769405	-1423.0	
2142.0	-1.1127194852258981	10.15662290598163	1245.0	-1.2417296764916625	2184.0	0.0	23717.0	2723.785400390625	727.0	0.515	-0.6659919028340081	-739.0	-0.46963562753036436	39.0	23.520415965744	-1094.0	370.0	-6.9417373295921365	15.566611474333358	-1677.0	
2134.0	-1.3709241899652915	10.526628622518482	1215.0	-1.1405260670396447	2206.0	0.0	24357.0	2743.316650390625	727.0	0.515	-0.6659919028340081	-739.0	-0.46963562753036436	39.0	21.21119437222817	-1052.0	277.0	-5.412527557407122	14.937435258413961	-1526.0	
2130.0	-1.3331495575668557	10.732663290933479	1198.0	-1.0878348562630231	2203.0	0.0	24997.0	2762.847900390625	727.0	0.515	-0.6659919028340081	-739.0	-0.46963562753036436	39.0	14.467043890503136	-1008.0	279.0	-5.166799035950266	14.264735262671035	-1085.0	
2136.0	-1.3457761155756474	10.660483680530485	1204.0	-1.1616938706776767	2204.0	0.0	25637.0	2782.379150390625	728.0	0.5175	-0.6963562753036437	-754.0	-0.4777327935222672	43.0	10.903807921700567	-903.0	381.0	-6.577006254883508	12.639462406378588	-852.0	
2123.0	-1.611788591543944	10.249712274177014	1238.0	-1.015942917540333	2226.0	0.0	26277.0	2801.910400390625	728.0	0.5175	-0.6963562753036437	-754.0	-0.4777327935222672	43.0	13.610643829331703	-922.0	535.0	-9.056813490617415	12.90620952352562	-1029.0	
2132.0	-1.5298020881729362	10.115029277944487	1249.0	-1.1262504473710322	2219.0	0.0	26917.0	2821.441650390625	728.0	0.5175	-0.6963562753036437	-754.0	-0.4777327935222672	43.0	5.413671815262273	-581.0	519.0	-8.43055656431647	7.680003165368038	-493.0	
2122.0	-0.7549410577295073	10.220179941334981	1239.0	-0.9959168960879448	2154.0	0.0	27557.0	2840.972900390625	728.0	0.5175	-0.6963562753036437	-754.0	-0.4777327935222672	43.0	-11.148493653463834	-562.0	422.0	-6.27329207829665	7.410030620723862	590.0	
2123.0	-0.9967662259655029	9.847186927259246	1270.0	-1.0178432008229037	2174.0	0.0	28197.0	2860.504150390625	727.0	0.515	-0.7105263157894737	-761.0	-0.4817813765182186	45.0	-1.146964367640312	-706.0	384.0	-6.110940083774838	9.621259787439069	-64.0	
2121.0	-1.4168867526387146	9.501800926604721	1299.0	-1.0048557405605576	2209.0	0.0	28837.0	2880.035400390625	727.0	0.515	-0.7105263157894737	-761.0	-0.4817813765182186	45.0	10.047407860529134	-862.0	271.0	-4.844584878947847	12.027662790154821	-796.0	
2113.0	-1.17702045214389	9.67890716656339	1284.0	-0.9025294105877613	2189.0	0.0	29477.0	2899.566650390625	727.0	0.515	-0.7105263157894737	-761.0	-0.4817813765182186	45.0	2.768007340571953	-892.0	162.0	-2.8815433789552194	12.507627714898495	-320.0	
2105.0	-1.5121249820742875	9.501787506856953	1299.0	-0.8130373069125195	2217.0	0.0	30117.0	2919.097900390625	725.0	0.51	-0.7064777327935223	-759.0	-0.4493927125506073	29.0	-1.4681143905795995	-971.0	106.0	-1.8629165769312088	13.730028191910604	-43.0	
2109.0	-1.4878278153686937	9.550551796463969	1295.0	-0.8600118205376605	2215.0	0.0	30757.0	2938.629150390625	725.0	0.51	-0.7064777327935223	-759.0	-0.4493927125506073	29.0	-5.276036091145436	-980.0	79.0	-1.2967166125449976	13.87379054447759	206.0	
2102.0	-1.3677154246252832	9.65702896604311	1286.0	-0.7723438038410533	2205.0	0.0	31397.0	2958.160400390625	725.0	0.51	-0.7064777327935223	-759.0	-0.4493927125506073	29.0	-9.756843554060255	-1114.0	39.0	-0.5228333550645619	15.937690187241131	499.0	
2088.0	-0.998636912787469	9.660118245062636	1285.0	-0.5999165343471039	2174.0	0.0	32037.0	2977.691650390625	725.0	0.51	-0.7064777327935223	-759.0	-0.4493927125506073	29.0	-13.243615231686803	-1322.0	22.0	-0.15381768449407862	19.133032944836817	727.0	
2088.0	-1.1288315688418893	9.735890734858685	1279.0	-0.5997030311117271	2185.0	0.0	32677.0	2997.222900390625	731.0	0.525	-0.708502024291498	-760.0	-0.47975708502024295	44.0	-11.683743691695978	-1407.0	96.0	-1.3674204144043616	20.425178028478328	625.0	
2071.0	-1.3769732776516845	9.921719853879168	1264.0	-0.3936485887109817	2206.0	0.0	33317.0	3016.754150390625	731.0	0.525	-0.708502024291498	-760.0	-0.47975708502024295	44.0	-5.566600397614315	-1603.0	173.0	-2.8264685934482436	23.418106343680375	225.0	
2067.0	-1.448758022047684	9.886102557136374	1267.0	-0.34688601100546024	2212.0	0.0	33957.0	3036.285400390625	731.0	0.525	-0.708502024291498	-760.0	-0.47975708502024295	44.0	-6.3924147423153395	-1758.0	206.0	-3.3247843509525152	25.79151815311469	279.0	
2069.0	-1.1383187745055823	9.97764635896559	1259.0	-0.3660471280356235	2186.0	0.0	34597.0	3055.816650390625	740.0	0.5475	-0.688259109311741	-750.0	-0.4251012145748988	17.0	-15.231686802263345	-1943.0	271.0	-3.9993794813202412	28.62350167856412	857.0	
2057.0	-0.8993106077128367	10.068939228716332	1251.0	-0.2172528757196692	2166.0	0.0	35237.0	3075.347900390625	740.0	0.5475	-0.688259109311741	-750.0	-0.4251012145748988	17.0	-4.052607432329102	-2084.0	364.0	-5.898537608548032	30.768082293087456	126.0	
2037.0	-0.9951631661771384	10.007492906095674	1256.0	0.021523527664961378	2174.0	0.0	35877.0	3094.879150390625	740.0	0.5475	-0.688259109311741	-750.0	-0.4251012145748988	17.0	5.780700412907173	-2228.0	478.0	-8.067325472904459	32.95600006121387	-517.0	
2031.0	-1.2787549326341732	10.219744831820782	1239.0	0.09522180514139919	2198.0	0.0	36517.0	3114.410400390625	737.0	0.54	-0.7004048582995952	-756.0	-0.4251012145748988	17.0	10.720293622878117	-2224.0	439.0	-7.664428005197052	32.89865110125845	-840.0	
2006.0	-1.587149540188576	10.332665028761442	1230.0	0.3956010822817768	2224.0	0.0	37157.0	3133.941650390625	737.0	0.54	-0.7004048582995952	-756.0	-0.4251012145748988	17.0	4.098486007034715	-2116.0	383.0	-6.521691994265565	31.252874226290274	-407.0	
2005.0	-1.1952258506582258	10.23931969608217	1237.0	0.4097016052945792	2191.0	0.0	37797.0	3153.472900390625	737.0	0.54	-0.7004048582995952	-756.0	-0.4251012145748988	17.0	-0.474078605291329	-2012.0	393.0	-6.476658139001469	29.657498264397926	-108.0	
2015.0	-0.5808009533997781	9.777047517165046	1274.0	0.2861184829779778	2139.0	0.0	38437.0	3173.004150390625	737.0	0.54	-0.7004048582995952	-756.0	-0.4251012145748988	17.0	10.246215017586788	-1764.0	514.0	-8.728442501067459	25.82954847356229	-809.0	
2011.0	-0.9593654665649471	10.015834295886249	1255.0	0.33530134450508753	2171.0	0.0	39077.0	3192.535400390625	744.0	0.5575	-0.7004048582995952	-756.0	-0.3967611336032389	3.0	35.60177397155529	-2004.0	562.0	-10.517660644661113	29.49433237007633	-2467.0	
1984.0	-1.8000777700064527	10.468413475545201	1219.0	0.6612470098831286	2242.0	0.0	39717.0	3212.066650390625	744.0	0.5575	-0.7004048582995952	-756.0	-0.3967611336032389	3.0	39.65438140388439	-2023.0	562.0	-10.682663893524435	29.78422752709207	-2732.0	
1973.0	-1.7756767660092572	10.527561494312382	1214.0	0.795204100780372	2240.0	0.0	40357.0	3231.597900390625	744.0	0.5575	-0.7004048582995952	-756.0	-0.3967611336032389	3.0	21.471172962226643	-1859.0	481.0	-8.684408268553554	27.287714763409298	-1543.0	
1975.0	-1.457114120897316	10.240968862649336	1237.0	0.7685614890560617	2213.0	0.0	40997.0	3251.129150390625	740.0	0.5475	-0.7307692307692307	-771.0	-0.38461538461538464	-3.0	18.22908701636336	-1815.0	447.0	-8.025042732380308	26.61915113781353	-1331.0	
1983.0	-1.542249611304129	10.060753155301379	1252.0	0.6677202778363597	2220.0	0.0	41637.0	3270.660400390625	740.0	0.5475	-0.7307692307692307	-771.0	-0.38461538461538464	-3.0	24.36152316868023	-1827.0	545.0	-9.779466464847832	26.78574070438636	-1732.0	
1962.0	-2.137393402705739	10.070183538949893	1252.0	0.914969495788085	2270.0	0.0	42277.0	3290.191650390625	740.0	0.5475	-0.7307692307692307	-771.0	-0.38461538461538464	-3.0	22.60284447163175	-1800.0	582.0	-10.274070054756326	26.3664936097179	-1617.0	
1951.0	-2.0893095610316785	10.116662944451202	1248.0	1.0489100427967795	2266.0	0.0	42917.0	3309.722900390625	740.0	0.5475	-0.7307692307692307	-771.0	-0.38461538461538464	-3.0	9.389814956415355	-1672.0	552.0	-9.264541421384997	24.412494987811623	-753.0	
1946.0	-1.5669522281189106	9.971443854775622	1259.0	1.1114701981878172	2222.0	0.0	43557.0	3329.254150390625	725.0	0.51	-0.7550607287449392	-783.0	-0.40890688259109315	9.0	5.566600397614315	-1512.0	604.0	-9.886876373693648	21.95115425298855	-503.0	
1955.0	-1.6765007658863014	9.730875792322244	1279.0	0.9971296166213168	2231.0	0.0	44197.0	3348.785400390625	725.0	0.51	-0.7550607287449392	-783.0	-0.40890688259109315	9.0	14.008258143447012	-1527.0	737.0	-12.27244490089962	22.157465822588367	-1055.0	
1954.0	-2.010743549105605	9.639930803725205	1287.0	1.0040164817882673	2259.0	0.0	44837.0	3368.316650390625	725.0	0.51	-0.7550607287449392	-783.0	-0.40890688259109315	9.0	17.556201254014375	-1513.0	772.0	-12.950525300537757	21.93586224737824	-1287.0	
1939.0	-1.9254945867164845	9.831493709303917	1271.0	1.189423121089998	2252.0	0.0	45477.0	3387.847900390625	726.0	0.5125	-0.7530364372469636	-782.0	-0.41295546558704455	11.0	12.20370087169292	-1489.0	750.0	-12.394388747356954	21.57315600511505	-937.0	
1937.0	-1.8318627657117776	9.670866285965115	1284.0	1.2112432763754375	2244.0	0.0	46117.0	3407.379150390625	726.0	0.5125	-0.7530364372469636	-782.0	-0.41295546558704455	11.0	16.60804404343172	-1500.0	722.0	-12.141572680261573	21.74447348602537	-1225.0	
1937.0	-1.8678136804054384	9.647203388027606	1286.0	1.2104105092697506	2247.0	0.0	46757.0	3426.910400390625	726.0	0.5125	-0.7530364372469636	-782.0	-0.41295546558704455	11.0	19.467808533414896	-1594.0	724.0	-12.301135615975541	23.185259320531976	-1412.0	
1929.0	-2.129431650571737	9.675882561873932	1284.0	1.304753455213689	2269.0	0.0	47397.0	3446.441650390625	733.0	0.53	-0.7753036437246964	-793.0	-0.4230769230769231	16.0	23.44395167456798	-1714.0	766.0	-13.124566832050858	25.018363047346213	-1672.0	
1921.0	-2.6048046715131976	9.757628086775505	1278.0	1.3980201776709804	2309.0	0.0	48037.0	3465.972900390625	733.0	0.53	-0.7753036437246964	-793.0	-0.4230769230769231	16.0	14.543508181679158	-1722.0	655.0	-11.06255322617719	25.161739052669947	-1090.0	
1912.0	-2.3408910306678203	9.958515980837035	1261.0	1.513110806900424	2287.0	0.0	48677.0	3485.504150390625	733.0	0.53	-0.7753036437246964	-793.0	-0.4230769230769231	16.0	-0.7952286282306164	-1807.0	548.0	-8.816370552485372	26.48848199034748	-87.0	
1909.0	-1.9141159561465624	9.778880575819956	1275.0	1.549930427858548	2251.0	0.0	49317.0	3505.035400390625	733.0	0.53	-0.7753036437246964	-793.0	-0.4230769230769231	16.0	-6.942957638782689	-1918.0	474.0	-7.44934405409941	28.205389941383203	315.0	
1915.0	-1.7853769021142147	9.55754788381662	1293.0	1.4745020079322986	2240.0	0.0	49957.0	3524.566650390625	728.0	0.5175	-0.7793522267206477	-795.0	-0.4190283400809717	14.0	1.896314421165316	-2129.0	473.0	-7.819872495287069	31.439370708835686	-263.0	
1888.0	-2.081505841324499	9.706558724693013	1281.0	1.7998221401770007	2265.0	0.0	50597.0	3544.097900390625	728.0	0.5175	-0.7793522267206477	-795.0	-0.4190283400809717	14.0	11.760207982872	-2319.0	498.0	-8.62805816025895	34.346740747229696	-908.0	
1874.0	-2.450618074579783	9.700097303926425	1282.0	1.9646764882242969	2296.0	0.0	51237.0	3563.629150390625	728.0	0.5175	-0.7793522267206477	-795.0	-0.4190283400809717	14.0	8.931029209359231	-2271.0	414.0	-7.215558000856376	33.624330533233724	-723.0	
1866.0	-2.0584590107304503	9.630289403145426	1287.0	2.063587463015845	2263.0	0.0	51877.0	3583.160400390625	729.0	0.52	-0.7975708502024291	-804.0	-0.4008097165991903	5.0	-2.9209359229239946	-2185.0	420.0	-6.820616127115155	32.3086543573724	52.0	
1865.0	-2.0101193210196575	9.70235361232001	1281.0	2.077560336867529	2259.0	0.0	52517.0	3602.691650390625	729.0	0.52	-0.7975708502024291	-804.0	-0.4008097165991903	5.0	-4.404343171738798	-2065.0	486.0	-7.758001144666997	30.457942468221894	149.0	
1848.0	-2.2243824548592697	9.70461165693018	1281.0	2.28028214352977	2277.0	0.0	53157.0	3622.222900390625	729.0	0.52	-0.7975708502024291	-804.0	-0.4008097165991903	5.0	-1.422235815873987	-1939.0	596.0	-9.549819584974886	28.50661934289507	-46.0	
1846.0	-2.3452370986497755	9.523909182641514	1296.0	2.2995559331482602	2287.0	0.0	53797.0	3641.754150390625	729.0	0.52	-0.7975708502024291	-804.0	-0.4008097165991903	5.0	-4.970178926441353	-1816.0	526.0	-8.312394466229485	26.631622104133168	186.0	
1844.0	-2.274069091955181	9.49785270924377	1298.0	2.3238428692894195	2281.0	0.0	54437.0	3661.285400390625	748.0	0.5675	-0.8016194331983806	-806.0	-0.36639676113360325	-12.0	-7.417036244074018	-1631.0	469.0	-7.309444987271688	23.802922122169633	346.0	
1833.0	-1.9274507814184656	9.635874239105824	1286.0	2.4625996034739557	2252.0	0.0	55077.0	3680.816650390625	748.0	0.5675	-0.8016194331983806	-806.0	-0.36639676113360325	-12.0	-10.735586481113321	-1632.0	397.0	-6.0694585015706055	23.830666470684772	563.0	
1823.0	-1.9144633337450012	9.744142815976081	1277.0	2.585376777198939	2251.0	0.0	55717.0	3700.347900390625	748.0	0.5675	-0.8016194331983806	-806.0	-0.36639676113360325	-12.0	-8.48753632053831	-1606.0	384.0	-5.955433109279492	23.43285014949643	416.0	
1812.0	-2.1769382332770406	9.687129053248302	1282.0	2.714141873430991	2273.0	0.0	56357.0	3719.879150390625	751.0	0.5750000000000001	-0.7935222672064778	-802.0	-0.354251012145749	-18.0	-8.732222052301577	-1629.0	384.0	-5.949175537007558	23.785835849356026	432.0	
1804.0	-2.0595088982768224	9.525300648508207	1295.0	2.8084651408548655	2263.0	0.0	56997.0	3739.410400390625	751.0	0.5750000000000001	-0.7935222672064778	-802.0	-0.354251012145749	-18.0	-17.433858388132744	-1582.0	275.0	-3.91743622174474	23.084962510576787	1001.0	
1790.0	-1.547114337011066	9.57428058460769	1290.0	2.9832433839846937	2220.0	0.0	57637.0	3758.941650390625	751.0	0.5750000000000001	-0.7935222672064778	-802.0	-0.354251012145749	-18.0	-18.840801345771528	-1560.0	208.0	-2.827281057270123	22.75828542174278	1093.0	
1785.0	-1.6184126763967028	9.58730378890115	1289.0	3.0430318285321283	2226.0	0.0	58277.0	3778.472900390625	752.0	0.5775	-0.7773279352226721	-794.0	-0.3502024291497976	-20.0	-6.667686190549015	-1672.0	275.0	-4.361848703692207	24.461521914988552	297.0	
1783.0	-2.0461689912930527	9.66881515640896	1283.0	3.0644808782754898	2262.0	0.0	58917.0	3798.004150390625	752.0	0.5775	-0.7773279352226721	-794.0	-0.3502024291497976	-20.0	-2.186878727634195	-1705.0	267.0	-4.4230805675513	24.96727755706808	4.0	
1763.0	-1.8910965609217805	9.699867717345752	1280.0	3.307616509219625	2249.0	0.0	59557.0	3817.535400390625	752.0	0.5775	-0.7773279352226721	-794.0	-0.3502024291497976	-20.0	-13.167150940510783	-1632.0	145.0	-2.096266523426209	23.870398390466217	722.0	
1751.0	-1.8433796305940835	9.709655988210681	1279.0	3.452867757193212	2245.0	0.0	60197.0	3837.066650390625	752.0	0.5775	-0.7773279352226721	-794.0	-0.3502024291497976	-20.0	-16.363358311668453	-1582.0	37.0	-0.29964276956923425	23.121140445098543	931.0	
1744.0	-1.7489005149143413	9.633758032375393	1285.0	3.5366319386308946	2237.0	0.0	60837.0	3856.597900390625	774.0	0.6325000000000001	-0.7753036437246964	-793.0	-0.32388663967611336	-33.0	-14.29882244991589	-1507.0	25.0	-0.18614020493476302	21.971439196385518	796.0	
1752.0	-1.6757700274695617	9.803949633996186	1271.0	3.4443815333690835	2231.0	0.0	61477.0	3876.129150390625	774.0	0.6325000000000001	-0.7753036437246964	-793.0	-0.32388663967611336	-33.0	-11.439057959932713	-1475.0	-40.0	0.7041366000671617	21.489318487375538	609.0	
1744.0	-2.1035335683839422	9.884738399701057	1265.0	3.538105215442712	2267.0	0.0	62117.0	3895.660400390625	774.0	0.6325000000000001	-0.7753036437246964	-793.0	-0.32388663967611336	-33.0	-8.120507722893409	-1367.0	-89.0	1.3416330786430677	19.838489217083808	392.0	
1737.0	-1.840227030549264	10.02491599269264	1253.0	3.6278791820784804	2245.0	0.0	62757.0	3915.191650390625	778.0	0.6425	-0.7631578947368421	-787.0	-0.3016194331983806	-44.0	-13.075393791099557	-1254.0	-218.0	3.5412579315572206	18.126558812244838	716.0	
1749.0	-1.9475777132474867	10.004133437156073	1255.0	3.481811710887755	2254.0	0.0	63397.0	3934.722900390625	778.0	0.6425	-0.7631578947368421	-787.0	-0.3016194331983806	-44.0	-5.1384003670285985	-1168.0	-245.0	3.652284067815992	16.808043479008685	197.0	
1751.0	-2.1846474860168117	10.106679969747395	1247.0	3.4573955582697193	2274.0	0.0	64037.0	3954.254150390625	778.0	0.6425	-0.7631578947368421	-787.0	-0.3016194331983806	-44.0	2.6150787582199118	-1114.0	-262.0	3.6119331901105873	15.979037852692882	-310.0	
1750.0	-2.4223303834785272	10.147914033099653	1244.0	3.4678916033332317	2294.0	0.0	64677.0	3973.785400390625	778.0	0.6425	-0.7631578947368421	-787.0	-0.3016194331983806	-44.0	5.65835754702554	-985.0	-255.0	3.4023416394389017	13.997503545288053	-509.0	
1750.0	-2.4209894577751	10.28200660344236	1233.0	3.47058686399712	2294.0	0.0	65317.0	3993.316650390625	775.0	0.635	-0.7651821862348178	-788.0	-0.3097165991902834	-40.0	2.492735892338278	-774.0	-181.0	2.42315486734801	10.750025625702788	-302.0	
