Device	Device	Device	Device	Device	Device	Device	Device	Device	Device	Device	Device	Device	Device	Device	Device	Device	Device	Device	Device	Device	
Low Noise Accelerometer X	Low Noise Accelerometer X	Low Noise Accelerometer Z	Low Noise Accelerometer Z	Low Noise Accelerometer Y	Low Noise Accelerometer Y	Event_Marker	Timestamp	Timestamp	Magnetometer Z	Magnetometer Z	Magnetometer X	Magnetometer X	Magnetometer Y	Magnetometer Y	Gyroscope Y	Gyroscope Y	Gyroscope Z	Gyroscope Z	Gyroscope X	Gyroscope X	
UNCAL	CAL	UNCAL	CAL	CAL	UNCAL	CAL	UNCAL	CAL	CAL	UNCAL	CAL	UNCAL	UNCAL	CAL	CAL	UNCAL	CAL	UNCAL	CAL	UNCAL	
no units	m/(s^2)	no units	m/(s^2)	m/(s^2)	no units	no units	no units	ms	local_flux	no units	local_flux	no units	no units	local_flux	deg/s	no units	deg/s	no units	deg/s	no units	
2242.0	-2.6943173957764746	1332.0	9.139688993781125	-2.482703610949612	2316.0	0.0	24614.0	751.15966796875	0.6575	784.0	0.2834008097165992	-270.0	123.0	-0.6396761133603239	-2.2174644441046034	191.0	-5.0537975901193954	327.0	-4.1321706289624185	6.0	
2234.0	-2.8963016135722475	1329.0	9.179362452299085	-2.387544441788536	2333.0	0.0	25254.0	770.69091796875	0.6575	784.0	0.2834008097165992	-270.0	123.0	-0.6396761133603239	0.5046643217617374	316.0	-5.4818688045252655	349.0	-6.054511798372091	-172.0	
2255.0	-2.7428864381245597	1340.0	9.044689520877384	-2.641715796855264	2320.0	0.0	25894.0	790.22216796875	0.65	781.0	0.29554655870445345	-264.0	113.0	-0.6194331983805668	1.0705000764642914	239.0	-4.470425707274336	281.0	-4.862872125723964	-209.0	
2242.0	-2.8392181755811947	1349.0	8.935325299023418	-2.4882398926428135	2328.0	0.0	26534.0	809.75341796875	0.65	781.0	0.29554655870445345	-264.0	113.0	-0.6194331983805668	-1.0246215017586788	106.0	-3.514954119251882	223.0	-2.8125010833131268	-72.0	
2255.0	-2.649374110783851	1354.0	8.87211273113871	-2.6442322093766304	2312.0	0.0	27174.0	829.28466796875	0.65	781.0	0.29554655870445345	-264.0	113.0	-0.6194331983805668	-5.5818932558495185	313.0	-2.5011246088580474	171.0	-5.978670905441043	226.0	
2267.0	-2.410458942255663	1347.0	8.954105774433703	-2.784781510078461	2292.0	0.0	27814.0	848.81591796875	0.6625	786.0	0.291497975708502	-266.0	123.0	-0.6396761133603239	-0.030585716470408322	109.0	-2.923642143075022	182.0	-2.852621414525733	-137.0	
2229.0	-2.660454477178689	1347.0	8.954552282131104	-2.329441209972538	2313.0	0.0	28454.0	868.34716796875	0.6625	786.0	0.291497975708502	-266.0	123.0	-0.6396761133603239	1.9727787123413367	-33.0	-2.4718501063733687	146.0	-0.6691868147049798	-268.0	
2254.0	-2.8268137441916648	1345.0	8.985292247500201	-2.631694822612394	2327.0	0.0	29094.0	887.87841796875	0.6625	786.0	0.291497975708502	-266.0	123.0	-0.6396761133603239	-0.3976143141153082	273.0	-1.0688761541639311	64.0	-5.350569074569107	-113.0	
2263.0	-2.552560785662207	1341.0	9.029635719493637	-2.7364991585269904	2304.0	0.0	29734.0	907.40966796875	0.6625	786.0	0.291497975708502	-266.0	123.0	-0.6396761133603239	-1.9421929958709285	-31.0	-0.8845539317039957	53.0	-0.6840028202745358	-12.0	
2236.0	-2.706714601147975	1336.0	9.090444647107281	-2.4115233133102976	2317.0	0.0	30374.0	926.94091796875	0.645	779.0	0.30364372469635625	-260.0	117.0	-0.6275303643724697	-0.2752714482336749	-25.0	-0.4581208035896272	21.0	-0.7718053909421416	-121.0	
2245.0	-2.7913612778717494	1347.0	8.959110308063222	-2.523430201798176	2324.0	0.0	31014.0	946.47216796875	0.645	779.0	0.30364372469635625	-260.0	117.0	-0.6275303643724697	-4.236121731151552	65.0	1.1598928368253325	-73.0	-2.1366287837692335	138.0	
2247.0	-2.448262478726216	1364.0	8.745180698806937	-2.548374191534015	2295.0	0.0	31654.0	966.00341796875	0.645	779.0	0.30364372469635625	-260.0	117.0	-0.6275303643724697	-12.081358005811287	209.0	3.7259678250747053	-218.0	-4.320573680656726	651.0	
2240.0	-2.0420055984736214	1351.0	8.894678247875923	-2.4569843223525187	2261.0	0.0	32294.0	985.53466796875	0.645	779.0	0.3016194331983806	-261.0	119.0	-0.631578947368421	-11.224957944639854	90.0	5.5191424357880425	-338.0	-2.476648379232729	595.0	
2242.0	-2.35195241932367	1355.0	8.852377115252079	-2.4850261987556648	2287.0	0.0	32934.0	1005.06591796875	0.645	779.0	0.3016194331983806	-261.0	119.0	-0.631578947368421	0.25997858999847073	366.0	5.563558774208701	-368.0	-6.711281705490996	-156.0	
2286.0	-2.3772888989151046	1368.0	8.699681537060929	-3.0184539570431133	2289.0	0.0	33574.0	1024.59716796875	0.645	779.0	0.3016194331983806	-261.0	119.0	-0.631578947368421	-3.257378804098486	454.0	6.4406342056335735	-415.0	-8.052825513091738	74.0	
2228.0	-2.694456158821885	1333.0	9.125812689240073	-2.3143078258757064	2316.0	0.0	34214.0	1044.12841796875	0.645	779.0	0.3016194331983806	-261.0	119.0	-0.631578947368421	-3.8079217005658363	95.0	8.22249640734429	-533.0	-2.526337257807791	110.0	
2240.0	-2.5751742020447748	1331.0	9.149246462189232	-2.4572246441019643	2306.0	0.0	34854.0	1063.65966796875	0.645	779.0	0.3016194331983806	-261.0	133.0	-0.659919028340081	-9.925064994647501	649.0	10.0440865613825	-630.0	-11.008965302868607	510.0	
2265.0	-2.4349975049619306	1353.0	8.881201884759294	-2.762388587956843	2294.0	0.0	35494.0	1083.19091796875	0.645	779.0	0.3016194331983806	-261.0	133.0	-0.659919028340081	-12.157822296987309	672.0	11.07514016132947	-691.0	-11.35157789100601	656.0	
2252.0	-2.767548107503841	1347.0	8.959474963901634	-2.6075221263753194	2322.0	0.0	36134.0	1102.72216796875	0.645	779.0	0.3016194331983806	-261.0	133.0	-0.659919028340081	-10.888515063465363	503.0	12.028950988804338	-758.0	-8.748822044508154	573.0	
2216.0	-2.932883718003372	1336.0	9.092580580615158	-2.1727784303870075	2336.0	0.0	36774.0	1122.25341796875	0.635	775.0	0.3016194331983806	-261.0	142.0	-0.6781376518218624	-17.6326655451904	532.0	13.02603289772829	-805.0	-9.183841251504534	1014.0	
2234.0	-3.0548113960971897	1360.0	8.804574675995294	-2.3966252951398612	2346.0	0.0	37414.0	1141.78466796875	0.635	775.0	0.3016194331983806	-261.0	142.0	-0.6781376518218624	-31.931487995106288	1249.0	15.64590711561505	-931.0	-20.159637292201225	1949.0	
2271.0	-2.462086382047672	1380.0	8.553266557137581	-2.8415073399066406	2296.0	0.0	38054.0	1161.31591796875	0.635	775.0	0.3016194331983806	-261.0	142.0	-0.6781376518218624	-43.829331702095125	1447.0	18.05936045791704	-1055.0	-23.173710523086935	2727.0	
2239.0	-2.6643433085889128	1379.0	8.565669141108739	-2.4577396888179313	2313.0	0.0	38694.0	1180.84716796875	0.6025	762.0	0.31781376518218624	-253.0	158.0	-0.7105263157894737	-43.232910230922165	1207.0	19.12147479544632	-1128.0	-19.480413301761665	2688.0	
2284.0	-2.247096651533361	1374.0	8.62366817999723	-2.994575916168401	2278.0	0.0	39334.0	1200.37841796875	0.6025	762.0	0.31781376518218624	-253.0	158.0	-0.7105263157894737	-49.671203547943115	1862.0	19.27952785527966	-1115.0	-29.529469567235147	3109.0	
2293.0	-1.9360394619535157	1361.0	8.777006185600804	-3.09683231910029	2252.0	0.0	39974.0	1219.90966796875	0.6025	762.0	0.31781376518218624	-253.0	158.0	-0.7105263157894737	-48.43248203089158	1491.0	17.819559055244707	-1027.0	-23.851265818071155	3028.0	
2257.0	-1.4922818623842917	1333.0	9.10514709490416	-2.6520969851594947	2215.0	0.0	40614.0	1239.44091796875	0.6025	762.0	0.31781376518218624	-253.0	158.0	-0.7105263157894737	-37.52867410919101	1176.0	14.012886522992835	-811.0	-19.055820191084326	2315.0	
2238.0	-1.7541568849236613	1333.0	9.108121031443387	-2.4257405940035013	2237.0	0.0	41254.0	1258.97216796875	0.5775	752.0	0.33805668016194335	-243.0	176.0	-0.7469635627530364	-25.630830402202175	1349.0	10.948842825397815	-641.0	-21.741056300915886	1537.0	
2298.0	-1.5561328187485814	1369.0	8.672432410856134	-3.1553656920185555	2220.0	0.0	41894.0	1278.50341796875	0.5775	752.0	0.33805668016194335	-243.0	176.0	-0.7469635627530364	-29.377580669827193	2116.0	11.385566091166714	-652.0	-33.505908034040004	1782.0	
2343.0	-0.23954784165553222	1407.0	8.18807297730392	-3.694055705617465	2109.0	0.0	42534.0	1298.03466796875	0.5775	752.0	0.33805668016194335	-243.0	176.0	-0.7469635627530364	-27.05306621807616	1956.0	9.606929323363461	-544.0	-31.068577016418047	1630.0	
2274.0	-0.6774586820431869	1386.0	8.444607986157502	-2.86197881263945	2146.0	0.0	43174.0	1317.56591796875	0.54	737.0	0.34615384615384615	-239.0	169.0	-0.7327935222672065	-2.186878727634195	1203.0	8.75832095367845	-561.0	-19.522666905546846	4.0	
2269.0	-1.1757795136324465	1373.0	8.61252482723153	-2.803362720278441	2188.0	0.0	43814.0	1337.09716796875	0.54	737.0	0.34615384615384615	-239.0	169.0	-0.7327935222672065	7.585257684661264	1566.0	9.792052750431987	-650.0	-25.08237715547865	-635.0	
2383.0	-1.3093720431078886	1396.0	8.348509974925436	-4.183472918522932	2199.0	0.0	44454.0	1356.62841796875	0.54	737.0	0.34615384615384615	-239.0	169.0	-0.7327935222672065	6.5759290411377895	2352.0	12.906113917488177	-842.0	-37.11200069909427	-569.0	
2331.0	-1.558043513036223	1385.0	8.481362982092014	-3.5567965489824975	2220.0	0.0	45094.0	1376.15966796875	0.54	737.0	0.34615384615384615	-239.0	169.0	-0.7327935222672065	9.068664933476068	1007.0	11.784874109679938	-789.0	-16.484882576994348	-732.0	
2245.0	-1.9155838931744409	1388.0	8.441610682555908	-2.525022420461349	2250.0	0.0	45734.0	1395.69091796875	0.5275	732.0	0.3259109311740891	-249.0	189.0	-0.7732793522267206	6.254779018198502	757.0	12.24357868880749	-814.0	-12.644174616671847	-548.0	
2345.0	-1.7857564128328978	1398.0	8.329120621472148	-3.730793223988043	2239.0	0.0	46374.0	1415.22216796875	0.5275	732.0	0.3259109311740891	-249.0	189.0	-0.7732793522267206	0.8869857776418414	1662.0	14.289000830648169	-924.0	-26.51047810585648	-197.0	
2388.0	-1.8803140747411387	1393.0	8.397163954457572	-4.248450223104044	2247.0	0.0	47014.0	1434.75341796875	0.5275	732.0	0.3259109311740891	-249.0	189.0	-0.7732793522267206	-0.2752714482336749	1186.0	14.077885502385897	-912.0	-19.208615037871645	-121.0	
2279.0	-2.0928594724737413	1378.0	8.571195609768743	-2.933842031926953	2265.0	0.0	47654.0	1454.28466796875	0.5025000000000001	722.0	0.3319838056680162	-246.0	195.0	-0.7854251012145749	-0.16822144058724578	74.0	12.718675600663268	-835.0	-2.159141309053978	-128.0	
2302.0	-2.3408311054933315	1362.0	8.77403230780969	-3.2093734480312697	2286.0	0.0	48294.0	1473.81591796875	0.5025000000000001	722.0	0.3319838056680162	-246.0	195.0	-0.7854251012145749	-5.627771830555131	646.0	12.609518258631413	-808.0	-10.937277534921742	229.0	
2427.0	-2.0899993792888276	1356.0	8.857204928260064	-4.711225774745759	2265.0	0.0	48934.0	1493.34716796875	0.5025000000000001	722.0	0.3319838056680162	-246.0	195.0	-0.7854251012145749	-14.6964367640312	1253.0	12.98845673350385	-803.0	-20.247589730654838	822.0	
2397.0	-1.5902578714313043	1357.0	8.831355714012433	-4.3452995608196066	2223.0	0.0	49574.0	1512.87841796875	0.5075000000000001	724.0	0.3157894736842105	-254.0	202.0	-0.7995951417004049	-13.947086710506195	70.0	11.300430399381098	-707.0	-2.1119458264343005	773.0	
2273.0	-2.2687203971864682	1356.0	8.84224599563886	-2.8578904768301716	2280.0	0.0	50214.0	1532.40966796875	0.5075000000000001	724.0	0.3157894736842105	-254.0	202.0	-0.7995951417004049	-1.91160727940052	-740.0	9.202852520469616	-610.0	10.296110157857758	-14.0	
2278.0	-1.4584998986876814	1349.0	8.911914893136627	-2.9086358577506504	2212.0	0.0	50854.0	1551.94091796875	0.5075000000000001	724.0	0.3157894736842105	-254.0	202.0	-0.7995951417004049	-14.130601009328645	-27.0	8.70892815976537	-539.0	-0.6494459339923419	785.0	
2363.0	-0.8836705043470592	1321.0	9.251997184341707	-3.920182303525311	2164.0	0.0	51494.0	1571.47216796875	0.5075000000000001	724.0	0.3157894736842105	-254.0	202.0	-0.7995951417004049	-7.906407707600551	807.0	8.726371916992367	-548.0	-13.446570867296243	378.0	
2321.0	-1.439963016037907	1295.0	9.575126967637885	-3.4132585365907535	2211.0	0.0	52134.0	1591.00341796875	0.5	721.0	0.32388663967611336	-250.0	196.0	-0.7874493927125507	12.20370087169292	127.0	8.540609358786186	-595.0	-3.014179605353369	-937.0	
2269.0	-1.9683622106190384	1333.0	9.116159890477093	-2.8012158459833953	2255.0	0.0	52774.0	1610.53466796875	0.5	721.0	0.32388663967611336	-250.0	196.0	-0.7874493927125507	20.06423000458786	-93.0	6.562109797591216	-489.0	0.34182180382216043	-1451.0	
2328.0	-1.7126560337965742	1384.0	8.496301382247351	-3.5218993278737414	2233.0	0.0	53414.0	1630.06591796875	0.5	721.0	0.32388663967611336	-250.0	196.0	-0.7874493927125507	12.769536626395475	687.0	6.496741326670982	-458.0	-11.627529134224467	-974.0	
2347.0	-2.343824468774991	1387.0	8.474695979643785	-3.7575587829262	2286.0	0.0	54054.0	1649.59716796875	0.5	721.0	0.2975708502024291	-263.0	197.0	-0.7894736842105263	16.638629759902127	686.0	7.833768595591577	-555.0	-11.598814377877138	-1227.0	
2335.0	-2.698350071943975	1366.0	8.736421377031085	-3.611291217757131	2316.0	0.0	54694.0	1669.12841796875	0.5	721.0	0.2975708502024291	-263.0	197.0	-0.7894736842105263	12.111943722281696	380.0	9.951980202079401	-684.0	-6.8822202624260385	-931.0	
2342.0	-2.613196516492088	1351.0	8.918443588886399	-3.691136587363096	2309.0	0.0	55334.0	1688.65966796875	0.5	721.0	0.2975708502024291	-263.0	197.0	-0.7894736842105263	2.768007340571953	320.0	11.100910767220537	-735.0	-5.950061937287132	-320.0	
2376.0	-1.79286725728285	1359.0	8.808512366953092	-4.0947704734265375	2240.0	0.0	55974.0	1708.19091796875	0.5	721.0	0.2975708502024291	-263.0	197.0	-0.7894736842105263	-7.004129071723506	381.0	10.3629437379725	-661.0	-6.893455110725232	319.0	
2395.0	-1.5828682965541925	1394.0	8.379837011247412	-4.3301596535839675	2222.0	0.0	56614.0	1727.72216796875	0.4975	720.0	0.291497975708502	-266.0	213.0	-0.8218623481781376	3.0738645052760365	120.0	9.227687218381357	-616.0	-2.8998974411505434	-340.0	
2370.0	-2.026333653630024	1419.0	8.08092035128337	-4.0393678210768975	2259.0	0.0	57254.0	1747.25341796875	0.4975	720.0	0.291497975708502	-266.0	213.0	-0.8218623481781376	16.715094051078147	-623.0	10.721393996161801	-756.0	8.515990984614067	-1232.0	
2416.0	-3.03688258370385	1410.0	8.21650353437691	-4.600978514185644	2344.0	0.0	57894.0	1766.78466796875	0.4975	720.0	0.291497975708502	-266.0	213.0	-0.8218623481781376	22.81694448692461	-542.0	16.995812846870837	-1179.0	7.335831996813039	-1631.0	
2371.0	-2.7002571532226014	1382.0	8.545713249168436	-4.048859390886206	2316.0	0.0	58534.0	1786.31591796875	0.4975	720.0	0.24696356275303644	-288.0	224.0	-0.8441295546558705	1.131671509405108	-1069.0	22.22730511556986	-1468.0	15.474689807331854	-213.0	
2288.0	-2.089679172693142	1352.0	8.889225587828648	-3.0358833643077077	2265.0	0.0	59174.0	1805.84716796875	0.4975	720.0	0.24696356275303644	-288.0	224.0	-0.8441295546558705	-13.228322373451599	-1566.0	21.910215305190576	-1415.0	23.09772728731614	726.0	
2264.0	-2.4455601536016127	1342.0	9.015413211267354	-2.747761795141994	2295.0	0.0	59814.0	1825.37841796875	0.4975	720.0	0.24696356275303644	-288.0	224.0	-0.8441295546558705	-2.263343018810216	-1357.0	16.151239387536307	-1067.0	19.83314044359149	9.0	
2299.0	-2.875709954786952	1356.0	8.857575949876264	-3.176906785369621	2331.0	0.0	60454.0	1844.90966796875	0.5225	730.0	0.24696356275303644	-288.0	221.0	-0.8380566801619433	1.5904572564612327	-1056.0	13.56699062676178	-906.0	15.188608374888151	-243.0	
2375.0	-1.959989251060671	1363.0	8.762979655837661	-4.085304154815541	2254.0	0.0	61094.0	1864.44091796875	0.5225	730.0	0.24696356275303644	-288.0	221.0	-0.8380566801619433	-12.693072335219453	-438.0	11.064667681464638	-700.0	5.680694244713988	691.0	
2303.0	-2.1105401915814044	1328.0	9.184076079954806	-3.210917856220332	2267.0	0.0	61734.0	1883.97216796875	0.5225	730.0	0.24696356275303644	-288.0	221.0	-0.8380566801619433	-6.086557577611256	-1290.0	9.085498372190957	-597.0	18.73440262834367	259.0	
2256.0	-2.618863537916837	1299.0	9.54221763688772	-2.642573198304065	2310.0	0.0	62374.0	1903.50341796875	0.5225	730.0	0.24696356275303644	-288.0	221.0	-0.8380566801619433	4.022021715858695	-1536.0	8.812639794243623	-608.0	22.506417022462923	-402.0	
2274.0	-2.974693936699101	1289.0	9.67346347294702	-2.8603740554502193	2340.0	0.0	63014.0	1923.03466796875	0.5375	736.0	0.2368421052631579	-293.0	217.0	-0.8299595141700405	6.270071876433706	-1432.0	12.876094655346652	-877.0	20.95122527062896	-549.0	
2297.0	-2.7871539729352044	1313.0	9.379840801717695	-3.1414795429721063	2324.0	0.0	63654.0	1942.56591796875	0.5375	736.0	0.2368421052631579	-293.0	217.0	-0.8299595141700405	-0.6881786205841872	-1201.0	12.251615698401327	-816.0	17.400404756032657	-94.0	
2277.0	-2.8366160747391773	1328.0	9.195535383225142	-2.904696416938311	2328.0	0.0	64294.0	1962.09716796875	0.5375	736.0	0.2368421052631579	-293.0	217.0	-0.8299595141700405	-2.7221287658663407	-1447.0	10.065018845804776	-671.0	21.15328176740542	39.0	
2270.0	-2.7418931543860845	1332.0	9.144017894724891	-2.820442188107194	2320.0	0.0	64934.0	1981.62841796875	0.5575	744.0	0.22064777327935223	-301.0	201.0	-0.7975708502024291	-5.459550389967886	-1353.0	7.681871271944589	-508.0	19.687068827803074	218.0	
2290.0	-2.3598961064125983	1323.0	9.248484596835395	-3.055496739006936	2288.0	0.0	38.0	2001.15966796875	0.5575	744.0	0.22064777327935223	-301.0	201.0	-0.7975708502024291	-13.274200948157212	-1304.0	5.848644570064657	-368.0	18.916856861536154	729.0	
2290.0	-2.655504919195049	1307.0	9.4495080804951	-3.0544323574615664	2313.0	0.0	678.0	2020.69091796875	0.5575	744.0	0.22064777327935223	-301.0	201.0	-0.7975708502024291	-6.728857623489831	-1336.0	3.5055513121869106	-233.0	19.384449406017374	301.0	
2258.0	-2.9750789130905386	1292.0	9.634965833803285	-2.668376773659659	2340.0	0.0	1318.0	2040.22216796875	0.5575	744.0	0.22064777327935223	-301.0	201.0	-0.7975708502024291	-3.257378804098486	-1553.0	6.5018382714433125	-439.0	22.744165229423043	74.0	
2206.0	-2.3673892542147983	1286.0	9.689646007091579	-2.03470024950875	2289.0	0.0	1958.0	2059.75341796875	0.5775	752.0	0.22469635627530365	-299.0	186.0	-0.7672064777327935	-15.369322526380182	-1775.0	10.089871235813646	-643.0	26.186520931170474	866.0	
2202.0	-2.069956723727573	1287.0	9.670994293909358	-1.983906187383185	2264.0	0.0	2598.0	2079.28466796875	0.5775	752.0	0.22469635627530365	-299.0	186.0	-0.7672064777327935	-14.818779629912832	-1823.0	9.660588625055667	-617.0	26.91876332065289	830.0	
2236.0	-2.497791584852422	1282.0	9.744651038567302	-2.3963499553181418	2300.0	0.0	3238.0	2098.81591796875	0.5775	752.0	0.22469635627530365	-299.0	186.0	-0.7672064777327935	-7.126471937605139	-1488.0	10.311787901892822	-676.0	21.78487328794942	327.0	
2228.0	-2.737189545381958	1293.0	9.614378795137531	-2.3049638376233577	2320.0	0.0	3878.0	2118.34716796875	0.585	755.0	0.21862348178137653	-302.0	187.0	-0.7692307692307693	-1.1928429423459246	-1531.0	9.037361381480777	-609.0	22.43194182004467	-61.0	
2201.0	-2.6433440281123564	1304.0	9.475120998288174	-1.981509333568372	2312.0	0.0	4518.0	2137.87841796875	0.585	755.0	0.21862348178137653	-302.0	187.0	-0.7692307692307693	-6.545343324667381	-1524.0	7.006930216567299	-463.0	22.30422612278866	289.0	
2170.0	-2.2633588386789234	1311.0	9.37840184639337	-1.6061498888083194	2280.0	0.0	5158.0	2157.40966796875	0.585	755.0	0.21862348178137653	-302.0	187.0	-0.7692307692307693	-10.307386450527604	-1483.0	3.3338905115600883	-214.0	21.638371895755466	535.0	
2207.0	-2.083193997756079	1298.0	9.537743081534947	-2.04694454822638	2265.0	0.0	5798.0	2176.94091796875	0.6075	764.0	0.2368421052631579	-293.0	165.0	-0.7246963562753036	-12.417800886985779	-1087.0	1.879462803057597	-110.0	15.54741209005298	673.0	
2218.0	-2.3917890538756557	1291.0	9.630618421958221	-2.1807031124610377	2291.0	0.0	6438.0	2196.47216796875	0.6075	764.0	0.2368421052631579	-293.0	165.0	-0.7246963562753036	-7.600550542896468	-829.0	1.495666203520136	-95.0	11.58469734026138	358.0	
2175.0	-2.383351735758335	1319.0	9.2838740432141	-1.6694813376981203	2290.0	0.0	7078.0	2216.00341796875	0.6075	764.0	0.2368421052631579	-293.0	165.0	-0.7246963562753036	-4.572564612326044	-1083.0	2.2430497236560987	-154.0	15.489670024626466	160.0	
2156.0	-1.865155943001259	1364.0	8.722500937969347	-1.4466111792248424	2246.0	0.0	7718.0	2235.53466796875	0.6075	764.0	0.2368421052631579	-293.0	165.0	-0.7246963562753036	-15.13992965285212	-1041.0	4.948491299204468	-302.0	14.872256126740703	851.0	
2223.0	-1.6742716253482495	1361.0	8.76331365565127	-2.2511149973573246	2230.0	0.0	8358.0	2255.06591796875	0.6125	766.0	0.24898785425101214	-287.0	157.0	-0.708502024291498	-19.559565682826122	-321.0	10.003748651290676	-612.0	3.874780466411633	1140.0	
2231.0	-1.6447278408202692	1314.0	9.336739727496893	-2.335736580243807	2228.0	0.0	8998.0	2274.59716796875	0.6125	766.0	0.24898785425101214	-287.0	157.0	-0.708502024291498	-18.33613702400979	-221.0	11.000666972044797	-679.0	2.350301283806684	1060.0	
2164.0	-2.138856759478868	1266.0	9.923847861637013	-1.52170679108494	2270.0	0.0	9638.0	2294.12841796875	0.6125	766.0	0.24898785425101214	-287.0	157.0	-0.708502024291498	-4.220828872916348	-539.0	9.418335741349713	-616.0	7.2140237747834535	137.0	
2113.0	-2.0296026085110332	1248.0	10.134977244134756	-0.9019338306000055	2261.0	0.0	10278.0	2313.65966796875	0.615	767.0	0.2408906882591093	-291.0	157.0	-0.708502024291498	1.0857929346994954	-791.0	7.35250398499738	-498.0	11.060175339067406	-210.0	
2150.0	-1.9722404400928213	1266.0	9.918813133575014	-1.3514666236571389	2256.0	0.0	10918.0	2333.19091796875	0.615	767.0	0.2408906882591093	-291.0	157.0	-0.708502024291498	0.5352500382321457	-657.0	7.072088123963538	-477.0	9.001210370268332	-174.0	
2191.0	-1.7609959605979708	1291.0	9.614689654488641	-1.8494125520583755	2238.0	0.0	11558.0	2352.72216796875	0.615	767.0	0.2408906882591093	-291.0	157.0	-0.708502024291498	-2.2327573023398077	-488.0	9.70040208290824	-639.0	6.434275771634669	7.0	
2165.0	-2.009636117781511	1280.0	9.750673936134634	-1.5359262559490983	2259.0	0.0	12198.0	2372.25341796875	0.615	767.0	0.2408906882591093	-291.0	157.0	-0.708502024291498	-3.3032573788040986	-879.0	12.759369035125712	-839.0	12.464558551483682	77.0	
2163.0	-2.425855769681117	1277.0	9.795375412840711	-1.5150980373918042	2294.0	0.0	12838.0	2391.78466796875	0.6225	770.0	0.24696356275303644	-288.0	165.0	-0.7246963562753036	4.496100321150023	-1094.0	12.983524880415168	-876.0	15.76586409643343	-433.0	
2199.0	-2.451201883963258	1290.0	9.64171636557897	-1.9521596192388966	2296.0	0.0	13478.0	2411.31591796875	0.6225	770.0	0.24696356275303644	-288.0	165.0	-0.7246963562753036	7.845236274659735	-1136.0	12.350946052707956	-844.0	16.404006621797603	-652.0	
2167.0	-2.000778897518944	1305.0	9.445919771915134	-1.5660291525730314	2258.0	0.0	14118.0	2430.84716796875	0.6225	770.0	0.24696356275303644	-288.0	165.0	-0.7246963562753036	-1.3457715246979662	-1256.0	11.408158356740005	-760.0	18.235916783812915	-51.0	
2172.0	-2.0803104934477132	1274.0	9.826093512371571	-1.6194619575786118	2265.0	0.0	14758.0	2450.37841796875	0.6375000000000001	776.0	0.23076923076923078	-296.0	163.0	-0.7206477732793523	-9.925064994647501	-1340.0	9.523585347156798	-616.0	19.506007680999573	510.0	
2199.0	-2.6037384519911164	1272.0	9.864250038983602	-1.9492343114510824	2309.0	0.0	15398.0	2469.90966796875	0.6375000000000001	776.0	0.23076923076923078	-296.0	163.0	-0.7206477732793523	-1.605750114696437	-1375.0	9.446948077446761	-633.0	20.042298236336844	-34.0	
2192.0	-2.2471633914890807	1276.0	9.807470374901472	-1.8624668047301143	2279.0	0.0	16038.0	2489.44091796875	0.6375000000000001	776.0	0.23076923076923078	-296.0	163.0	-0.7206477732793523	-6.3465361676097265	-1469.0	9.637518896727515	-634.0	21.486585408393395	276.0	
2154.0	-2.055308408121509	1264.0	9.945349664039579	-1.3999593438124716	2263.0	0.0	16678.0	2508.97216796875	0.665	787.0	0.23076923076923078	-296.0	163.0	-0.7206477732793523	-9.603914971708214	-1676.0	8.013401504362234	-522.0	24.646652351701594	489.0	
2141.0	-1.9248856037661348	1268.0	9.892392004338857	-1.243087762938836	2252.0	0.0	17318.0	2528.50341796875	0.665	787.0	0.23076923076923078	-296.0	163.0	-0.7206477732793523	-9.527450680532192	-1721.0	8.587905922249153	-560.0	25.342899160496085	484.0	
2125.0	-1.9270991152077002	1286.0	9.67104086018234	-1.0547658365990327	2252.0	0.0	17958.0	2548.03466796875	0.665	787.0	0.23076923076923078	-296.0	163.0	-0.7206477732793523	-6.988836213488302	-1912.0	8.134071536638412	-539.0	28.269157195341837	318.0	
2117.0	-2.0580348199728777	1286.0	9.672708478902688	-0.9596562991036026	2263.0	0.0	18598.0	2567.56591796875	0.665	787.0	0.23076923076923078	-296.0	163.0	-0.7206477732793523	-5.413671815262273	-2026.0	8.207387406599983	-549.0	30.019161491067692	215.0	
2103.0	-1.9852965349375655	1275.0	9.803679839576807	-0.7876347902445865	2257.0	0.0	19238.0	2587.09716796875	0.6775	792.0	0.2165991902834008	-303.0	152.0	-0.6983805668016194	-7.417036244074018	-2145.0	9.03829140203909	-599.0	31.853464086338946	346.0	
2100.0	-2.5693695946350434	1282.0	9.72970720316234	-0.7588103952565977	2306.0	0.0	19878.0	2606.62841796875	0.6775	792.0	0.2165991902834008	-303.0	152.0	-0.6983805668016194	-4.266707447621961	-2265.0	9.17073210564706	-617.0	33.696126532350014	140.0	
2103.0	-2.1768315760759642	1284.0	9.697794773355957	-0.7916678419803873	2273.0	0.0	20518.0	2626.15966796875	0.6775	792.0	0.2165991902834008	-303.0	152.0	-0.6983805668016194	-2.46215017586787	-2146.0	7.563363349842163	-516.0	31.8540592894751	22.0	
2076.0	-1.8914510176679635	1286.0	9.66442204272745	-0.46418028618960044	2249.0	0.0	21158.0	2645.69091796875	0.6975	800.0	0.2125506072874494	-305.0	129.0	-0.6518218623481782	-11.377886526991896	-1979.0	7.0381179319355525	-457.0	29.286278064389176	605.0	
2071.0	-2.0684078590744295	1273.0	9.82588075922372	-0.40247971641831803	2264.0	0.0	21798.0	2665.22216796875	0.6975	800.0	0.2125506072874494	-305.0	129.0	-0.6518218623481782	-7.799357699954122	-2002.0	6.39927946714597	-425.0	29.632812803878153	371.0	
2084.0	-2.496999425282433	1274.0	9.823866995566256	-0.5634324133776438	2300.0	0.0	22438.0	2684.75341796875	0.6975	800.0	0.2125506072874494	-305.0	129.0	-0.6518218623481782	-1.6210429729316411	-2003.0	6.275063845868912	-433.0	29.646915131323507	-33.0	
2061.0	-2.2833939765797258	1279.0	9.755840437265542	-0.2855484563216912	2282.0	0.0	23078.0	2704.28466796875	0.6975	800.0	0.2125506072874494	-305.0	129.0	-0.6518218623481782	-1.9727787123413367	-2049.0	4.928571560329865	-345.0	30.339296456741863	-10.0	
2031.0	-1.929406564883648	1304.0	9.440295892587574	0.0731263100342403	2252.0	0.0	23718.0	2723.81591796875	0.72	809.0	0.21052631578947367	-306.0	111.0	-0.6153846153846154	-7.01942192995871	-2067.0	1.5900918864424862	-115.0	30.582112365849234	320.0	
2060.0	-1.5464234591897166	1287.0	9.64336836674264	-0.26837999978716476	2220.0	0.0	24358.0	2743.34716796875	0.72	809.0	0.21052631578947367	-306.0	111.0	-0.6153846153846154	-8.59458632818474	-1991.0	0.8034329982924479	-59.0	29.408065018950246	423.0	
2044.0	-1.8148335359131333	1243.0	10.183313075353345	-0.06749412204483551	2243.0	0.0	24998.0	2762.87841796875	0.72	809.0	0.21052631578947367	-306.0	111.0	-0.6153846153846154	2.5692001835142992	-2231.0	1.1814229156013252	-115.0	33.094520996073314	-307.0	
2015.0	-1.7558442209797922	1247.0	10.129863616306501	0.28142437228500683	2238.0	0.0	25638.0	2782.40966796875	0.7325	814.0	0.22267206477732793	-300.0	85.0	-0.562753036437247	4.710200336442882	-2559.0	2.183639198931434	-189.0	38.137533798771585	-447.0	
2000.0	-1.7551308720048147	1241.0	10.201198513804261	0.4635810952909768	2238.0	0.0	26278.0	2801.94091796875	0.7325	814.0	0.22267206477732793	-300.0	85.0	-0.562753036437247	10.047407860529134	-2739.0	4.234280847051803	-338.0	40.92004727371526	-796.0	
2004.0	-1.7536632266193592	1229.0	10.34796305234978	0.4183382914314044	2238.0	0.0	26918.0	2821.47216796875	0.7325	814.0	0.22267206477732793	-300.0	85.0	-0.562753036437247	7.982871998776572	-2670.0	4.235156394382557	-332.0	39.86128665677796	-661.0	
1982.0	-2.050761362841353	1225.0	10.40005419205514	0.6814693738271471	2263.0	0.0	27558.0	2841.00341796875	0.7675000000000001	828.0	0.21862348178137653	-302.0	73.0	-0.5384615384615384	3.884385991741857	-2559.0	4.631440067544165	-346.0	38.1620118074577	-393.0	
1949.0	-1.8499236438655249	1237.0	10.245730851542737	1.0779816456524405	2246.0	0.0	28198.0	2860.53466796875	0.7675000000000001	828.0	0.21862348178137653	-302.0	73.0	-0.5384615384615384	0.6117143294081664	-2413.0	4.446358912828535	-324.0	35.919866381824306	-179.0	
1945.0	-1.66217239250941	1259.0	9.973236939535209	1.1226020510101884	2230.0	0.0	28838.0	2880.06591796875	0.7675000000000001	828.0	0.21862348178137653	-302.0	73.0	-0.5384615384615384	1.804557271754091	-2185.0	4.279824782440391	-314.0	32.419658766467954	-257.0	
1948.0	-1.3437304453978058	1283.0	9.674574507838468	1.0836686435341165	2203.0	0.0	29478.0	2899.59716796875	0.7675000000000001	828.0	0.21862348178137653	-302.0	73.0	-0.5384615384615384	-2.5233216088086867	-1857.0	6.041318583160176	-414.0	27.404283064610183	26.0	
1951.0	-1.5199462380935145	1264.0	9.910138095410442	1.0504731790453459	2218.0	0.0	30118.0	2919.12841796875	0.775	831.0	0.22469635627530365	-299.0	49.0	-0.4898785425101215	5.704236121731152	-1868.0	9.09431783546409	-634.0	27.603602377372596	-512.0	
1946.0	-1.7103901798835282	1264.0	9.913362964028142	1.1088742008552215	2234.0	0.0	30758.0	2938.65966796875	0.775	831.0	0.22469635627530365	-299.0	49.0	-0.4898785425101215	12.433093745220983	-2039.0	10.352405792036926	-735.0	30.240089962477683	-952.0	
1924.0	-2.1414619445968732	1285.0	9.663329349836472	1.3646230518881102	2270.0	0.0	31398.0	2958.19091796875	0.775	831.0	0.22469635627530365	-299.0	49.0	-0.4898785425101215	15.246979660498548	-2062.0	10.390139839627565	-745.0	30.593390427090462	-1136.0	
1905.0	-2.2116800236611693	1275.0	9.784378586264067	1.5952575184766213	2276.0	0.0	32038.0	2977.72216796875	0.7975	840.0	0.19433198380566802	-314.0	60.0	-0.5121457489878543	4.358464597033186	-1825.0	10.985045368961298	-753.0	26.962696855408197	-424.0	
1900.0	-2.1043209106085787	1273.0	9.8060041772374	1.6570045852820356	2267.0	0.0	32678.0	2997.25341796875	0.7975	840.0	0.19433198380566802	-314.0	60.0	-0.5121457489878543	-3.700871692919407	-1746.0	10.811944059582288	-720.0	25.74875163332254	103.0	
1899.0	-2.011297396950909	1291.0	9.584546019194828	1.6655538500288452	2259.0	0.0	33318.0	3016.78466796875	0.7975	840.0	0.19433198380566802	-314.0	60.0	-0.5121457489878543	-9.63450068817862	-1762.0	10.554627869313203	-688.0	25.991690209949848	491.0	
1904.0	-1.7979020315040812	1298.0	9.49551113530614	1.6056661421501182	2241.0	0.0	33958.0	3036.31591796875	0.7975	840.0	0.19433198380566802	-314.0	60.0	-0.5121457489878543	-9.756843554060255	-1757.0	11.037090277318969	-719.0	25.91979241573928	499.0	
1870.0	-2.1087455248190325	1309.0	9.363542756192011	2.009556893851553	2267.0	0.0	34598.0	3055.84716796875	0.795	839.0	0.20647773279352227	-308.0	34.0	-0.45951417004048584	-6.988836213488302	-1866.0	11.801738467007409	-777.0	27.59998761637178	318.0	
1880.0	-2.1434653727825586	1301.0	9.462986531267926	1.890716643162593	2270.0	0.0	35238.0	3075.37841796875	0.795	839.0	0.20647773279352227	-308.0	34.0	-0.45951417004048584	-3.0738645052760365	-2042.0	11.264395317405478	-754.0	30.295243308705743	62.0	
1866.0	-2.250359758878875	1299.0	9.487833635922021	2.0588193401898924	2279.0	0.0	35878.0	3094.90966796875	0.795	839.0	0.20647773279352227	-308.0	34.0	-0.45951417004048584	-3.4714788193913444	-2050.0	8.310593676677632	-561.0	30.388461161563463	88.0	
1862.0	-2.1427556368165956	1295.0	9.533960127864214	2.1090106823336967	2270.0	0.0	36518.0	3114.44091796875	0.8175	848.0	0.20850202429149797	-307.0	20.0	-0.4311740890688259	-7.707600550542897	-1986.0	5.798216698325011	-386.0	29.381290437659942	365.0	
1847.0	-2.046823327787457	1289.0	9.603381506968562	2.29208132457234	2262.0	0.0	37158.0	3133.97216796875	0.8175	848.0	0.20850202429149797	-307.0	20.0	-0.4311740890688259	-7.799357699954122	-2100.0	2.9543448653136997	-202.0	31.102122856356072	371.0	
1873.0	-1.689842817176234	1290.0	9.587146853805171	1.9820734245669915	2232.0	0.0	37798.0	3153.50341796875	0.8175	848.0	0.20850202429149797	-307.0	20.0	-0.4311740890688259	-12.448386603456187	-2208.0	3.339046993277228	-216.0	32.763174112713195	675.0	
1846.0	-1.5929497414897527	1276.0	9.752644898643785	2.311653521039906	2224.0	0.0	38438.0	3173.03466796875	0.8325	854.0	0.20647773279352227	-308.0	2.0	-0.39473684210526316	-8.181679155834226	-2380.0	3.618807922815817	-247.0	35.40522291120607	396.0	
1829.0	-1.5327269511536008	1270.0	9.822542979878016	2.5184729876763856	2219.0	0.0	39078.0	3192.56591796875	0.8325	854.0	0.20647773279352227	-308.0	2.0	-0.39473684210526316	-1.896314421165316	-2699.0	3.9490836072674615	-288.0	40.30341595499243	-15.0	
1793.0	-1.6633306703262234	1267.0	9.857409157853859	2.9515992138032128	2230.0	0.0	39718.0	3212.09716796875	0.8325	854.0	0.20647773279352227	-308.0	2.0	-0.39473684210526316	-0.13763572411683744	-2733.0	4.042714709564187	-299.0	40.826064710391634	-130.0	
1783.0	-1.8541463408079535	1270.0	9.823461157299885	3.069494024798159	2246.0	0.0	40358.0	3231.62841796875	0.8325	854.0	0.20647773279352227	-308.0	2.0	-0.39473684210526316	-1.3916500994035788	-2553.0	5.2432794672739576	-372.0	38.07606329950626	-48.0	
1778.0	-1.7356162717686439	1274.0	9.771706156468928	3.129885189327355	2236.0	0.0	40998.0	3251.15966796875	0.85	861.0	0.20040485829959515	-311.0	-16.0	-0.3582995951417004	-3.731457409389815	-2443.0	5.799780259276966	-401.0	36.393735105032555	105.0	
1775.0	-1.937960174892751	1274.0	9.775411082153454	3.164080427123057	2253.0	0.0	41638.0	3270.69091796875	0.85	861.0	0.20040485829959515	-311.0	-16.0	-0.3582995951417004	-0.9022786358770455	-2437.0	6.256631300988889	-438.0	36.30623671350092	-80.0	
1772.0	-2.0946450353765806	1290.0	9.583115509960972	3.194812245387622	2266.0	0.0	42278.0	3290.22216796875	0.85	861.0	0.20040485829959515	-311.0	-16.0	-0.3582995951417004	-2.0186572870469495	-2468.0	6.0350535838320045	-421.0	36.77969992973122	-7.0	
1787.0	-2.0234565549642367	1292.0	9.559106408338232	3.0143210565930256	2260.0	0.0	42918.0	3309.75341796875	0.86	865.0	0.20647773279352227	-308.0	-50.0	-0.2894736842105263	-3.0126930723352197	-2553.0	6.246338062303725	-433.0	38.086093885456556	58.0	
1760.0	-2.1898784474668007	1290.0	9.583583824748498	3.3384475908154823	2274.0	0.0	43558.0	3329.28466796875	0.86	865.0	0.20647773279352227	-308.0	-50.0	-0.2894736842105263	1.3763572411683744	-2660.0	4.4547827237653985	-329.0	39.71003808349053	-229.0	
1733.0	-2.307106129565507	1275.0	9.765577519639804	3.6662163927115987	2284.0	0.0	44198.0	3348.81591796875	0.86	865.0	0.20647773279352227	-308.0	-50.0	-0.2894736842105263	4.4196360299740025	-2685.0	1.714507168440392	-159.0	40.06624741939041	-428.0	
1709.0	-2.496841539725896	1269.0	9.83965555121997	3.9549572257476218	2300.0	0.0	44838.0	3368.34716796875	0.86	865.0	0.20647773279352227	-308.0	-50.0	-0.2894736842105263	2.64566447469032	-2716.0	0.4118193587526503	-70.0	40.5288995346954	-312.0	
1726.0	-2.0947004348481397	1290.0	9.577575562805082	3.748917759919668	2266.0	0.0	45478.0	3387.87841796875	0.8725	870.0	0.19230769230769232	-315.0	-59.0	-0.27125506072874495	-8.716929194066372	-2606.0	-2.0853222830728444	123.0	38.816034915883414	431.0	
1710.0	-1.501917348287873	1309.0	9.332074695022234	3.942706657766963	2216.0	0.0	46118.0	3407.40966796875	0.8725	870.0	0.19230769230769232	-315.0	-59.0	-0.27125506072874495	-12.433093745220983	-2395.0	-5.857159620164555	380.0	35.54063049064814	674.0	
1717.0	-1.9054923771336132	1300.0	9.450762286638662	3.856707309913244	2250.0	0.0	46758.0	3426.94091796875	0.8725	870.0	0.19230769230769232	-315.0	-59.0	-0.27125506072874495	-2.6915430493959325	-2406.0	-6.602226758836183	403.0	35.70196913950079	37.0	
1709.0	-1.8333563777636475	1294.0	9.521505080778129	3.955229067958408	2244.0	0.0	47398.0	3446.47216796875	0.8725	870.0	0.2165991902834008	-303.0	-92.0	-0.20445344129554657	1.2234286588163328	-2559.0	-6.3670054893993004	376.0	38.05202735188827	-219.0	
1699.0	-1.6307843263385868	1292.0	9.540614985188933	4.078118914271718	2227.0	0.0	48038.0	3466.00341796875	0.8725	870.0	0.2165991902834008	-303.0	-92.0	-0.20445344129554657	0.1988071570576541	-2620.0	-5.35101843443954	312.0	38.99820072558349	-152.0	
1677.0	-1.797931611179511	1296.0	9.492553167763205	4.340546446038649	2241.0	0.0	48678.0	3485.53466796875	0.8725	870.0	0.2165991902834008	-303.0	-92.0	-0.20445344129554657	2.5386144670438906	-2728.0	-6.922339281159854	407.0	40.63969175219378	-305.0	
1661.0	-1.750219498197167	1295.0	9.501859704092839	4.5339807822324145	2237.0	0.0	49318.0	3505.06591796875	0.885	875.0	0.22672064777327935	-298.0	-114.0	-0.15991902834008098	0.3058571647040832	-2784.0	-7.318432006070716	438.0	41.49502190979966	-159.0	
1638.0	-1.5232488514475873	1288.0	9.579876760003177	4.814919263553057	2218.0	0.0	49958.0	3524.59716796875	0.885	875.0	0.22672064777327935	-298.0	-114.0	-0.15991902834008098	-4.832543202324515	-2673.0	-7.142028001583863	441.0	39.793548263792665	177.0	
1637.0	-1.4149097023562422	1278.0	9.699505954851956	4.83044343171203	2209.0	0.0	50598.0	3544.12841796875	0.885	875.0	0.22672064777327935	-298.0	-114.0	-0.15991902834008098	-4.587857470561248	-2612.0	-5.266008533825704	319.0	38.87629495532463	161.0	
1636.0	-1.5590802724772495	1289.0	9.56816322846554	4.838423064254177	2221.0	0.0	51238.0	3563.65966796875	0.885	875.0	0.22672064777327935	-298.0	-114.0	-0.15991902834008098	-0.21410001529285827	-2587.0	-3.545278171329363	196.0	38.509890167496465	-125.0	
1616.0	-1.3924711791092323	1289.0	9.562405898600598	5.0809378640122445	2207.0	0.0	51878.0	3583.19091796875	0.8825000000000001	874.0	0.22874493927125505	-297.0	-140.0	-0.10728744939271255	1.5598715399908245	-2363.0	-4.25861300759351	240.0	35.06559247971385	-241.0	
1605.0	-1.4744600911529167	1278.0	9.69684802756548	5.215336937953033	2214.0	0.0	52518.0	3602.72216796875	0.8825000000000001	874.0	0.22874493927125505	-297.0	-140.0	-0.10728744939271255	4.174950298210736	-1994.0	-6.013849115824355	351.0	29.385925648783452	-412.0	
1605.0	-1.605142356554038	1276.0	9.723859582691455	5.214570346401541	2225.0	0.0	53158.0	3622.25341796875	0.8825000000000001	874.0	0.22874493927125505	-297.0	-140.0	-0.10728744939271255	2.5233216088086867	-1709.0	-7.165281455141215	433.0	25.001233482824684	-304.0	
1604.0	-1.569680255543416	1278.0	9.698641112325065	5.226468790775404	2222.0	0.0	53798.0	3641.78466796875	0.885	875.0	0.20445344129554657	-309.0	-145.0	-0.09716599190283401	-1.422235815873987	-1477.0	-6.2643665988524875	387.0	21.45032242270259	-46.0	
