Device	Device	Device	Device	Device	Device	Device	Device	Device	Device	Device	Device	Device	Device	Device	Device	Device	Device	Device	Device	Device	
Low Noise Accelerometer X	Low Noise Accelerometer X	Low Noise Accelerometer Z	Low Noise Accelerometer Z	Low Noise Accelerometer Y	Low Noise Accelerometer Y	Event_Marker	Timestamp	Timestamp	Magnetometer Z	Magnetometer Z	Magnetometer X	Magnetometer X	Magnetometer Y	Magnetometer Y	Gyroscope Y	Gyroscope Y	Gyroscope Z	Gyroscope Z	Gyroscope X	Gyroscope X	
CAL	UNCAL	CAL	UNCAL	CAL	UNCAL	CAL	UNCAL	CAL	CAL	UNCAL	UNCAL	CAL	UNCAL	CAL	CAL	UNCAL	UNCAL	CAL	CAL	UNCAL	
m/(s^2)	no units	m/(s^2)	no units	m/(s^2)	no units	no units	no units	ms	local_flux	no units	no units	local_flux	no units	local_flux	deg/s	no units	no units	deg/s	deg/s	no units	
0.32708498224104166	2027.0	10.089450605056543	1247.0	0.15686709083920392	2063.0	0.0	29990.0	915.22216796875	0.73	813.0	-712.0	-0.611336032388664	-174.0	-0.038461538461538464	-6.117143294081664	-7.0	24.0	-0.26784969646231865	-1.046103385717117	261.0	
0.39789691661631593	2033.0	10.027786899726834	1252.0	0.08405277944985645	2057.0	0.0	30630.0	934.75341796875	0.73	813.0	-712.0	-0.611336032388664	-174.0	-0.038461538461538464	-5.168986083499006	57.0	-27.0	0.48846354645541784	-2.020587207407934	199.0	
0.3376644915894582	2042.0	9.956925349422015	1258.0	-0.026400510746267508	2062.0	0.0	31270.0	954.28466796875	0.7175	808.0	-712.0	-0.611336032388664	-146.0	-0.0951417004048583	-3.058571647040832	50.0	-26.0	0.38760069254162655	-1.9141844503401968	61.0	
0.31374507525727213	2048.0	9.94593609715579	1259.0	-0.09914864658141992	2064.0	0.0	31910.0	973.81591796875	0.7175	808.0	-712.0	-0.611336032388664	-146.0	-0.0951417004048583	-3.0891573635112404	-59.0	-66.0	0.9873286166121579	-0.23563845236387693	63.0	
0.3008614648754093	2043.0	9.848051249445698	1267.0	-0.040994215784018684	2065.0	0.0	32550.0	993.34716796875	0.7175	808.0	-712.0	-0.611336032388664	-146.0	-0.0951417004048583	-4.266707447621961	-178.0	-108.0	1.6621576546806633	1.5971033933336718	140.0	
0.4552241592807192	2041.0	9.808130213786203	1270.0	-0.016152624010986827	2052.0	0.0	33190.0	1012.87841796875	0.73	813.0	-708.0	-0.6032388663967612	-168.0	-0.05060728744939271	-2.875057348218382	-267.0	-133.0	1.9773597621577153	2.9659144599815592	49.0	
0.31275901753682656	2039.0	9.847330325111226	1267.0	0.007303112340243417	2064.0	0.0	33830.0	1032.40966796875	0.73	813.0	-708.0	-0.6032388663967612	-168.0	-0.05060728744939271	-1.039914359993883	-324.0	-133.0	1.8952159013296868	3.839728589886398	-71.0	
0.3857459245908425	2029.0	10.003163887655678	1254.0	0.13163158037251593	2058.0	0.0	34470.0	1051.94091796875	0.73	813.0	-708.0	-0.6032388663967612	-168.0	-0.05060728744939271	-1.513992965285212	-395.0	-140.0	2.0109486310646068	4.930344256910616	-40.0	
0.39727295289688114	2021.0	9.965390527783354	1257.0	0.2273769256268046	2057.0	0.0	35110.0	1071.47216796875	0.73	813.0	-708.0	-0.6032388663967612	-168.0	-0.05060728744939271	-1.437528674109191	-391.0	-97.0	1.3471335182293351	4.8623281711497635	-45.0	
0.516908573320635	2023.0	10.024190665396835	1252.0	0.20565289904114303	2047.0	0.0	35750.0	1091.00341796875	0.735	815.0	-700.0	-0.5870445344129555	-175.0	-0.03643724696356275	-0.42820003058571654	-378.0	-69.0	0.8780990900327372	4.658159539312173	-111.0	
0.4700268943045909	2020.0	10.09792752569718	1246.0	0.24280339777024254	2051.0	0.0	36390.0	1110.53466796875	0.735	815.0	-700.0	-0.5870445344129555	-175.0	-0.03643724696356275	-0.5352500382321457	-352.0	-48.0	0.5633749019279913	4.2560557223198785	-104.0	
0.4697867026402552	2023.0	10.073908359263614	1248.0	0.20617603421167485	2051.0	0.0	37030.0	1130.06591796875	0.735	815.0	-700.0	-0.5870445344129555	-175.0	-0.03643724696356275	-2.9821073558648115	-389.0	-104.0	1.5168823224858055	4.833336691876078	56.0	
0.5286878366543917	2022.0	10.011640808296315	1253.0	0.21756788730355459	2046.0	0.0	37670.0	1149.59716796875	0.7375	816.0	-704.0	-0.5951417004048583	-180.0	-0.02631578947368421	-3.027985930570424	-380.0	-149.0	2.212230134037519	4.702189817068471	59.0	
0.45751621695078304	2021.0	10.037335980792587	1251.0	0.22941826732752824	2052.0	0.0	38310.0	1169.12841796875	0.7375	816.0	-704.0	-0.5951417004048583	-180.0	-0.02631578947368421	-2.110414436458174	-411.0	-187.0	2.7552416408102376	5.183298925538071	-1.0	
0.3980031625805941	2020.0	10.038411496154644	1251.0	0.24089283986215185	2057.0	0.0	38950.0	1188.65966796875	0.7375	816.0	-704.0	-0.5951417004048583	-180.0	-0.02631578947368421	-1.5904572564612327	-420.0	-193.0	2.825348832670664	5.3221003503798	-35.0	
0.3506350785541874	2018.0	10.06350785541874	1249.0	0.2650174717493383	2061.0	0.0	39590.0	1208.19091796875	0.7375	816.0	-704.0	-0.5951417004048583	-180.0	-0.02631578947368421	-1.0093286435234747	-436.0	-182.0	2.630463321586306	5.565663233798954	-73.0	
0.2667137941687734	2022.0	10.004712750210674	1254.0	0.21480958571698555	2068.0	0.0	40230.0	1227.72216796875	0.73	813.0	-712.0	-0.611336032388664	-178.0	-0.03036437246963563	-1.1928429423459246	-452.0	-211.0	3.081388901254759	5.815684228125637	-61.0	
0.26697205087818265	2034.0	10.030538421151597	1252.0	0.07075036844988603	2068.0	0.0	40870.0	1247.25341796875	0.73	813.0	-712.0	-0.611336032388664	-178.0	-0.03036437246963563	-1.988071570576541	-505.0	-284.0	4.227854992025548	6.640406522913965	-9.0	
0.257995336951617	2034.0	10.323343218971225	1228.0	0.07651669726701293	2069.0	0.0	41510.0	1266.78466796875	0.73	813.0	-712.0	-0.611336032388664	-178.0	-0.03036437246963563	-0.5964214711729623	-681.0	-321.0	4.714277263321092	9.345899869456904	-100.0	
0.3813978864489193	2026.0	10.75883626393955	1192.0	0.18284612583002718	2059.0	0.0	42150.0	1286.31591796875	0.73	813.0	-701.0	-0.5890688259109311	-176.0	-0.03441295546558704	4.205536014681145	-904.0	-375.0	5.3185617766564715	12.773762570352112	-414.0	
0.5282442862950893	2022.0	11.157761962842262	1159.0	0.2404858748908805	2047.0	0.0	42790.0	1305.84716796875	0.73	813.0	-701.0	-0.5890688259109311	-176.0	-0.03441295546558704	9.986236427588317	-1135.0	-483.0	6.7130314354810245	16.33228299196721	-792.0	
0.39089663401887814	2018.0	11.70871102093543	1114.0	0.29832415061431905	2059.0	0.0	43430.0	1325.37841796875	0.73	813.0	-701.0	-0.5890688259109311	-176.0	-0.03441295546558704	14.451751032267932	-1476.0	-644.0	8.958403695244359	21.587205641985435	-1084.0	
0.4201628924560371	1998.0	12.254384483698953	1069.0	0.5504941378756478	2057.0	0.0	44070.0	1344.90966796875	0.725	811.0	-705.0	-0.597165991902834	-189.0	-0.008097165991902834	16.241015445786818	-1719.0	-836.0	11.802653384324547	25.34435766780059	-1201.0	
0.003809294856373685	1986.0	12.285691390399274	1067.0	0.6915350532866696	2092.0	0.0	44710.0	1364.44091796875	0.725	811.0	-705.0	-0.597165991902834	-189.0	-0.008097165991902834	12.983636641688333	-1737.0	-1097.0	15.944539299767873	25.661977232801274	-988.0	
-0.3317671880483277	1991.0	12.06137643326247	1086.0	0.6234520254594649	2120.0	0.0	45350.0	1383.97216796875	0.725	811.0	-705.0	-0.597165991902834	-189.0	-0.008097165991902834	8.212264872304635	-1698.0	-1432.0	21.293896959807515	25.117035946734795	-676.0	
-0.5121360905453606	1987.0	11.881629040702036	1101.0	0.6662461596676232	2135.0	0.0	45990.0	1403.50341796875	0.725	811.0	-705.0	-0.597165991902834	-189.0	-0.008097165991902834	-4.771371769383698	-1720.0	-1875.0	28.62346993773309	25.5279103169928	173.0	
0.13979434337506952	1972.0	11.598481956554572	1123.0	0.8478254138901433	2080.0	0.0	46630.0	1423.03466796875	0.715	807.0	-709.0	-0.6052631578947368	-199.0	0.012145748987854251	-16.715094051078147	-1508.0	-2159.0	33.5018199826311	22.323663281919302	954.0	
0.49333750183262276	1978.0	11.23851208802418	1152.0	0.771872291477605	2050.0	0.0	47270.0	1442.56591796875	0.715	807.0	-709.0	-0.6052631578947368	-199.0	0.012145748987854251	-21.593515828108277	-1179.0	-2445.0	38.14629893810106	17.321772947950905	1273.0	
0.9309202340032505	1977.0	10.949166257467903	1175.0	0.7825093949592701	2013.0	0.0	47910.0	1462.09716796875	0.715	807.0	-709.0	-0.6052631578947368	-199.0	0.012145748987854251	-24.193301728092983	-796.0	-2572.0	40.26239374539828	11.465996654962039	1443.0	
0.7629425151960267	1974.0	10.818061043412193	1186.0	0.8143520918033366	2027.0	0.0	48550.0	1481.62841796875	0.7325	814.0	-699.0	-0.5850202429149798	-219.0	0.05263157894736842	-15.659886832849061	-569.0	-2749.0	42.67830558891541	8.006957983002858	885.0	
0.5142250161203261	1985.0	10.946311135842143	1176.0	0.681899798179251	2048.0	0.0	49190.0	1501.15966796875	0.7325	814.0	-699.0	-0.5850202429149798	-219.0	0.05263157894736842	-9.420400672885764	-397.0	-2830.0	43.7009785467808	5.377933523384028	477.0	
0.4322300823949505	1969.0	11.080151096637904	1165.0	0.8765277323952618	2055.0	0.0	49830.0	1520.69091796875	0.7325	814.0	-699.0	-0.5850202429149798	-219.0	0.05263157894736842	-5.016057501146965	-516.0	-2829.0	43.49118361496648	7.201829129382748	189.0	
0.19317976383036667	1946.0	10.984643049703333	1173.0	1.1493355020058644	2075.0	0.0	50470.0	1540.22216796875	0.7325	814.0	-699.0	-0.5850202429149798	-219.0	0.05263157894736842	1.8504358464597035	-513.0	-3059.0	46.75457511992246	7.188429593457934	-260.0	
0.2867995414716915	1934.0	10.822811290026296	1186.0	1.291613377841749	2067.0	0.0	51110.0	1559.75341796875	0.74	817.0	-691.0	-0.5688259109311741	-239.0	0.0931174089068826	4.878421777030128	-314.0	-3226.0	49.23257896855387	4.159657383977391	-458.0	
0.47649279986024207	1923.0	10.744518081262301	1192.0	1.424474566732282	2051.0	0.0	51750.0	1579.28466796875	0.74	817.0	-691.0	-0.5688259109311741	-239.0	0.0931174089068826	7.891114849365347	-264.0	-3489.0	53.16488171391395	3.4317562285247467	-655.0	
0.40507255813793	1918.0	10.74535105188824	1192.0	1.4840179875829993	2057.0	0.0	52390.0	1598.81591796875	0.74	817.0	-691.0	-0.5688259109311741	-239.0	0.0931174089068826	8.992200642300046	3.0	-3843.0	58.606579988950834	-0.6108039254442345	-727.0	
0.7389375909838258	1909.0	10.798521003144486	1187.0	1.5968537718763423	2029.0	0.0	53030.0	1618.34716796875	0.7275	812.0	-693.0	-0.5728744939271255	-269.0	0.15384615384615385	6.163021868787277	260.0	-4021.0	61.496933729010806	-4.525432688181736	-542.0	
0.9782172621857012	1920.0	10.916964313808212	1177.0	1.469085314319708	2009.0	0.0	53670.0	1637.87841796875	0.7275	812.0	-693.0	-0.5728744939271255	-269.0	0.15384615384615385	10.521486465820463	545.0	-4096.0	62.51989329395766	-8.888380935097864	-827.0	
0.8007908764776082	1930.0	11.03146860014176	1168.0	1.3491192084784547	2024.0	0.0	54310.0	1657.40966796875	0.7275	812.0	-693.0	-0.5728744939271255	-269.0	0.15384615384615385	17.72442269460162	641.0	-4178.0	63.50775217178296	-10.351572777499602	-1298.0	
0.767519404518125	1928.0	11.275749975622018	1148.0	1.3777685068106336	2027.0	0.0	54950.0	1676.94091796875	0.73	813.0	-684.0	-0.5546558704453441	-292.0	0.20040485829959515	22.0523015751644	774.0	-4190.0	63.539628978762494	-12.392070335960419	-1581.0	
0.6474070137747144	1935.0	11.169272806042876	1157.0	1.2901004901140263	2037.0	0.0	55590.0	1696.47216796875	0.73	813.0	-684.0	-0.5546558704453441	-292.0	0.20040485829959515	22.89340877810063	968.0	-4097.0	62.10534727082742	-15.383242982716002	-1636.0	
0.6449990754496666	1960.0	10.928478973538093	1177.0	0.9840557148035716	2037.0	0.0	56230.0	1716.00341796875	0.73	813.0	-684.0	-0.5546558704453441	-292.0	0.20040485829959515	21.21119437222817	1157.0	-3921.0	59.49462218996176	-18.309457644910268	-1526.0	
0.5020631850678086	1972.0	10.920604221066574	1178.0	0.8378905475973106	2049.0	0.0	56870.0	1735.53466796875	0.73	813.0	-684.0	-0.5546558704453441	-292.0	0.20040485829959515	22.327573023398074	1010.0	-3778.0	57.227975727059274	-16.076485011794933	-1599.0	
0.5234359000295362	1977.0	10.676923336286961	1198.0	0.7729896931959142	2047.0	0.0	57510.0	1755.06591796875	0.725	811.0	-682.0	-0.5506072874493927	-301.0	0.21862348178137653	21.624101544578682	905.0	-3763.0	57.00929101357056	-14.467501074826702	-1553.0	
0.1652833351687524	1990.0	10.575952564494287	1207.0	0.6107622460873564	2077.0	0.0	58150.0	1774.59716796875	0.725	811.0	-682.0	-0.5506072874493927	-301.0	0.21862348178137653	23.382780241627163	763.0	-3713.0	56.148128370919004	-12.297196021799481	-1668.0	
-0.0263711996336453	1992.0	10.458118131873567	1217.0	0.5823926265447493	2093.0	0.0	58790.0	1794.12841796875	0.725	811.0	-682.0	-0.5506072874493927	-301.0	0.21862348178137653	15.904572564612328	557.0	-3716.0	56.46176242491282	-9.133096047685813	-1179.0	
0.38728489018676693	1991.0	10.157060447248123	1241.0	0.592556226521529	2058.0	0.0	59430.0	1813.65966796875	0.7075	804.0	-677.0	-0.5404858299595142	-310.0	0.2368421052631579	8.716929194066372	590.0	-3628.0	55.40080003371971	-9.650073632315866	-709.0	
0.5534569563342895	2013.0	10.1076003953337	1245.0	0.32816850518086027	2044.0	0.0	60070.0	1833.19091796875	0.7075	804.0	-677.0	-0.5404858299595142	-310.0	0.2368421052631579	10.705000764642913	678.0	-3457.0	52.70468536868373	-11.027349340881216	-839.0	
0.6136966073791765	2010.0	10.179184547441462	1239.0	0.3663471630467174	2039.0	0.0	60710.0	1852.72216796875	0.7075	804.0	-677.0	-0.5404858299595142	-310.0	0.2368421052631579	12.371922312280166	410.0	-3286.0	49.96679452036073	-6.942406628986973	-948.0	
0.42265519726916945	2015.0	10.122662584059807	1244.0	0.3030653458225625	2055.0	0.0	61350.0	1872.25341796875	0.7075	804.0	-677.0	-0.5404858299595142	-310.0	0.2368421052631579	12.830708059336292	270.0	-3239.0	49.204071388085346	-4.801806148172239	-978.0	
0.4680716395724349	2016.0	9.902402052481584	1262.0	0.2870661068429464	2051.0	0.0	61990.0	1891.78466796875	0.7025	802.0	-671.0	-0.52834008097166	-332.0	0.2813765182186235	12.586022327573025	193.0	-3198.0	48.57143462433923	-3.626607274134083	-962.0	
0.4548427958982965	2028.0	9.769993875543937	1273.0	0.13970734161444004	2052.0	0.0	62630.0	1911.31591796875	0.7025	802.0	-671.0	-0.52834008097166	-332.0	0.2813765182186235	16.332772595198044	274.0	-3051.0	46.17304289850621	-4.893494367700529	-1207.0	
0.28685544240036687	2017.0	9.637925192417638	1284.0	0.26791621489886247	2066.0	0.0	63270.0	1930.84716796875	0.7025	802.0	-671.0	-0.52834008097166	-332.0	0.2813765182186235	18.504358464597036	92.0	-2867.0	43.228213191642354	-2.1302466389904353	-1349.0	
0.051495915353509336	2022.0	9.911496297255695	1262.0	0.21079307786973334	2086.0	0.0	63910.0	1950.37841796875	0.6925	798.0	-676.0	-0.5384615384615384	-320.0	0.25708502024291496	16.852729775194984	115.0	-2704.0	40.790744749083785	-2.507544447552894	-1241.0	
-0.1723522397597066	2006.0	10.145728404981723	1243.0	0.4060103228104711	2105.0	0.0	64550.0	1969.90966796875	0.6925	798.0	-676.0	-0.5384615384615384	-320.0	0.25708502024291496	14.421165315797523	-110.0	-2656.0	40.115201847049335	0.9382089465048651	-1082.0	
-0.20964648882947096	2004.0	9.98773206943386	1256.0	0.4265738391509849	2108.0	0.0	65190.0	1989.44091796875	0.6925	798.0	-676.0	-0.5384615384615384	-320.0	0.25708502024291496	8.472243462303105	-80.0	-2574.0	39.09651952596612	0.46768761355028576	-693.0	
-0.14017186714860896	2013.0	9.792337094662914	1272.0	0.3149269509326156	2102.0	0.0	294.0	2008.97216796875	0.685	795.0	-667.0	-0.520242914979757	-346.0	0.3097165991902834	1.896314421165316	35.0	-2445.0	37.39306308332523	-1.3139625715604875	-263.0	
0.12105269627188468	1998.0	9.724317246236089	1277.0	0.4969016911645491	2080.0	0.0	934.0	2028.50341796875	0.685	795.0	-667.0	-0.520242914979757	-346.0	0.3097165991902834	-2.9056430646887907	32.0	-2303.0	35.40060095282295	-1.2878537418911353	51.0	
0.0876870217115058	2019.0	9.959178361626773	1258.0	0.24825320853398786	2083.0	0.0	1574.0	2048.03466796875	0.685	795.0	-667.0	-0.520242914979757	-346.0	0.3097165991902834	-2.844471631747974	239.0	-2121.0	32.630624877253965	-4.491861619878681	47.0	
-0.05405995371205627	2006.0	10.07019510498485	1249.0	0.4056825796710101	2095.0	0.0	2214.0	2067.56591796875	0.685	795.0	-667.0	-0.520242914979757	-346.0	0.3097165991902834	-0.22939287352806242	132.0	-1946.0	29.817990837977188	-2.878128208852084	-124.0	
-0.6373967820441303	2007.0	10.069845605110789	1250.0	0.3877940286191239	2144.0	0.0	2854.0	2087.09716796875	0.685	795.0	-677.0	-0.5404858299595142	-324.0	0.2651821862348178	-0.3211500229392874	224.0	-1701.0	26.067502121018002	-4.327325592569166	-118.0	
-0.7349330908314582	2006.0	9.840024250187518	1269.0	0.3942704312038695	2152.0	0.0	3494.0	2106.62841796875	0.685	795.0	-677.0	-0.5404858299595142	-324.0	0.2651821862348178	-8.900443492888822	396.0	-1522.0	23.683882183324865	-6.990412981143582	443.0	
-0.010346531113228793	2010.0	9.679632602962835	1281.0	0.35011569277222077	2091.0	0.0	4134.0	2126.15966796875	0.685	795.0	-677.0	-0.5404858299595142	-324.0	0.2651821862348178	-21.746444410460317	703.0	-1347.0	21.55314930330845	-11.722476792988092	1283.0	
0.2162933343801341	2016.0	9.724571533251504	1277.0	0.28099171340642176	2072.0	0.0	4774.0	2145.69091796875	0.6950000000000001	799.0	-653.0	-0.49190283400809715	-339.0	0.29554655870445345	-20.828872916348068	993.0	-1129.0	18.207949709228377	-16.205829049785116	1223.0	
0.0865899006814291	2019.0	9.849466258619103	1267.0	0.24604799526353366	2083.0	0.0	5414.0	2165.22216796875	0.6950000000000001	799.0	-653.0	-0.49190283400809715	-339.0	0.29554655870445345	-18.244379874598565	1069.0	-974.0	15.732230789888527	-17.396766996996007	1054.0	
0.48955903085280833	2015.0	9.670188799566551	1281.0	0.2946849084685338	2049.0	0.0	6054.0	2184.75341796875	0.6950000000000001	799.0	-653.0	-0.49190283400809715	-339.0	0.29554655870445345	-17.831472702248053	1189.0	-846.0	13.765396709539562	-19.257773376774484	1027.0	
0.25237458176483774	2023.0	9.761267700293297	1274.0	0.19774909982351432	2069.0	0.0	6694.0	2204.28466796875	0.6950000000000001	799.0	-653.0	-0.49190283400809715	-339.0	0.29554655870445345	-11.882550848753633	1425.0	-597.0	9.733875996592301	-22.919386727221436	638.0	
0.15705419309175145	2040.0	9.75303835679419	1275.0	-0.008187968041632382	2077.0	0.0	7334.0	2223.81591796875	0.715	807.0	-639.0	-0.46356275303643724	-338.0	0.2935222672064777	-7.56996482642606	1557.0	-379.0	6.2286475400900185	-24.979910854658947	356.0	
0.3805498888946624	2067.0	9.483560318037668	1297.0	-0.33664377667801093	2058.0	0.0	7974.0	2243.34716796875	0.715	807.0	-639.0	-0.46356275303643724	-338.0	0.2935222672064777	-4.603150328796453	1802.0	-73.0	1.4410795432021206	-28.78718503086843	162.0	
0.4177186226187368	2066.0	9.629005119016542	1285.0	-0.3213150005501083	2055.0	0.0	8614.0	2262.87841796875	0.715	807.0	-639.0	-0.46356275303643724	-338.0	0.2935222672064777	-0.04587857470561248	1627.0	218.0	-3.243830107871128	-26.1487494872073	-136.0	
0.3103450575300875	2059.0	9.605934324437323	1287.0	-0.23851280269498878	2064.0	0.0	9254.0	2282.40966796875	0.7125	806.0	-641.0	-0.4676113360323887	-326.0	0.2692307692307692	6.040679002905644	1354.0	472.0	-7.43585486562237	-22.001625696116715	-534.0	
0.1074458378578251	2101.0	9.55410759530632	1292.0	-0.7476024258598736	2081.0	0.0	9894.0	2301.94091796875	0.7125	806.0	-641.0	-0.4676113360323887	-326.0	0.2692307692307692	10.154457868175562	1580.0	682.0	-10.79566377208042	-25.503077091917522	-803.0	
-0.35638931575055255	2094.0	9.599163663039985	1289.0	-0.6670023066436939	2120.0	0.0	10534.0	2321.47216796875	0.7125	806.0	-641.0	-0.4676113360323887	-326.0	0.2692307692307692	12.463679461691392	1351.0	909.0	-14.414580108611144	-22.025379497572224	-954.0	
-0.10655181325434883	2102.0	9.582913912660354	1290.0	-0.7612144687949991	2099.0	0.0	11174.0	2341.00341796875	0.7275	812.0	-649.0	-0.48380566801619435	-317.0	0.25101214574898784	7.875821991130143	1247.0	1002.0	-15.677446932395952	-20.442181865365082	-654.0	
0.058750075827711974	2110.0	9.446436154199768	1301.0	-0.8586765472420648	2085.0	0.0	11814.0	2360.53466796875	0.7275	812.0	-649.0	-0.48380566801619435	-317.0	0.25101214574898784	6.988836213488302	1241.0	1217.0	-18.949744450787122	-20.382837938600247	-596.0	
-0.22543554594030152	2117.0	9.59930254882699	1289.0	-0.9427984249647907	2109.0	0.0	12454.0	2380.06591796875	0.7275	812.0	-649.0	-0.48380566801619435	-317.0	0.25101214574898784	5.367793240556661	1095.0	1400.0	-21.721980000371772	-18.17026568000986	-490.0	
-0.2742700710158252	2112.0	9.477754803179389	1299.0	-0.8854767612730766	2113.0	0.0	13094.0	2399.59716796875	0.7275	812.0	-649.0	-0.48380566801619435	-317.0	0.25101214574898784	5.444257531732681	1013.0	1458.0	-22.629700711864974	-16.92109522715855	-495.0	
-0.21536532399267388	2114.0	9.41584855311356	1304.0	-0.9102222243463302	2108.0	0.0	13734.0	2419.12841796875	0.74	817.0	-656.0	-0.4979757085020243	-311.0	0.2388663967611336	2.8903502064535864	1057.0	1582.0	-24.42801187664134	-17.614235619763807	-328.0	
-0.024075291863963566	2113.0	9.497232718365549	1297.0	-0.8946334479489189	2092.0	0.0	14374.0	2438.65966796875	0.74	817.0	-656.0	-0.4979757085020243	-311.0	0.2388663967611336	1.7892644135188869	1004.0	1723.0	-26.56078483672171	-16.822305715483992	-256.0	
-0.03414912682060588	2113.0	9.680325413177506	1282.0	-0.8910723324022463	2093.0	0.0	15014.0	2458.19091796875	0.74	817.0	-656.0	-0.4979757085020243	-311.0	0.2388663967611336	2.5386144670438906	1076.0	1877.0	-28.94833838353137	-17.95098407433708	-305.0	
-0.022120037131807616	2117.0	9.692758191581145	1281.0	-0.9388961570216228	2092.0	0.0	15654.0	2477.72216796875	0.715	807.0	-662.0	-0.5101214574898786	-301.0	0.21862348178137653	6.65239333231381	1108.0	2008.0	-31.122836457471266	-18.463752532136475	-574.0	
-0.04665980417441372	2114.0	9.619733868272913	1287.0	-0.9044574628449604	2094.0	0.0	16294.0	2497.25341796875	0.715	807.0	-662.0	-0.5101214574898786	-301.0	0.21862348178137653	8.808686343477596	1145.0	2236.0	-34.71020472786869	-19.067372110191073	-715.0	
0.34575510771165185	2116.0	9.575510771165188	1290.0	-0.9255141612104231	2061.0	0.0	16934.0	2516.78466796875	0.715	807.0	-662.0	-0.5101214574898786	-301.0	0.21862348178137653	9.29805780700413	1228.0	2382.0	-36.9626267599492	-20.363488474136243	-747.0	
0.2753112890190796	2112.0	9.673986044765101	1282.0	-0.8760563228410132	2067.0	0.0	17574.0	2536.31591796875	0.715	807.0	-662.0	-0.5101214574898786	-301.0	0.21862348178137653	16.638629759902127	1367.0	2595.0	-40.510984982417696	-22.53185528484029	-1227.0	
-0.2830077976143934	2108.0	9.79445833379876	1273.0	-0.8310372968423374	2114.0	0.0	18214.0	2555.84716796875	0.72	809.0	-665.0	-0.5161943319838057	-280.0	0.17611336032388664	23.459244532803183	1370.0	2748.0	-43.136570759618685	-22.604144593586675	-1673.0	
-0.5204215993396555	2128.0	9.862601970796351	1268.0	-1.073012417541325	2134.0	0.0	18854.0	2575.37841796875	0.72	809.0	-665.0	-0.5161943319838057	-280.0	0.17611336032388664	17.31151552225111	1598.0	2733.0	-42.62499360090014	-26.09757109605197	-1271.0	
-0.11635896114721427	2121.0	9.79267531385	1273.0	-0.986032974900737	2100.0	0.0	19494.0	2594.90966796875	0.72	809.0	-665.0	-0.5161943319838057	-280.0	0.17611336032388664	8.8239792017128	1542.0	2578.0	-39.910107970348236	-25.211131154891454	-716.0	
0.9650729591458425	2140.0	9.602534009822348	1287.0	-1.207937144428962	2009.0	0.0	20134.0	2614.44091796875	0.72	809.0	-682.0	-0.5506072874493927	-245.0	0.10526315789473684	1.7433858388132744	1963.0	2471.0	-37.91658268148823	-31.651223522073437	-253.0	
0.584328655956579	2148.0	9.623341786134096	1286.0	-1.3077139741032944	2041.0	0.0	20774.0	2633.97216796875	0.72	809.0	-682.0	-0.5506072874493927	-245.0	0.10526315789473684	8.74751491053678	1933.0	2690.0	-41.569698383652735	-31.227420169351337	-711.0	
0.3242325263109563	2189.0	9.804205012048008	1272.0	-1.8006735744959304	2063.0	0.0	21414.0	2653.50341796875	0.72	809.0	-682.0	-0.5506072874493927	-245.0	0.10526315789473684	17.540908395779173	1779.0	2737.0	-42.66792050326897	-28.87535190719626	-1286.0	
0.3470560259494039	2184.0	9.705602594940387	1280.0	-1.7421764239862765	2061.0	0.0	22054.0	2673.03466796875	0.7075	804.0	-694.0	-0.5748987854251012	-229.0	0.0728744939271255	23.841565988683286	1598.0	2727.0	-42.79388523708509	-26.099260012413815	-1698.0	
-0.16388172895794184	2193.0	9.80230329468201	1273.0	-1.8537855224802766	2104.0	0.0	22694.0	2692.56591796875	0.7075	804.0	-694.0	-0.5748987854251012	-229.0	0.0728744939271255	29.683437834531276	1423.0	2782.0	-43.90032600190753	-23.425039779890184	-2080.0	
-0.7949559613354626	2189.0	9.790118152168018	1275.0	-1.812147196569994	2157.0	0.0	23334.0	2712.09716796875	0.7075	804.0	-694.0	-0.5748987854251012	-229.0	0.0728744939271255	31.564459397461388	1259.0	2819.0	-44.56980807815355	-20.91523928072016	-2203.0	
-0.6159340062235481	2188.0	9.835170806216626	1271.0	-1.7974077311668186	2142.0	0.0	23974.0	2731.62841796875	0.7075	804.0	-694.0	-0.5748987854251012	-229.0	0.0728744939271255	23.306315950451143	1415.0	2668.0	-41.89309303566788	-23.282211580962787	-1663.0	
-0.6377690394688735	2204.0	10.03261986263646	1255.0	-1.9864481847082245	2144.0	0.0	24614.0	2751.15966796875	0.6775	792.0	-711.0	-0.6093117408906883	-203.0	0.020242914979757085	16.485701177550087	1793.0	2527.0	-39.393619151157615	-29.0574316648889	-1217.0	
-1.2820721155205328	2212.0	9.888026543184822	1268.0	-2.0921686240264488	2198.0	0.0	25254.0	2770.69091796875	0.6775	792.0	-711.0	-0.6093117408906883	-203.0	0.020242914979757085	14.574093898149565	2134.0	2512.0	-39.03413238611209	-34.28630572465904	-1092.0	
-0.6367721427213837	2222.0	10.132309537385437	1247.0	-2.201311892125288	2144.0	0.0	25894.0	2790.22216796875	0.6775	792.0	-711.0	-0.6093117408906883	-203.0	0.020242914979757085	2.2480501605750116	2439.0	2481.0	-38.01754190507154	-38.95620733557673	-286.0	
-0.3264499801706043	2228.0	10.212144840082427	1240.0	-2.2689011210723464	2118.0	0.0	26534.0	2809.75341796875	0.6775	792.0	-716.0	-0.6194331983805668	-163.0	-0.06072874493927126	-2.0645358617525615	2934.0	2593.0	-39.491747724584904	-46.566468804543696	-4.0	
-0.5334926749534848	2271.0	9.745970599889608	1279.0	-2.7983673219806584	2135.0	0.0	27174.0	2829.28466796875	0.6775	792.0	-716.0	-0.6194331983805668	-163.0	-0.06072874493927126	-3.6244074017433863	3568.0	2589.0	-39.27056195963011	-56.29265958614533	98.0	
-2.1558371402206706	2300.0	9.416285977932898	1309.0	-3.1705820494339103	2271.0	0.0	27814.0	2848.81591796875	0.6775	792.0	-716.0	-0.6194331983805668	-163.0	-0.06072874493927126	0.48937146352653316	3643.0	2484.0	-37.80861481330931	-57.42887638904149	-171.0	
-0.7351492230449392	2268.0	8.627934838363224	1371.0	-2.786600024378848	2151.0	0.0	28454.0	2868.34716796875	0.6775	792.0	-716.0	-0.6194331983805668	-163.0	-0.06072874493927126	-3.043278788805628	3597.0	2597.0	-39.41240101105991	-56.73906800274525	60.0	
1.1212909210913247	2298.0	8.557663537703885	1374.0	-3.1308868320832013	1995.0	0.0	29094.0	2887.87841796875	0.6575	784.0	-716.0	-0.6194331983805668	-114.0	-0.15991902834008098	-23.612173115155226	4080.0	2862.0	-42.591509425564276	-64.18224469376462	1405.0	
0.9569642507026652	2290.0	8.79166316550462	1355.0	-3.0314645640623987	2009.0	0.0	29734.0	2907.40966796875	0.6575	784.0	-716.0	-0.6194331983805668	-114.0	-0.15991902834008098	-14.74231533873681	3706.0	3321.0	-50.06339715484669	-58.51812668291874	825.0	
1.3491449926060863	2300.0	8.724023070132446	1360.0	-3.1493774862616517	1976.0	0.0	30374.0	2926.94091796875	0.6575	784.0	-716.0	-0.6194331983805668	-114.0	-0.15991902834008098	-1.6669215476372536	3219.0	3691.0	-56.35194377461494	-51.10824860760959	-30.0	
2.178785360007122	2308.0	8.354726476902652	1389.0	-3.244852556620912	1906.0	0.0	31014.0	2946.47216796875	0.6575	784.0	-703.0	-0.5931174089068826	-67.0	-0.2550607287449393	12.081358005811287	3131.0	3997.0	-61.621819273566935	-49.81063280068412	-929.0	
1.7180387122511238	2335.0	8.708633129874292	1361.0	-3.567683094858316	1945.0	0.0	31654.0	2966.00341796875	0.6575	784.0	-703.0	-0.5931174089068826	-67.0	-0.2550607287449393	33.04786664627619	2881.0	4183.0	-65.35956534629395	-46.01188934688016	-2300.0	
-1.0792668613585632	2331.0	8.739980530810378	1363.0	-3.546836431491354	2180.0	0.0	32294.0	2985.53466796875	0.6575	784.0	-703.0	-0.5931174089068826	-67.0	-0.2550607287449393	62.1195901513993	2411.0	4362.0	-69.34757710889266	-38.83986214518744	-4201.0	
0.10656479448940924	2317.0	8.275527067988543	1399.0	-3.3755924853941304	2080.0	0.0	32934.0	3005.06591796875	0.61	765.0	-723.0	-0.6336032388663968	-24.0	-0.34210526315789475	57.25646123260438	2219.0	4316.0	-68.47501716805834	-35.88499568341912	-3883.0	
0.2662102368072522	2349.0	8.763880823582364	1359.0	-3.749771124533774	2067.0	0.0	33574.0	3024.59716796875	0.61	765.0	-723.0	-0.6336032388663968	-24.0	-0.34210526315789475	40.923688637406336	2101.0	3737.0	-58.93444470792139	-33.97894088715901	-2815.0	
-1.4957315222678575	2328.0	8.760181106547593	1362.0	-3.5144524882724495	2215.0	0.0	34214.0	3044.12841796875	0.61	765.0	-723.0	-0.6336032388663968	-24.0	-0.34210526315789475	23.398073099862366	2015.0	3492.0	-54.478410968966706	-32.61475495517072	-1669.0	
-0.16643662359216463	2335.0	8.356337640783536	1393.0	-3.593573757998564	2103.0	0.0	34854.0	3063.65966796875	0.61	765.0	-723.0	-0.6336032388663968	-24.0	-0.34210526315789475	-7.631136259366876	2334.0	3147.0	-47.88207745982753	-37.443681907021166	360.0	
0.6917915790248611	2367.0	8.464872188200392	1383.0	-3.9683629536987555	2031.0	0.0	35494.0	3083.19091796875	0.5750000000000001	751.0	-728.0	-0.6437246963562753	3.0	-0.3967611336032389	-2.4162716011622574	2057.0	2897.0	-44.287973455092455	-33.15731889367322	19.0	
-0.8207617481379221	2386.0	8.400015662398275	1391.0	-4.213701280137027	2158.0	0.0	36134.0	3102.72216796875	0.5750000000000001	751.0	-728.0	-0.6437246963562753	3.0	-0.3967611336032389	-8.441657745832696	1886.0	2550.0	-38.73611189949552	-30.477893572577894	413.0	
-0.17946167005862773	2415.0	8.244309184613417	1403.0	-4.559799999273378	2104.0	0.0	36774.0	3122.25341796875	0.5750000000000001	751.0	-728.0	-0.6437246963562753	3.0	-0.3967611336032389	-17.357394096956725	1819.0	2280.0	-34.237005961202854	-29.404822108100603	996.0	
0.629662911746421	2421.0	8.204386412737339	1405.0	-4.624796365519355	2036.0	0.0	37414.0	3141.78466796875	0.5725	750.0	-715.0	-0.6174089068825911	20.0	-0.4311740890688259	-18.3667227404802	1933.0	2068.0	-30.918435197593176	-31.120907537490744	1062.0	
0.9030505105557705	2420.0	8.162193912719905	1408.0	-4.610858146760526	2013.0	0.0	38054.0	3161.31591796875	0.5725	750.0	-715.0	-0.6174089068825911	20.0	-0.4311740890688259	-9.726257837589847	1770.0	1873.0	-28.28978963409443	-28.593470245581393	497.0	
0.08620075527204041	2441.0	8.62007552720404	1372.0	-4.862881060216452	2082.0	0.0	38694.0	3180.84716796875	0.5725	750.0	-715.0	-0.6174089068825911	20.0	-0.4311740890688259	4.893714635265331	1576.0	1807.0	-27.889168467026167	-25.61263420423448	-459.0	
0.4771576564633567	2447.0	8.430051360621384	1387.0	-4.935061131162697	2049.0	0.0	39334.0	3200.37841796875	0.5725	750.0	-715.0	-0.6174089068825911	20.0	-0.4311740890688259	-3.0738645052760365	1918.0	1829.0	-27.85639991961378	-30.860119929839076	62.0	
1.3692126475880206	2436.0	8.34983618737351	1392.0	-4.795214764234482	1974.0	0.0	39974.0	3219.90966796875	0.56	745.0	-711.0	-0.6093117408906883	51.0	-0.4939271255060729	4.129071723505123	1788.0	1769.0	-27.241591745250805	-28.859188972539208	-409.0	
-0.15318275322143657	2445.0	8.491248487380153	1383.0	-4.9160442071822015	2102.0	0.0	40614.0	3239.44091796875	0.56	745.0	-711.0	-0.6093117408906883	51.0	-0.4939271255060729	12.050772289340879	1602.0	1530.0	-23.91097608559023	-25.971808855531368	-927.0	
-0.07215581217143294	2467.0	8.260609259047182	1402.0	-5.1849069633022165	2095.0	0.0	41254.0	3258.97216796875	0.56	745.0	-711.0	-0.6093117408906883	51.0	-0.4939271255060729	-1.881021562930112	1828.0	1226.0	-18.643348900175337	-29.38698589041345	-16.0	
0.3654305330082095	2469.0	7.971624729392375	1425.0	-5.210407175985685	2058.0	0.0	41894.0	3278.50341796875	0.555	743.0	-694.0	-0.5748987854251012	51.0	-0.4939271255060729	-9.236886374063314	1827.0	1003.0	-14.919398646284488	-29.334401904216417	465.0	
0.6141745274833511	2480.0	7.846024176906547	1435.0	-5.342961867572577	2037.0	0.0	42534.0	3298.03466796875	0.555	743.0	-694.0	-0.5748987854251012	51.0	-0.4939271255060729	-4.92430035173574	1651.0	703.0	-10.504675185325901	-26.589625545776844	183.0	
-0.3489398156989523	2482.0	7.963161287247621	1427.0	-5.374346654339748	2118.0	0.0	43174.0	3317.56591796875	0.555	743.0	-694.0	-0.5748987854251012	51.0	-0.4939271255060729	-8.212264872304635	1567.0	527.0	-7.679052729299069	-25.27243269393409	398.0	
1.0200028108698187	2522.0	7.952662039362818	1426.0	-5.842794923875129	2003.0	0.0	43814.0	3337.09716796875	0.5375	736.0	-695.0	-0.576923076923077	68.0	-0.52834008097166	-16.011622572258755	1619.0	584.0	-8.235831798324632	-26.075913634846835	908.0	
0.6855463313856205	2546.0	7.840347424276333	1436.0	-6.137542407477726	2031.0	0.0	44454.0	3356.62841796875	0.5375	736.0	-695.0	-0.576923076923077	68.0	-0.52834008097166	-5.7654075546719685	1251.0	538.0	-7.994588774492186	-20.42673121841855	238.0	
0.25642379972274	2523.0	7.785237115131139	1441.0	-5.865827405242318	2067.0	0.0	45094.0	3376.15966796875	0.5375	736.0	-695.0	-0.576923076923077	68.0	-0.52834008097166	-9.053372075240864	1078.0	449.0	-6.520743384190979	-17.757397091659925	453.0	
1.1617112475305573	2503.0	7.837791419722384	1435.0	-5.6147595892507285	1991.0	0.0	45734.0	3395.69091796875	0.5375	736.0	-695.0	-0.576923076923077	68.0	-0.52834008097166	-6.224193301728094	1012.0	472.0	-6.997781914842887	-16.7494315555302	268.0	
0.5180152744895974	2509.0	7.753908401340692	1443.0	-5.695163365975278	2045.0	0.0	46374.0	3415.22216796875	0.5275	732.0	-682.0	-0.5506072874493927	75.0	-0.5425101214574899	2.9515216393944033	906.0	437.0	-6.8427124611432255	-15.121365593231964	-332.0	
-0.04090850648189853	2509.0	7.813911256572051	1439.0	-5.699552546680366	2092.0	0.0	47014.0	3434.75341796875	0.5275	732.0	-682.0	-0.5506072874493927	75.0	-0.5425101214574899	-2.676250191160728	943.0	430.0	-6.504282229797139	-15.685727186269126	36.0	
0.7104168796844432	2520.0	7.946449873206235	1427.0	-5.821918640967946	2029.0	0.0	47654.0	3454.28466796875	0.5275	732.0	-682.0	-0.5506072874493927	75.0	-0.5425101214574899	-9.741550695825051	1081.0	515.0	-7.507885617030523	-17.813301964962697	498.0	
0.5390138520869319	2507.0	7.47281378012176	1466.0	-5.676478887081514	2043.0	0.0	48294.0	3473.81591796875	0.5225	730.0	-681.0	-0.548582995951417	82.0	-0.5566801619433198	-7.401743385838814	1068.0	505.0	-7.4496560264167195	-17.613241381500934	345.0	
0.8130049408979662	2501.0	7.490970280272801	1464.0	-5.601086689563878	2020.0	0.0	48934.0	3493.34716796875	0.5225	730.0	-681.0	-0.548582995951417	82.0	-0.5566801619433198	-14.008258143447012	1177.0	421.0	-5.876718336371936	-19.270060723336105	777.0	
1.4800493573505595	2521.0	7.528745258865481	1460.0	-5.8346246012491845	1964.0	0.0	49574.0	3512.87841796875	0.5225	730.0	-681.0	-0.548582995951417	82.0	-0.5566801619433198	-9.512157822296988	1168.0	453.0	-6.550107978096179	-19.13869426683022	483.0	
1.7046409698472091	2547.0	7.368858889482802	1473.0	-6.1488294245600645	1945.0	0.0	50214.0	3532.40966796875	0.5225	730.0	-681.0	-0.548582995951417	82.0	-0.5566801619433198	-0.5352500382321457	979.0	411.0	-6.292156705538831	-16.236007342719038	-104.0	
0.9173357649150887	2512.0	7.209766967699342	1487.0	-5.738197568057103	2011.0	0.0	50854.0	3551.94091796875	0.5075000000000001	724.0	-686.0	-0.5587044534412956	95.0	-0.582995951417004	7.56996482642606	626.0	255.0	-4.271102606821447	-10.799194070413773	-634.0	
0.8710623932460823	2508.0	7.34433456270346	1476.0	-5.687776178789373	2015.0	0.0	51494.0	3571.47216796875	0.5075000000000001	724.0	-686.0	-0.5587044534412956	95.0	-0.582995951417004	7.8299434164245305	643.0	122.0	-2.233257870996423	-11.039671845243648	-651.0	
0.643946961769401	2512.0	7.251839034082953	1484.0	-5.740090014760888	2034.0	0.0	52134.0	3591.00341796875	0.5075000000000001	724.0	-686.0	-0.5587044534412956	95.0	-0.582995951417004	6.744150481725035	690.0	-34.0	0.2167715767928618	-11.736362282697623	-580.0	
0.5135566744951596	2552.0	7.308048401896913	1480.0	-6.222197441120724	2045.0	0.0	52774.0	3610.53466796875	0.5	721.0	-675.0	-0.5364372469635628	107.0	-0.6072874493927125	1.131671509405108	656.0	-222.0	3.3276053182077026	-11.183541500907229	-213.0	
0.2876409970038184	2540.0	7.335528271810416	1478.0	-6.079328687244355	2064.0	0.0	53414.0	3630.06591796875	0.5	721.0	-675.0	-0.5364372469635628	107.0	-0.6072874493927125	-2.1410001529285827	508.0	-391.0	6.035131657782063	-8.885482656109	1.0	
0.6080092947754607	2523.0	7.2295009061175035	1486.0	-5.873426274472063	2037.0	0.0	54054.0	3649.59716796875	0.5	721.0	-675.0	-0.5364372469635628	107.0	-0.6072874493927125	-8.41107202936229	569.0	-469.0	7.494964097640264	-9.806897834856036	411.0	
0.5135578788314978	2553.0	7.308168835530737	1480.0	-6.234243213175769	2045.0	0.0	54694.0	3669.12841796875	0.4975	720.0	-677.0	-0.5404858299595142	110.0	-0.6133603238866396	-11.255543661110263	603.0	-588.0	9.44425277577578	-10.309117392450927	597.0	
0.2757578963784601	2556.0	7.337694399750771	1478.0	-6.272175280029152	2065.0	0.0	55334.0	3688.65966796875	0.4975	720.0	-677.0	-0.5404858299595142	110.0	-0.6133603238866396	-14.207065300504667	503.0	-651.0	10.515943668345752	-8.763952117712739	790.0	
1.0838952161267248	2552.0	7.199045422196304	1488.0	-6.218674115298421	1997.0	0.0	55974.0	3708.19091796875	0.4975	720.0	-677.0	-0.5404858299595142	110.0	-0.6133603238866396	-16.959779782841416	484.0	-526.0	8.700537225790065	-8.490560992633922	970.0	
1.226478647198278	2551.0	7.171674243637327	1490.0	-6.2057475117878	1985.0	0.0	56614.0	3727.72216796875	0.4975	720.0	-677.0	-0.5404858299595142	110.0	-0.6133603238866396	-10.552072182290871	419.0	-459.0	7.403774008431271	-7.506137187029391	551.0	
0.2878944363678747	2548.0	7.360872208216043	1476.0	-6.175204816291277	2064.0	0.0	57254.0	3747.25341796875	0.5	721.0	-677.0	-0.5404858299595142	116.0	-0.6255060728744939	-3.8690931335066527	216.0	-462.0	7.151477520957018	-4.393729969304777	114.0	
0.870770150752689	2569.0	7.315110313364148	1479.0	-6.423303345237238	2015.0	0.0	57894.0	3766.78466796875	0.5	721.0	-677.0	-0.5404858299595142	116.0	-0.6255060728744939	-9.818014987001071	281.0	-315.0	5.138419029260063	-5.411251991999865	503.0	
0.9533420790803084	2558.0	7.238969812792741	1485.0	-6.291470315483462	2008.0	0.0	58534.0	3786.31591796875	0.5	721.0	-677.0	-0.5404858299595142	116.0	-0.6255060728744939	-7.050007646429118	189.0	-283.0	4.521411547106743	-4.005729570273908	322.0	
0.6800799956166489	2562.0	7.2937138473791645	1481.0	-6.341300826710708	2031.0	0.0	59174.0	3805.84716796875	0.505	723.0	-682.0	-0.5506072874493927	115.0	-0.6234817813765182	-5.031350359382169	82.0	-307.0	4.793393433156953	-2.3611499999940406	190.0	
0.9554409142032279	2580.0	7.448853325084682	1468.0	-6.55231189785025	2008.0	0.0	59814.0	3825.37841796875	0.505	723.0	-682.0	-0.5506072874493927	115.0	-0.6234817813765182	-5.704236121731152	71.0	-197.0	3.1267402584394253	-2.209027211501842	234.0	
1.5499378594949766	2570.0	7.374738330450039	1473.0	-6.427367300579181	1958.0	0.0	60454.0	3844.90966796875	0.505	723.0	-682.0	-0.5506072874493927	115.0	-0.6234817813765182	-3.899678849977061	20.0	-9.0	0.15516664792472168	-1.4561742810426188	116.0	
1.4072228913960425	2563.0	7.388955806270906	1472.0	-6.344172751346164	1970.0	0.0	61094.0	3864.44091796875	0.505	723.0	-682.0	-0.5506072874493927	115.0	-0.6234817813765182	4.083193148799511	-87.0	28.0	-0.7496195596568941	0.17663760830092995	-406.0	
0.9571126211628715	2551.0	7.616024021049059	1454.0	-6.1995541764999205	2008.0	0.0	61734.0	3883.97216796875	0.515	727.0	-684.0	-0.5546558704453441	104.0	-0.6012145748987854	8.288729163480655	-206.0	14.0	-0.7207523381324435	2.002919835833038	-681.0	
0.9703691645727893	2562.0	7.75120217156465	1443.0	-6.329248168537437	2007.0	0.0	62374.0	3903.50341796875	0.515	727.0	-684.0	-0.5546558704453441	104.0	-0.6012145748987854	6.591221899372994	-113.0	59.0	-1.3307218806272443	0.569783160202474	-570.0	
1.3379908700521925	2553.0	7.608610814743066	1454.0	-6.219990043679315	1976.0	0.0	63014.0	3923.03466796875	0.515	727.0	-684.0	-0.5546558704453441	104.0	-0.6012145748987854	4.220828872916348	-79.0	36.0	-0.8769426886943095	0.052608507745556525	-415.0	
0.7201551160395159	2545.0	7.729797318237312	1445.0	-6.127359128980882	2028.0	0.0	63654.0	3942.56591796875	0.505	723.0	-688.0	-0.562753036437247	100.0	-0.5931174089068826	6.805321914665852	-147.0	-108.0	1.2240770781808195	1.1170435941668015	-584.0	
0.5059136602539915	2546.0	7.734223168256308	1445.0	-6.141461219309442	2046.0	0.0	64294.0	3962.09716796875	0.505	723.0	-688.0	-0.562753036437247	100.0	-0.5931174089068826	1.4834072488148036	-61.0	-210.0	3.018959818735063	-0.18463317302639806	-236.0	
1.184743361722033	2570.0	7.760050457917586	1442.0	-6.42331300300756	1989.0	0.0	64934.0	3981.62841796875	0.505	723.0	-688.0	-0.562753036437247	100.0	-0.5931174089068826	-5.964214711729623	122.0	-188.0	3.006536869080861	-2.992797911959798	251.0	
1.587717309238765	2570.0	7.58125473340033	1456.0	-6.422859178022738	1955.0	0.0	38.0	4001.15966796875	0.505	723.0	-683.0	-0.5526315789473685	93.0	-0.5789473684210527	-3.349135953509711	67.0	-218.0	3.354926880282584	-2.1453674106509104	80.0	
0.5151606742533489	2568.0	7.468448377715838	1467.0	-6.411744485944113	2045.0	0.0	678.0	4020.69091796875	0.505	723.0	-683.0	-0.5526315789473685	93.0	-0.5789473684210527	4.649028903502065	-47.0	-266.0	3.755815432246428	-0.3920873881050331	-443.0	
0.6701172239696376	2553.0	7.487912873154229	1465.0	-6.229082738971917	2032.0	0.0	1318.0	4040.22216796875	0.505	723.0	-683.0	-0.5526315789473685	93.0	-0.5789473684210527	0.45878574705612485	-9.0	-236.0	3.467817395554414	-0.9780577474806997	-169.0	
1.062899047202067	2556.0	7.480380910682884	1465.0	-6.261450138302273	1999.0	0.0	1958.0	4059.75341796875	0.505	723.0	-683.0	-0.5526315789473685	93.0	-0.5789473684210527	-2.9209359229239946	131.0	-117.0	1.7941682870961917	-3.1430219507027686	52.0	
1.2410833423296523	2568.0	7.441667566298568	1468.0	-6.4050208754916955	1984.0	0.0	2598.0	4079.28466796875	0.5025000000000001	722.0	-679.0	-0.5445344129554656	90.0	-0.5728744939271255	-1.881021562930112	195.0	-132.0	1.9931060217359766	-4.1230795274763645	-16.0	
0.551476091620697	2567.0	7.52856154302208	1462.0	-6.398130875693231	2042.0	0.0	3238.0	4098.81591796875	0.5025000000000001	722.0	-679.0	-0.5445344129554656	90.0	-0.5728744939271255	3.37972166998012	47.0	-172.0	2.3752182007791163	-1.8482748242834475	-360.0	
0.8246138640750049	2561.0	7.461386407500489	1467.0	-6.324453844052614	2019.0	0.0	3878.0	4118.34716796875	0.5025000000000001	722.0	-679.0	-0.5445344129554656	90.0	-0.5728744939271255	-1.5751643982260286	71.0	-192.0	2.8846903500661227	-2.211447710585575	-36.0	
1.0500286845199247	2562.0	7.383820832944852	1473.0	-6.335799200110362	2000.0	0.0	4518.0	4137.87841796875	0.505	723.0	-685.0	-0.5566801619433198	98.0	-0.5890688259109311	-2.8138859152775657	56.0	-183.0	2.7935064166297265	-1.9821922950480653	45.0	
0.7998351097044013	2562.0	7.364463351392515	1475.0	-6.338688285489564	2021.0	0.0	5158.0	4157.40966796875	0.505	723.0	-685.0	-0.5566801619433198	98.0	-0.5890688259109311	-0.7187643370545955	15.0	-243.0	3.6262619727325833	-1.3447409095039158	-92.0	
0.5277932539438319	2567.0	7.54123015628795	1461.0	-6.398114331804682	2044.0	0.0	5798.0	4176.94091796875	0.505	723.0	-685.0	-0.5566801619433198	98.0	-0.5890688259109311	-0.45878574705612485	-32.0	-243.0	3.608652682742325	-0.6237262704719477	-109.0	
0.8141719134356605	2559.0	7.607667534042244	1455.0	-6.297536255486004	2020.0	0.0	6438.0	4196.47216796875	0.505	723.0	-685.0	-0.5566801619433198	98.0	-0.5890688259109311	-3.502064535861753	3.0	-165.0	2.5360462512046653	-1.171509262821696	90.0	
1.147934313326293	2566.0	7.650574189772151	1451.0	-6.377677847770089	1992.0	0.0	7078.0	4216.00341796875	0.4975	720.0	-678.0	-0.5425101214574899	88.0	-0.5688259109311741	-2.8903502064535864	50.0	-84.0	1.272953734931541	-1.9053309199162978	50.0	
0.766446552753596	2564.0	7.597036227740549	1456.0	-6.3584670990742795	2024.0	0.0	7718.0	4235.53466796875	0.4975	720.0	-678.0	-0.5425101214574899	88.0	-0.5688259109311741	2.46215017586787	12.0	-5.0	-0.16203134754132675	-1.3365903917322801	-300.0	
0.5631238179270727	2558.0	7.502857983183452	1464.0	-6.29009473468718	2041.0	0.0	8358.0	4255.06591796875	0.4975	720.0	-678.0	-0.5425101214574899	88.0	-0.5688259109311741	5.0466432176173734	35.0	106.0	-1.9691307542406202	-1.7075845099361457	-469.0	
0.9429230108313905	2575.0	7.387539178377145	1473.0	-6.493422395962698	2009.0	0.0	8998.0	4274.59716796875	0.5075000000000001	724.0	-681.0	-0.548582995951417	93.0	-0.5789473684210527	3.043278788805628	156.0	210.0	-3.4700331456405227	-3.5792760564832586	-338.0	
0.9284703264451472	2583.0	7.132746930229016	1494.0	-6.595048309938197	2010.0	0.0	9638.0	4294.12841796875	0.5075000000000001	724.0	-681.0	-0.548582995951417	93.0	-0.5789473684210527	6.025386144670439	130.0	245.0	-4.13161955795254	-3.1869353454951312	-533.0	
0.5701717725209234	2576.0	7.017177252092348	1504.0	-6.516605339642582	2040.0	0.0	10278.0	4313.65966796875	0.5075000000000001	724.0	-681.0	-0.548582995951417	93.0	-0.5789473684210527	8.976907784064842	27.0	222.0	-3.9117155077511048	-1.6042544882062515	-726.0	
0.6545842792620531	2575.0	7.125094592871961	1495.0	-6.501554674988495	2033.0	0.0	10918.0	4333.19091796875	0.495	719.0	-684.0	-0.5546558704453441	100.0	-0.5931174089068826	6.147729010552073	-34.0	189.0	-3.3003554146533904	-0.662127384129655	-541.0	
0.8579082184249145	2582.0	7.219393271062881	1487.0	-6.581972811430637	2016.0	0.0	11558.0	4352.72216796875	0.495	719.0	-684.0	-0.5546558704453441	100.0	-0.5931174089068826	3.593821685272978	-116.0	115.0	-2.0726179545136683	0.6083976504379844	-374.0	
0.5845194152792268	2582.0	7.2614653374464915	1484.0	-6.583865258134422	2039.0	0.0	12198.0	4372.25341796875	0.495	719.0	-684.0	-0.5546558704453441	100.0	-0.5931174089068826	3.9302645664474696	-242.0	32.0	-0.8288074427837412	2.5542406964790216	-396.0	
0.18080321471539934	2573.0	7.366035757254221	1476.0	-6.477377276804146	2073.0	0.0	12838.0	4391.78466796875	0.495	719.0	-684.0	-0.5546558704453441	100.0	-0.5931174089068826	3.8538002752714484	-383.0	5.0	-0.43210354359532743	4.721779931266517	-391.0	
0.7890334737367226	2565.0	7.4747759451008315	1466.0	-6.372734628288327	2022.0	0.0	13478.0	4411.31591796875	0.4975	720.0	-683.0	-0.5526315789473685	98.0	-0.5890688259109311	-3.609114543508182	-290.0	55.0	-0.8883833972960637	3.2901801525238943	97.0	
1.2412209010387245	2581.0	7.455423437205795	1467.0	-6.561370888510557	1984.0	0.0	14118.0	4430.84716796875	0.4975	720.0	-683.0	-0.5526315789473685	98.0	-0.5890688259109311	-3.502064535861753	-106.0	169.0	-2.6178349753788757	0.44950064364808334	90.0	
1.0992578206775916	2591.0	7.544829686806779	1460.0	-6.6814843220329925	1996.0	0.0	14758.0	4450.37841796875	0.4975	720.0	-683.0	-0.5526315789473685	98.0	-0.5890688259109311	1.4069429576387829	-93.0	199.0	-3.273602382046283	0.24346468202578547	-231.0	
0.7565078678333494	2575.0	7.793643926192087	1440.0	-6.487164452436379	2025.0	0.0	15398.0	4469.90966796875	0.4925	718.0	-687.0	-0.5607287449392713	106.0	-0.6052631578947368	5.948921853494419	-266.0	172.0	-3.0665274822098	2.9001311038797586	-528.0	
0.8645923732242998	2565.0	7.8878087510014145	1432.0	-6.363718383175439	2016.0	0.0	16038.0	4489.44091796875	0.4925	718.0	-687.0	-0.5607287449392713	106.0	-0.6052631578947368	3.0738645052760365	-257.0	172.0	-2.9501558219178627	2.763194467559554	-340.0	
1.195914317708752	2570.0	7.686669866113297	1448.0	-6.424668905283778	1988.0	0.0	16678.0	4508.97216796875	0.4925	718.0	-687.0	-0.5607287449392713	106.0	-0.6052631578947368	-0.6117143294081664	-90.0	151.0	-2.454129756847407	0.20562595730339953	-99.0	
1.1231615806373805	2572.0	7.5542533018332945	1459.0	-6.452141149482261	1994.0	0.0	17318.0	4528.50341796875	0.5025000000000001	722.0	-685.0	-0.5566801619433198	114.0	-0.6214574898785425	-1.5598715399908245	13.0	36.0	-0.6316222792534917	-1.3566307847075267	-37.0	
1.1481745049906285	2563.0	7.674593356205717	1449.0	-6.341050484211521	1992.0	0.0	17958.0	4548.03466796875	0.5025000000000001	722.0	-685.0	-0.5566801619433198	114.0	-0.6214574898785425	-1.7280929805780703	12.0	-42.0	0.5746479195269214	-1.3292235990615977	-26.0	
1.2081823947255477	2570.0	7.7230013773166775	1445.0	-6.423819594289543	1987.0	0.0	18598.0	4567.56591796875	0.5025000000000001	722.0	-685.0	-0.5566801619433198	114.0	-0.6214574898785425	-1.4834072488148036	10.0	-57.0	0.7952652721197733	-1.2963284582194192	-42.0	
1.3024321577679985	2575.0	7.624168157752235	1453.0	-6.48509472490583	1979.0	0.0	19238.0	4587.09716796875	0.5025000000000001	722.0	-685.0	-0.5566801619433198	114.0	-0.6214574898785425	-1.804557271754091	36.0	-66.0	0.9505255527234795	-1.6937324305246295	-21.0	
1.1594866326954345	2579.0	7.615329936210125	1454.0	-6.534893715671735	1991.0	0.0	19878.0	4606.62841796875	0.495	719.0	-685.0	-0.5566801619433198	111.0	-0.6153846153846154	0.04587857470561248	-13.0	-102.0	1.4227030639738154	-0.937130956164006	-142.0	
1.0168971799421902	2575.0	7.642098946599984	1452.0	-6.487591458907133	2003.0	0.0	20518.0	4626.15966796875	0.495	719.0	-685.0	-0.5566801619433198	111.0	-0.6153846153846154	1.4681143905795995	-71.0	-219.0	3.156463574286186	-0.02981329888963776	-235.0	
0.826691021143836	2565.0	7.6691021143836045	1450.0	-6.3684715294286	2019.0	0.0	21158.0	4645.69091796875	0.495	719.0	-685.0	-0.5566801619433198	111.0	-0.6153846153846154	0.5505428964673498	-6.0	-299.0	4.433592546314211	-1.0144334469474763	-175.0	
0.7679250371660953	2577.0	7.7448846689904824	1444.0	-6.512121851429252	2024.0	0.0	21798.0	4665.22216796875	0.495	719.0	-694.0	-0.5748987854251012	103.0	-0.5991902834008097	-1.3151858082275578	4.0	-353.0	5.340306911209826	-1.1588111398797691	-53.0	
1.0176514763526678	2594.0	7.717528587647746	1446.0	-6.714990985772674	2003.0	0.0	22438.0	4684.75341796875	0.495	719.0	-694.0	-0.5748987854251012	103.0	-0.5991902834008097	-4.725493194678085	98.0	-315.0	4.906660928282872	-2.60552906357278	170.0	
0.9814254442408626	2568.0	7.666353947895784	1450.0	-6.403123726840639	2006.0	0.0	23078.0	4704.28466796875	0.495	719.0	-694.0	-0.5748987854251012	103.0	-0.5991902834008097	-3.991435999388286	40.0	-291.0	4.499265606246884	-1.7196229646218952	122.0	
0.7776295521036973	2574.0	7.524859972274497	1462.0	-6.480280721900943	2023.0	0.0	23718.0	4723.81591796875	0.495	719.0	-694.0	-0.5748987854251012	103.0	-0.5991902834008097	-2.9209359229239946	136.0	-253.0	3.8867121052283107	-3.198818930812072	52.0	
0.8115201704372623	2584.0	7.342493234202422	1477.0	-6.604071078189892	2020.0	0.0	24358.0	4743.34716796875	0.5025000000000001	722.0	-689.0	-0.5647773279352227	89.0	-0.5708502024291499	-2.6150787582199118	273.0	-240.0	3.6955496419958713	-5.302924816607509	32.0	
0.9787604535427438	2582.0	7.399854878083901	1472.0	-6.57715505693904	2006.0	0.0	24998.0	4762.87841796875	0.5025000000000001	722.0	-689.0	-0.5647773279352227	89.0	-0.5708502024291499	-4.404343171738798	296.0	-233.0	3.6629769648522013	-5.656173667515818	149.0	
0.9315275195527328	2591.0	7.438466240987576	1469.0	-6.6852888939606245	2010.0	0.0	25638.0	4782.40966796875	0.5025000000000001	722.0	-689.0	-0.5647773279352227	89.0	-0.5708502024291499	-2.660957332925524	253.0	-142.0	2.1870063518723617	-5.011120576346246	35.0	
0.8465103184735805	2596.0	7.270079466405664	1483.0	-6.749747765318475	2017.0	0.0	26278.0	4801.94091796875	0.485	715.0	-693.0	-0.5728744939271255	103.0	-0.5991902834008097	-0.21410001529285827	229.0	-82.0	1.16261688894818	-4.653096863180489	-125.0	
0.8341287694744772	2603.0	7.222400756971531	1487.0	-6.83516250439474	2018.0	0.0	26918.0	4821.47216796875	0.485	715.0	-693.0	-0.5728744939271255	103.0	-0.5991902834008097	1.039914359993883	137.0	-80.0	1.0675843944511112	-3.242354691577969	-207.0	
0.8691830117032352	2567.0	7.156396408418756	1492.0	-6.402397109184472	2015.0	0.0	27558.0	4841.00341796875	0.485	715.0	-693.0	-0.5728744939271255	103.0	-0.5991902834008097	0.6423000458785748	19.0	-88.0	1.1884283829785791	-1.4304971800339554	-181.0	
1.4775399904065865	2563.0	7.27780856446818	1481.0	-6.345692525192113	1964.0	0.0	28198.0	4860.53466796875	0.5	721.0	-682.0	-0.5506072874493927	88.0	-0.5688259109311741	2.202171585869399	41.0	-26.0	0.17581113865137504	-1.7782019929559751	-283.0	
1.1105145489108386	2561.0	7.480026319655297	1465.0	-6.321222038961159	1995.0	0.0	28838.0	4880.06591796875	0.5	721.0	-682.0	-0.5506072874493927	88.0	-0.5688259109311741	9.1910077993577	78.0	107.0	-2.143672004297021	-2.3691427197360806	-740.0	
1.0393561769069506	2571.0	7.507046262123629	1463.0	-6.441875151542674	2001.0	0.0	29478.0	4899.59716796875	0.5	721.0	-682.0	-0.5506072874493927	88.0	-0.5688259109311741	15.58342254167304	83.0	218.0	-4.105834779740536	-2.4654867657811406	-1158.0	
0.6832554780518949	2567.0	7.6112620909037725	1455.0	-6.395159070871285	2031.0	0.0	30118.0	4919.12841796875	0.5	721.0	-682.0	-0.5506072874493927	88.0	-0.5688259109311741	19.574858541061325	7.0	253.0	-4.815461775564203	-1.3064022777218842	-1419.0	
0.21891465005174293	2545.0	7.605750719460007	1456.0	-6.134852465616307	2070.0	0.0	30758.0	4938.65966796875	0.485	715.0	-693.0	-0.5728744939271255	97.0	-0.5870445344129555	19.161951368710813	-81.0	111.0	-2.628388000027139	0.06578302194847804	-1392.0	
0.3026041731271889	2551.0	7.641369693671272	1453.0	-6.2055923475278325	2063.0	0.0	31398.0	4958.19091796875	0.485	715.0	-693.0	-0.5728744939271255	97.0	-0.5870445344129555	9.756843554060255	166.0	-97.0	0.9848636300671292	-3.6881719253074308	-777.0	
0.5899917727298897	2571.0	7.808701082512778	1439.0	-6.440335699176662	2039.0	0.0	32038.0	4977.72216796875	0.485	715.0	-693.0	-0.5728744939271255	97.0	-0.5870445344129555	2.27863587704542	190.0	-347.0	5.13282203858156	-4.014959949017285	-288.0	
0.31535745081800887	2549.0	7.726221272277079	1446.0	-6.179671397636639	2062.0	0.0	32678.0	4997.25341796875	0.4825	714.0	-692.0	-0.5708502024291499	92.0	-0.576923076923077	-3.135035938216853	251.0	-575.0	8.86550852330646	-4.913646587315655	66.0	
0.4704539679160463	2549.0	7.7596825058903445	1443.0	-6.177451207793394	2049.0	0.0	33318.0	5016.78466796875	0.4825	714.0	-692.0	-0.5708502024291499	92.0	-0.576923076923077	-5.260743232910231	259.0	-750.0	11.643380141462746	-5.0086237403990905	205.0	
0.529129362301906	2563.0	7.674840992095363	1450.0	-6.3472359829206155	2044.0	0.0	33958.0	5036.31591796875	0.4825	714.0	-692.0	-0.5708502024291499	92.0	-0.576923076923077	-5.91833613702401	410.0	-795.0	12.384981067673857	-7.318224763513841	248.0	
0.3491370058419428	2568.0	7.5327482032418995	1462.0	-6.412118726117706	2059.0	0.0	34598.0	5055.84716796875	0.4825	714.0	-692.0	-0.5708502024291499	92.0	-0.576923076923077	-4.618443187031657	469.0	-761.0	11.819098721184352	-8.229208122808107	163.0	
0.17037330743943735	2581.0	7.513521220134213	1464.0	-6.570917408787981	2074.0	0.0	35238.0	5075.37841796875	0.48	713.0	-690.0	-0.5668016194331984	89.0	-0.5708502024291499	-0.1529285823520416	467.0	-733.0	11.209529235498536	-8.204614850348712	-129.0	
0.038567425608798264	2559.0	7.4281711323084	1471.0	-6.308882228398948	2085.0	0.0	35878.0	5094.90966796875	0.48	713.0	-690.0	-0.5668016194331984	89.0	-0.5708502024291499	-0.6117143294081664	484.0	-696.0	10.661400831705926	-8.470952356574763	-99.0	
0.08461144464051318	2575.0	7.270668273575128	1484.0	-6.5043429297206465	2081.0	0.0	36518.0	5114.44091796875	0.48	713.0	-690.0	-0.5668016194331984	89.0	-0.5708502024291499	-1.2846000917571496	565.0	-585.0	8.993482459588824	-9.730534716604051	-55.0	
-0.1659261591309475	2593.0	7.216907896429062	1489.0	-6.7247909831808	2102.0	0.0	37158.0	5133.97216796875	0.47500000000000003	711.0	-695.0	-0.576923076923077	88.0	-0.5688259109311741	-5.91833613702401	576.0	-601.0	9.426592465757867	-9.894992936781735	248.0	
0.03519510761739304	2593.0	7.090939333167877	1499.0	-6.725299141778541	2085.0	0.0	37798.0	5153.50341796875	0.47500000000000003	711.0	-695.0	-0.576923076923077	88.0	-0.5688259109311741	-8.258143447010246	566.0	-601.0	9.518641104927589	-9.740627613808789	401.0	
0.16513271129874252	2582.0	6.989461606064727	1507.0	-6.593499199801862	2074.0	0.0	38438.0	5173.03466796875	0.47500000000000003	711.0	-695.0	-0.576923076923077	88.0	-0.5688259109311741	-8.931029209359231	562.0	-611.0	9.698747234310153	-9.677448617882463	445.0	
0.03359592520455675	2581.0	6.931021091884247	1512.0	-6.58393518517533	2085.0	0.0	39078.0	5192.56591796875	0.46	705.0	-693.0	-0.5728744939271255	96.0	-0.5850202429149798	-8.548707753479126	511.0	-551.0	8.752788352210299	-8.904339540139091	420.0	
0.48591850254295454	2608.0	6.92518358762879	1512.0	-6.904829914306332	2047.0	0.0	39718.0	5212.09716796875	0.46	705.0	-693.0	-0.5728744939271255	96.0	-0.5850202429149798	-7.01942192995871	515.0	-439.0	6.969597142640625	-8.983549386867287	320.0	
0.43758001716849937	2610.0	6.853239812088028	1518.0	-6.93084856021306	2051.0	0.0	40358.0	5231.62841796875	0.46	705.0	-693.0	-0.5728744939271255	96.0	-0.5850202429149798	-2.171585869398991	320.0	-381.0	5.853703111170397	-6.002534013847633	3.0	
0.18713059431624324	2600.0	6.808297526862417	1522.0	-6.813769972435251	2072.0	0.0	40998.0	5251.15966796875	0.46	705.0	-693.0	-0.5728744939271255	96.0	-0.5850202429149798	2.3245144517510323	164.0	-313.0	4.604053744588866	-3.621291056845964	-291.0	
0.2831848056820571	2585.0	6.889909139634284	1515.0	-6.630454306499891	2064.0	0.0	41638.0	5270.69091796875	0.4675	708.0	-694.0	-0.5748987854251012	99.0	-0.5910931174089069	0.6117143294081664	203.0	-247.0	3.6634157355142176	-4.229132299603581	-179.0	
0.3202484977781917	2598.0	7.0248497778191705	1504.0	-6.784011362839328	2061.0	0.0	42278.0	5290.22216796875	0.4675	708.0	-694.0	-0.5748987854251012	99.0	-0.5910931174089069	3.4714788193913444	199.0	-173.0	2.410250275640318	-4.180286019569821	-366.0	
0.1192768331023058	2621.0	7.165778548325818	1493.0	-7.060310937810895	2078.0	0.0	42918.0	5309.75341796875	0.4675	708.0	-694.0	-0.5748987854251012	99.0	-0.5910931174089069	2.079828719987766	149.0	-235.0	3.4118433093408203	-3.403045906326571	-275.0	
-0.16652603612361755	2601.0	7.156920197162056	1494.0	-6.822382278104742	2102.0	0.0	43558.0	5329.28466796875	0.47000000000000003	709.0	-700.0	-0.5870445344129555	108.0	-0.6093117408906883	0.13763572411683744	53.0	-183.0	2.6749970674791217	-1.9373439375651968	-148.0	
0.356549463109481	2585.0	7.083517739519529	1499.0	-6.625848487927912	2058.0	0.0	44198.0	5348.81591796875	0.47000000000000003	709.0	-700.0	-0.5870445344129555	108.0	-0.6093117408906883	-2.676250191160728	127.0	-130.0	1.9837173590743684	-3.079748525350487	36.0	
0.44134935491472427	2602.0	7.2301735867105235	1487.0	-6.826886649174472	2051.0	0.0	44838.0	5368.34716796875	0.47000000000000003	709.0	-700.0	-0.5870445344129555	108.0	-0.6093117408906883	0.13763572411683744	189.0	-143.0	2.080635046064835	-4.030137335284326	-148.0	
0.3465141669156623	2617.0	7.270464310613845	1484.0	-7.007752078142662	2059.0	0.0	45478.0	5387.87841796875	0.47000000000000003	709.0	-700.0	-0.5870445344129555	108.0	-0.6093117408906883	2.5692001835142992	183.0	-114.0	1.536421002414992	-3.9435125737720758	-307.0	
0.3222085698557006	2606.0	7.2208569855700615	1488.0	-6.87645716013221	2061.0	0.0	46118.0	5407.40966796875	0.4675	708.0	-702.0	-0.5910931174089069	102.0	-0.597165991902834	4.633736045266861	123.0	-83.0	0.9678400204198185	-3.028529364104533	-442.0	
0.3807427925234733	2604.0	7.121898299966383	1496.0	-6.853754606075437	2056.0	0.0	46758.0	5426.94091796875	0.4675	708.0	-702.0	-0.5910931174089069	102.0	-0.597165991902834	5.276036091145436	161.0	-109.0	1.3478793894423218	-3.6078193494230546	-484.0	
-0.1298232336921556	2618.0	7.25577186887968	1486.0	-7.024857493754507	2099.0	0.0	47398.0	5446.47216796875	0.4675	708.0	-702.0	-0.5910931174089069	102.0	-0.597165991902834	6.055971861140848	121.0	-144.0	1.848872776808062	-2.989030069224401	-535.0	
4.93324698940048E-4	2618.0	7.1921896127511475	1491.0	-7.024825973293169	2088.0	0.0	48038.0	5466.00341796875	0.46	705.0	-703.0	-0.5931174089068826	109.0	-0.611336032388664	1.3151858082275578	170.0	-152.0	2.169048989374114	-3.737708006346861	-225.0	
0.2505469321327147	2603.0	7.19755035612861	1490.0	-6.8414953307850155	2067.0	0.0	48678.0	5485.53466796875	0.46	705.0	-703.0	-0.5931174089068826	109.0	-0.611336032388664	-0.7187643370545955	256.0	-133.0	1.9713602911902537	-5.0593104879274415	-92.0	
0.4530392329929382	2628.0	7.208685204055725	1489.0	-7.140452530094979	2050.0	0.0	49318.0	5505.06591796875	0.46	705.0	-703.0	-0.5931174089068826	109.0	-0.611336032388664	3.3338430952745073	250.0	-90.0	1.1469810607548065	-4.975487378283046	-357.0	
0.10554954105442255	2624.0	6.983525534013683	1508.0	-7.100237849330869	2079.0	0.0	49958.0	5524.59716796875	0.4625	706.0	-708.0	-0.6032388663967612	103.0	-0.5991902834008097	7.784064841718918	215.0	-18.0	-0.1437912208598129	-4.451338173064821	-648.0	
0.15265695969874354	2612.0	6.932362636541019	1512.0	-6.956211719840867	2075.0	0.0	50598.0	5544.12841796875	0.4625	706.0	-708.0	-0.6032388663967612	103.0	-0.5991902834008097	4.5113931793852275	304.0	6.0	-0.368379278339873	-5.819243099212738	-434.0	
0.15215248964330746	2598.0	6.881915630997412	1516.0	-6.788551005857112	2075.0	0.0	51238.0	5563.65966796875	0.4625	706.0	-708.0	-0.6032388663967612	103.0	-0.5991902834008097	5.826578987612786	233.0	-63.0	0.6293941016460574	-4.71980702568601	-520.0	
0.09288685295548359	2600.0	6.907732914595979	1514.0	-6.812723702094188	2080.0	0.0	51878.0	5583.19091796875	0.4625	706.0	-708.0	-0.6032388663967612	103.0	-0.5991902834008097	2.3245144517510323	297.0	-125.0	1.7328862342652567	-5.690819058479812	-291.0	
0.22479416340504782	2605.0	7.0032258643143095	1506.0	-6.869735733850748	2069.0	0.0	52518.0	5602.72216796875	0.4525	702.0	-711.0	-0.6093117408906883	93.0	-0.5789473684210527	-0.18351429882244993	274.0	-133.0	1.9527141613324162	-5.335697655072267	-127.0	
0.1184042473641677	2605.0	7.078519974512008	1500.0	-6.869293750807203	2078.0	0.0	53158.0	5622.25341796875	0.4525	702.0	-711.0	-0.6093117408906883	93.0	-0.5789473684210527	-0.015292858235204161	183.0	-205.0	3.039435071193707	-3.928482433084289	-138.0	
0.022591431999027696	2618.0	7.021047961807532	1505.0	-7.028027825239039	2086.0	0.0	53798.0	5641.78466796875	0.4525	702.0	-711.0	-0.6093117408906883	93.0	-0.5789473684210527	-2.263343018810216	257.0	-307.0	4.709534371841925	-5.047273230779049	9.0	
0.11694623666941838	2609.0	6.932718905037077	1512.0	-6.9204171233879865	2078.0	0.0	54438.0	5661.31591796875	0.4475	700.0	-711.0	-0.6093117408906883	96.0	-0.5850202429149798	-4.756078911148494	249.0	-383.0	5.97694042348145	-4.9118433009976545	172.0	
-0.08529021615407238	2594.0	6.947168860783236	1511.0	-6.741427597235033	2095.0	0.0	55078.0	5680.84716796875	0.4475	700.0	-711.0	-0.6093117408906883	96.0	-0.5850202429149798	-5.123107508793394	307.0	-413.0	6.461940334461469	-5.796973354059098	196.0	
0.15328212775451655	2625.0	6.994879442118322	1507.0	-7.111581638072859	2075.0	0.0	55718.0	5700.37841796875	0.4475	700.0	-711.0	-0.6093117408906883	96.0	-0.5850202429149798	-7.38645052760361	392.0	-374.0	5.9656587879712415	-7.106217280464619	344.0	
0.27303965051494555	2627.0	7.065869813399319	1501.0	-7.133060640961804	2065.0	0.0	56358.0	5719.90966796875	0.4475	700.0	-711.0	-0.6093117408906883	96.0	-0.5850202429149798	-5.566600397614315	280.0	-273.0	4.322236165973288	-5.404069336974609	225.0	
0.010796512292873907	2606.0	7.032032181668343	1504.0	-6.883347776785873	2087.0	0.0	56998.0	5739.44091796875	0.44	697.0	-707.0	-0.6012145748987854	112.0	-0.6174089068825911	-1.4681143905795995	197.0	-204.0	3.084309423879565	-4.1428564607711795	-43.0	
0.10564976533700948	2606.0	6.993547962272377	1507.0	-6.883168928643351	2079.0	0.0	57638.0	5758.97216796875	0.44	697.0	-707.0	-0.6012145748987854	112.0	-0.6174089068825911	-2.5692001835142992	393.0	-164.0	2.5431921998977978	-7.155786430003477	29.0	
-0.16845238678365582	2621.0	6.964285131158229	1510.0	-7.067218098353106	2102.0	0.0	58278.0	5778.50341796875	0.44	697.0	-707.0	-0.6012145748987854	112.0	-0.6174089068825911	-2.079828719987766	480.0	-164.0	2.5369676645928356	-8.490818753613395	-3.0	
-0.32366478453667724	2626.0	6.919235832046563	1514.0	-7.129912172168291	2115.0	0.0	58918.0	5798.03466796875	0.455	703.0	-708.0	-0.6032388663967612	113.0	-0.6194331983805668	-7.095886221134731	463.0	-217.0	3.550159274149586	-8.219830615329702	325.0	
0.2930581920735256	2621.0	6.686771588304941	1532.0	-7.0681532634216	2063.0	0.0	59558.0	5817.56591796875	0.455	703.0	-708.0	-0.6032388663967612	113.0	-0.6194331983805668	-12.93775806698272	518.0	-258.0	4.42285854834432	-9.055050223784626	707.0	
0.136862145272735	2619.0	6.543357384416358	1544.0	-7.048487122425209	2076.0	0.0	60198.0	5837.09716796875	0.455	703.0	-708.0	-0.6032388663967612	113.0	-0.6194331983805668	-10.460315032879647	436.0	-339.0	5.557027093193793	-7.785460878369889	545.0	
0.18521146967423435	2626.0	6.616385062661532	1538.0	-7.130880425013882	2072.0	0.0	60838.0	5856.62841796875	0.45	701.0	-700.0	-0.5870445344129555	87.0	-0.5668016194331984	-10.093286435234747	396.0	-365.0	5.93610871866666	-7.167890715790164	521.0	
0.10212182359145844	2612.0	6.640753787717272	1536.0	-6.962549248178415	2079.0	0.0	61478.0	5876.15966796875	0.45	701.0	-700.0	-0.5870445344129555	87.0	-0.5668016194331984	-7.722893408778101	334.0	-285.0	4.601332984530814	-6.229880486327779	366.0	
0.20937950802512376	2624.0	6.652236516798089	1535.0	-7.105825330005474	2070.0	0.0	62118.0	5895.69091796875	0.45	701.0	-700.0	-0.5870445344129555	87.0	-0.5668016194331984	-6.621807615843402	323.0	-228.0	3.6789057159050387	-6.070315438774663	294.0	
0.24496953305411195	2628.0	6.639810448268335	1536.0	-7.153910722210116	2067.0	0.0	62758.0	5915.22216796875	0.45	701.0	-700.0	-0.5870445344129555	87.0	-0.5668016194331984	-4.00672885762349	219.0	-180.0	2.820082238449764	-4.483077373104224	123.0	
-0.13421051347612412	2619.0	6.817043890482826	1522.0	-7.045724118891369	2099.0	0.0	63398.0	5934.75341796875	0.4525	702.0	-704.0	-0.5951417004048583	86.0	-0.5647773279352227	-1.6210429729316411	155.0	-116.0	1.730479365181852	-3.5119264477169096	-33.0	
0.007636686230024899	2614.0	6.716049575383442	1530.0	-6.986084569340873	2087.0	0.0	64038.0	5954.28466796875	0.4525	702.0	-704.0	-0.5951417004048583	86.0	-0.5647773279352227	-4.11377886526992	206.0	-128.0	2.0225722648685016	-4.291574185284413	130.0	
0.2822818471689498	2645.0	6.799613288323554	1523.0	-7.355160819376296	2064.0	0.0	64678.0	5973.81591796875	0.4525	702.0	-704.0	-0.5951417004048583	86.0	-0.5647773279352227	-6.407707600550544	330.0	-27.0	0.579893704508355	-6.208716944495503	280.0	
0.30618440279240056	2625.0	6.808916469716247	1522.0	-7.113771874770522	2062.0	0.0	65318.0	5993.34716796875	0.4475	700.0	-695.0	-0.576923076923077	99.0	-0.5910931174089069	-3.6244074017433863	205.0	-28.0	0.46477485275337505	-4.291807675747441	98.0	
0.3066708078027631	2624.0	6.857556970752499	1518.0	-7.100746007928609	2062.0	0.0	422.0	6012.87841796875	0.4475	700.0	-695.0	-0.576923076923077	99.0	-0.5910931174089069	-3.3950145282153237	262.0	-103.0	1.6178988474569351	-5.154912004313524	83.0	
0.11586477201173878	2622.0	6.824572439269115	1521.0	-7.079217373374019	2078.0	0.0	1062.0	6032.40966796875	0.4475	700.0	-695.0	-0.576923076923077	99.0	-0.5910931174089069	-3.7467502676250195	314.0	-221.0	3.4548690799171626	-5.934455452211416	106.0	
0.0787116946600614	2636.0	6.680693275529949	1533.0	-7.2511411862175	2081.0	0.0	1702.0	6051.94091796875	0.4475	700.0	-695.0	-0.576923076923077	99.0	-0.5910931174089069	-7.56996482642606	415.0	-398.0	6.34566456382281	-7.455340346842975	356.0	
-0.01762124713291177	2622.0	6.571208620042158	1542.0	-7.085619509950004	2089.0	0.0	2342.0	6071.47216796875	0.4475	700.0	-697.0	-0.5809716599190283	98.0	-0.5890688259109311	-9.63450068817862	356.0	-554.0	8.818576287788987	-6.525286693773944	491.0	
0.1838777699888367	2632.0	6.483015094121767	1549.0	-7.205850318008037	2072.0	0.0	2982.0	6091.00341796875	0.4475	700.0	-697.0	-0.5809716599190283	98.0	-0.5890688259109311	-13.182443798745988	415.0	-637.0	10.24613115952012	-7.416335680886003	723.0	
-0.12678962585421827	2643.0	6.3686564621972215	1559.0	-7.343774285086886	2098.0	0.0	3622.0	6110.53466796875	0.4475	700.0	-697.0	-0.5809716599190283	98.0	-0.5890688259109311	-12.111943722281696	405.0	-656.0	10.494014648557785	-7.2604120094143765	653.0	
0.03875727223753117	2652.0	6.256679604705498	1568.0	-7.4527920881955625	2084.0	0.0	4262.0	6130.06591796875	0.455	703.0	-702.0	-0.5910931174089069	110.0	-0.6133603238866396	-13.289493806392416	407.0	-611.0	9.849286814563362	-7.297548255070571	730.0	
-0.04516642082055929	2654.0	6.197643632229784	1573.0	-7.478908430117827	2091.0	0.0	4902.0	6149.59716796875	0.455	703.0	-702.0	-0.5910931174089069	110.0	-0.6133603238866396	-10.490900749350054	314.0	-472.0	7.585166539521729	-5.893152477615371	547.0	
0.10979735491375879	2645.0	6.217830729471118	1571.0	-7.368521315475898	2078.0	0.0	5542.0	6169.12841796875	0.455	703.0	-702.0	-0.5910931174089069	110.0	-0.6133603238866396	-8.01345771524698	227.0	-346.0	5.534760798465987	-4.578686456769061	385.0	
-0.07747592178636152	2641.0	6.538122107078133	1545.0	-7.315795449606421	2094.0	0.0	6182.0	6188.65966796875	0.4675	708.0	-700.0	-0.5870445344129555	107.0	-0.6072874493927125	-4.083193148799511	123.0	-218.0	3.392878283802374	-3.004278981470707	128.0	
-0.10053840875280656	2650.0	6.612825791386012	1539.0	-7.4229657357296865	2096.0	0.0	6822.0	6208.19091796875	0.4675	708.0	-700.0	-0.5870445344129555	107.0	-0.6072874493927125	-3.5479431105673656	119.0	-141.0	2.186541972429305	-2.9549644099519385	93.0	
-0.08744953246041691	2623.0	6.731237230148784	1529.0	-7.09516541337223	2095.0	0.0	7462.0	6227.72216796875	0.4675	708.0	-700.0	-0.5870445344129555	107.0	-0.6072874493927125	-2.7833001988071575	39.0	-125.0	1.897593581714877	-1.7302952012090906	43.0	
-0.3127532895957057	2613.0	6.819909135667528	1522.0	-6.975163085122365	2114.0	0.0	8102.0	6247.25341796875	0.4675	708.0	-700.0	-0.5870445344129555	107.0	-0.6072874493927125	-3.8079217005658363	149.0	-183.0	2.847532815203456	-3.408689011267944	110.0	
-0.5641947918500986	2589.0	6.675758910228235	1534.0	-6.69140387814767	2135.0	0.0	8742.0	6266.78466796875	0.465	707.0	-707.0	-0.6012145748987854	100.0	-0.5931174089068826	-6.637100474078606	280.0	-196.0	3.180737154804381	-5.415484327086298	295.0	
-0.3013313029176069	2619.0	6.771631613001218	1526.0	-7.048303572335416	2113.0	0.0	9382.0	6286.31591796875	0.465	707.0	-707.0	-0.6012145748987854	100.0	-0.5931174089068826	-14.95641535402967	575.0	-169.0	3.1434589847216525	-9.942479787933971	839.0	
0.01957398199060391	2643.0	6.719302960965153	1530.0	-7.335297719033079	2086.0	0.0	10022.0	6305.84716796875	0.465	707.0	-707.0	-0.6012145748987854	100.0	-0.5931174089068826	-17.9996941428353	659.0	-175.0	3.370350306723224	-11.229147501996449	1038.0	
-0.24401008193489485	2622.0	6.5513727588914685	1544.0	-7.088280115521037	2108.0	0.0	10662.0	6325.37841796875	0.47000000000000003	709.0	-699.0	-0.5850202429149798	92.0	-0.576923076923077	-15.812815415201102	561.0	-187.0	3.452416343646645	-9.724567443130972	895.0	
0.2904100620841421	2649.0	6.4219585893665885	1554.0	-7.410825402290621	2063.0	0.0	11302.0	6344.90966796875	0.47000000000000003	709.0	-699.0	-0.5850202429149798	92.0	-0.576923076923077	-17.846765560483256	637.0	-76.0	1.8381679556655521	-10.906890685028277	1028.0	
0.5266674659322407	2681.0	6.238175164652639	1569.0	-7.797680665421118	2043.0	0.0	11942.0	6364.44091796875	0.47000000000000003	709.0	-699.0	-0.5850202429149798	92.0	-0.576923076923077	-14.727022480501606	681.0	109.0	-1.1252898926248966	-11.611682544468678	824.0	
0.4769736028182995	2671.0	6.030693615163288	1586.0	-7.681845307331201	2047.0	0.0	12582.0	6383.97216796875	0.47000000000000003	709.0	-699.0	-0.5850202429149798	92.0	-0.576923076923077	-7.095886221134731	542.0	168.0	-2.359293459130145	-9.491139351654368	325.0	
0.13155865927593857	2669.0	6.013008784736713	1588.0	-7.6615567678329874	2076.0	0.0	13222.0	6403.50341796875	0.4825	714.0	-692.0	-0.5708502024291499	92.0	-0.576923076923077	-1.422235815873987	363.0	207.0	-3.2135283841028124	-6.753019126099737	-46.0	
