Device	Device	Device	Device	Device	Device	Device	Device	Device	Device	Device	Device	Device	Device	Device	Device	Device	Device	Device	Device	Device	
Low Noise Accelerometer X	Low Noise Accelerometer X	Low Noise Accelerometer Z	Low Noise Accelerometer Z	Low Noise Accelerometer Y	Low Noise Accelerometer Y	Event_Marker	Timestamp	Timestamp	Magnetometer Z	Magnetometer Z	Magnetometer X	Magnetometer X	Magnetometer Y	Magnetometer Y	Gyroscope Y	Gyroscope Y	Gyroscope Z	Gyroscope Z	Gyroscope X	Gyroscope X	
UNCAL	CAL	CAL	UNCAL	CAL	UNCAL	CAL	UNCAL	CAL	CAL	UNCAL	UNCAL	CAL	CAL	UNCAL	CAL	UNCAL	CAL	UNCAL	UNCAL	CAL	
no units	m/(s^2)	m/(s^2)	no units	m/(s^2)	no units	no units	no units	ms	local_flux	no units	no units	local_flux	local_flux	no units	deg/s	no units	deg/s	no units	no units	deg/s	
1981.0	-0.7337441758731621	9.958915746017114	1259.0	0.6978649695471528	2152.0	0.0	38703.0	1181.121826171875	0.72	809.0	-629.0	-0.4433198380566802	0.340080971659919	-361.0	0.7799357699954123	-99.0	-0.9115771355970631	47.0	-190.0	0.3591518364390271	
1984.0	-0.6025706881163255	9.981026426462682	1257.0	0.6634743397203795	2141.0	0.0	39343.0	1200.653076171875	0.72	809.0	-629.0	-0.4433198380566802	0.340080971659919	-361.0	-5.627771830555131	-103.0	-1.1942330562968397	82.0	229.0	0.41770321186452897	
1985.0	-0.4237901290050849	10.001939480443902	1255.0	0.6536322136200319	2126.0	0.0	39983.0	1220.184326171875	0.7225	810.0	-626.0	-0.43724696356275305	0.3481781376518219	-365.0	-0.9787429270530663	-96.0	-2.4249899470572904	150.0	-75.0	0.29798425735005013	
1979.0	-0.602089100451316	10.02918519296364	1253.0	0.7246832947824705	2141.0	0.0	40623.0	1239.715576171875	0.7225	810.0	-626.0	-0.43724696356275305	0.3481781376518219	-365.0	1.7280929805780703	-129.0	-0.8925796733248864	43.0	-252.0	0.819676320805496	
1974.0	-0.6144851014864781	9.980061279923623	1257.0	0.7838178203667401	2142.0	0.0	41263.0	1259.246826171875	0.7225	810.0	-626.0	-0.43724696356275305	0.3481781376518219	-365.0	3.9302645664474696	-147.0	-0.0759575218308439	-16.0	-396.0	1.1040432481666849	
1973.0	-0.9000212836486244	9.997871635137548	1256.0	0.7933668584204816	2166.0	0.0	41903.0	1278.778076171875	0.7275	812.0	-629.0	-0.4433198380566802	0.33805668016194335	-360.0	3.4256002446857323	-150.0	0.3282845144459281	-41.0	-363.0	1.1541191195038272	
1974.0	-0.8645567739653263	9.972894032038806	1258.0	0.7811737586842553	2163.0	0.0	42543.0	1298.309326171875	0.7275	812.0	-629.0	-0.4433198380566802	0.33805668016194335	-360.0	0.7187643370545955	-116.0	0.4879058597147699	-44.0	-186.0	0.6340028885802689	
1980.0	-0.7694524902298109	9.95951288178082	1259.0	0.7095680218899447	2155.0	0.0	43183.0	1317.840576171875	0.7275	812.0	-629.0	-0.4433198380566802	0.33805668016194335	-360.0	-2.4468573176326656	-63.0	0.3765584548249643	-28.0	21.0	-0.18036821934924924	
1977.0	-0.5550915407802878	9.967036398161694	1258.0	0.7480066800253106	2137.0	0.0	43823.0	1337.371826171875	0.7275	812.0	-629.0	-0.4433198380566802	0.33805668016194335	-360.0	-4.9090074935005354	-7.0	0.4528652442597117	-26.0	182.0	-1.0388962363098966	
1979.0	-0.20943279256457648	10.009101695923306	1254.0	0.7282081879205311	2108.0	0.0	44463.0	1356.903076171875	0.7175	808.0	-623.0	-0.4311740890688259	0.3502024291497976	-366.0	-4.083193148799511	104.0	-0.1322196529152105	11.0	128.0	-2.7479847713335097	
1975.0	-0.06648726749201253	10.017939917465414	1253.0	0.7780071786864364	2096.0	0.0	45103.0	1376.434326171875	0.7175	808.0	-623.0	-0.4311740890688259	0.3502024291497976	-366.0	2.5997858999847074	112.0	-0.7828024200168929	36.0	-309.0	-2.877246468269526	
1973.0	-0.7571928435673827	9.995001357547434	1256.0	0.7947377372694917	2154.0	0.0	45743.0	1395.965576171875	0.7175	808.0	-623.0	-0.4311740890688259	0.3502024291497976	-366.0	6.667686190549015	61.0	-2.61444383372073	144.0	-575.0	-2.1129942158421944	
1980.0	-1.019402260371984	9.96453586756352	1259.0	0.707168983904177	2176.0	0.0	46383.0	1415.496826171875	0.72	809.0	-636.0	-0.4574898785425101	0.3319838056680162	-357.0	0.8105214864658206	97.0	-3.620494786012991	225.0	-192.0	-2.6754561370576138	
1974.0	-0.8652881879853774	9.899752630033692	1264.0	0.7797036165039526	2163.0	0.0	47023.0	1435.028076171875	0.72	809.0	-636.0	-0.4574898785425101	0.3319838056680162	-357.0	-5.383086098791865	211.0	-2.294015246136109	156.0	213.0	-4.411462478685084	
1982.0	0.0881300706136918	10.00348325184537	1254.0	0.6949268693575021	2083.0	0.0	47663.0	1454.559326171875	0.72	809.0	-636.0	-0.4574898785425101	0.3319838056680162	-357.0	-0.9787429270530663	394.0	-2.888134373657362	185.0	-75.0	-7.225444179397155	
1999.0	-0.3879442559393639	10.015098215587422	1254.0	0.4855791482583789	2123.0	0.0	48303.0	1474.090576171875	0.72	809.0	-636.0	-0.4574898785425101	0.3319838056680162	-357.0	13.870622419330175	218.0	-3.293723235477792	171.0	-1046.0	-4.528870944185375	
1991.0	-1.364192035858572	10.009367842714248	1256.0	0.572087605170398	2205.0	0.0	48943.0	1493.621826171875	0.72	809.0	-624.0	-0.4331983805668016	0.32793522267206476	-355.0	5.979507569964827	54.0	-1.3882980043229882	66.0	-530.0	-1.9933213719413427	
1978.0	-1.1862816538127927	9.943263190149302	1261.0	0.7291711219636533	2190.0	0.0	49583.0	1513.153076171875	0.72	809.0	-624.0	-0.4331983805668016	0.32793522267206476	-355.0	-13.38125095580364	136.0	-1.8933435884562777	150.0	736.0	-3.256619487748918	
1987.0	0.23157404406000065	10.062166310761969	1249.0	0.6372940064148755	2071.0	0.0	50223.0	1532.684326171875	0.72	809.0	-624.0	-0.4331983805668016	0.32793522267206476	-355.0	-8.8239792017128	335.0	-3.675439108375669	256.0	438.0	-6.327992690914968	
2008.0	0.29050167347357836	10.00254829973879	1254.0	0.38367887429577663	2066.0	0.0	50863.0	1552.215576171875	0.72	809.0	-621.0	-0.4271255060728745	0.31781376518218624	-350.0	16.439822602844472	245.0	-4.822744476391765	264.0	-1214.0	-4.9584622153638875	
2006.0	-0.5181304816394167	10.09171374082024	1248.0	0.40147224710844437	2134.0	0.0	51503.0	1571.746826171875	0.72	809.0	-621.0	-0.4271255060728745	0.31781376518218624	-350.0	27.588316256308307	-150.0	0.36161871807181467	-106.0	-1943.0	1.154452461540086	
2004.0	-0.7684483674642917	10.059925158332737	1251.0	0.4224296821426142	2155.0	0.0	52143.0	1591.278076171875	0.72	809.0	-621.0	-0.4271255060728745	0.31781376518218624	-350.0	21.53234439516746	-390.0	7.196096653287604	-537.0	-1547.0	4.905473318842222	
1992.0	-0.7087071647931494	10.081664473066011	1249.0	0.5680401937170032	2150.0	0.0	52783.0	1610.809326171875	0.7075	804.0	-631.0	-0.4473684210526316	0.305668016194332	-344.0	8.579293469949535	-649.0	10.08920024217444	-694.0	-700.0	8.90862562218544	
2004.0	-2.1020014175692485	10.037953481170403	1255.0	0.40865471809831794	2267.0	0.0	53423.0	1630.340576171875	0.7075	804.0	-631.0	-0.4473684210526316	0.305668016194332	-344.0	18.305551307539382	-716.0	4.368183112196615	-348.0	-1336.0	9.87949585598003	
1994.0	-1.5883830155913867	10.209317488480368	1240.0	0.5377001099751393	2224.0	0.0	54063.0	1649.871826171875	0.7075	804.0	-631.0	-0.4473684210526316	0.305668016194332	-344.0	4.4655146046796155	-846.0	11.161732692705684	-755.0	-431.0	11.942214227341358	
1997.0	-1.5034780821582037	10.366477498465352	1227.0	0.5055477811959177	2217.0	0.0	54703.0	1669.403076171875	0.7075	804.0	-631.0	-0.4473684210526316	0.305668016194332	-344.0	-9.970943569353112	-1116.0	17.788468798555105	-1151.0	513.0	16.15149217609358	
1990.0	-2.27689675827928	10.40556226731008	1225.0	0.5829326392091919	2282.0	0.0	55343.0	1688.934326171875	0.6975	800.0	-633.0	-0.451417004048583	0.31983805668016196	-351.0	-8.609879186419942	-1200.0	27.980077702227486	-1818.0	424.0	17.542344892412796	
2021.0	-1.8987432783922815	11.316148351248062	1150.0	0.2314319197832071	2251.0	0.0	55983.0	1708.465576171875	0.6975	800.0	-633.0	-0.451417004048583	0.31983805668016196	-351.0	-4.74078605291329	-1152.0	40.95244039149747	-2671.0	171.0	16.935533303715495	
1965.0	-3.056056247652659	13.441994282353143	977.0	0.9370745038934278	2350.0	0.0	56623.0	1727.996826171875	0.6975	800.0	-633.0	-0.451417004048583	0.31983805668016196	-351.0	7.095886221134731	-1121.0	25.10306634308745	-1671.0	-603.0	16.301360569829527	
1951.0	-2.2091322438431877	14.801061329966902	864.0	1.1413997836789784	2280.0	0.0	57263.0	1747.528076171875	0.6875	796.0	-624.0	-0.4331983805668016	0.3623481781376518	-372.0	-27.358923382780244	-1596.0	45.48032332130595	-2911.0	1650.0	23.79376287722104	
1975.0	0.33743838898176237	15.886696041033384	771.0	0.8994215577225335	2067.0	0.0	57903.0	1767.059326171875	0.6875	796.0	-624.0	-0.4331983805668016	0.3623481781376518	-372.0	-33.20079522862823	-2637.0	26.189939812662885	-1652.0	2032.0	39.57446653024264	
1891.0	-1.9982532069918495	14.460393586529301	891.0	1.8595867854438	2262.0	0.0	58543.0	1786.590576171875	0.6875	796.0	-624.0	-0.4331983805668016	0.3623481781376518	-372.0	-50.38996788499771	-3389.0	29.992008260769015	-1862.0	3156.0	51.15153892563363	
1847.0	1.832750057361753	13.03691049808006	1001.0	2.399547638246062	1939.0	0.0	59183.0	1806.121826171875	0.6875	796.0	-624.0	-0.4331983805668016	0.3623481781376518	-372.0	-81.05214864658205	-2971.0	43.47941005837964	-2655.0	5161.0	44.87241877451353	
1897.0	2.0523725781268376	12.380114955540877	1055.0	1.7861983140487123	1920.0	0.0	59823.0	1825.653076171875	0.6875	796.0	-601.0	-0.3866396761133603	0.43724696356275305	-409.0	-48.17250344089311	-2045.0	26.43353790694133	-1623.0	3011.0	30.492968185575474	
1860.0	0.20319408484931895	11.98607515159856	1090.0	2.205608865567211	2075.0	0.0	60463.0	1845.184326171875	0.6875	796.0	-601.0	-0.3866396761133603	0.43724696356275305	-409.0	-14.467043890503136	-2095.0	28.922960562027896	-1873.0	807.0	31.28508659503259	
1857.0	0.0706796713890552	11.829871900810284	1103.0	2.237304234730096	2086.0	0.0	61103.0	1864.715576171875	0.6875	796.0	-601.0	-0.3866396761133603	0.43724696356275305	-409.0	-3.226793087628078	-2209.0	28.59433092146977	-1882.0	72.0	33.031071435653246	
1858.0	-0.069875478946418	10.869594962501058	1182.0	2.2046449516894726	2097.0	0.0	61743.0	1884.246826171875	0.665	787.0	-588.0	-0.3603238866396761	0.520242914979757	-450.0	10.292093592292401	-2584.0	29.34959601590679	-1970.0	-812.0	38.792805458394454	
1855.0	0.21951270165658324	10.04650826089642	1249.0	2.227221677776663	2072.0	0.0	62383.0	1903.778076171875	0.665	787.0	-588.0	-0.3603238866396761	0.520242914979757	-450.0	5.536014681143906	-2451.0	22.577383563170034	-1516.0	-501.0	36.68426700733648	
1854.0	0.03293039299813042	9.245420252193995	1315.0	2.2213822872871143	2087.0	0.0	63023.0	1923.309326171875	0.665	787.0	-588.0	-0.3603238866396761	0.520242914979757	-450.0	10.490900749350054	-1963.0	10.38022354213778	-731.0	-825.0	29.0741873819612	
1838.0	-0.1665035104181693	9.540125148659266	1291.0	2.418053130519606	2104.0	0.0	63663.0	1942.840576171875	0.6325000000000001	774.0	-590.0	-0.3643724696356275	0.5465587044534413	-463.0	16.638629759902127	-1380.0	2.241199452647085	-212.0	-1227.0	20.046963168379474	
1838.0	0.23029747691552666	9.934509596314571	1258.0	2.429908829346049	2071.0	0.0	64303.0	1962.371826171875	0.6325000000000001	774.0	-590.0	-0.3643724696356275	0.5465587044534413	-463.0	18.504358464597036	-564.0	-3.3683253460121456	156.0	-1349.0	7.469769255362957	
1839.0	-0.005066867476683806	10.207598966617333	1236.0	2.420968780537098	2091.0	0.0	64943.0	1981.903076171875	0.6325000000000001	774.0	-590.0	-0.3643724696356275	0.5465587044534413	-463.0	29.83636641688332	-219.0	-10.766850585537178	611.0	-2090.0	2.1019371409146146	
1827.0	-0.4689080427667527	10.252052866181879	1233.0	2.5617977600285	2130.0	0.0	47.0	2001.434326171875	0.6325000000000001	774.0	-590.0	-0.3643724696356275	0.5465587044534413	-463.0	38.78268848447775	-78.0	-14.579074771826223	837.0	-2675.0	-0.0997572967438875	
1816.0	-0.24558001408136992	9.965808115672537	1256.0	2.690836265787095	2111.0	0.0	687.0	2020.965576171875	0.6225	770.0	-606.0	-0.3967611336032389	0.5728744939271255	-476.0	27.12953050925218	393.0	-19.131745048624236	1168.0	-1913.0	-7.372535802488698	
1810.0	-0.4473180185311158	10.030102908793184	1251.0	2.762393938231516	2128.0	0.0	1327.0	2040.496826171875	0.6225	770.0	-606.0	-0.3967611336032389	0.5728744939271255	-476.0	24.055666003976146	990.0	-25.43862673995472	1592.0	-1712.0	-16.59626136330257	
1808.0	-0.29088298440232774	10.19741584548151	1237.0	2.7914009328487395	2115.0	0.0	1967.0	2060.028076171875	0.6225	770.0	-606.0	-0.3967611336032389	0.5728744939271255	-476.0	26.120201865728706	1470.0	-26.324254276545023	1649.0	-1847.0	-23.97046979456843	
1818.0	-0.2528476866218064	10.429517052105076	1218.0	2.6759413822481726	2112.0	0.0	2607.0	2079.559326171875	0.6175	768.0	-636.0	-0.4574898785425101	0.5364372469635628	-458.0	25.61553754396697	2008.0	-28.713199806376345	1811.0	-1814.0	-32.24969145793794	
1835.0	-0.6922396844611501	10.53793631578975	1210.0	2.4688965704350387	2149.0	0.0	3247.0	2099.090576171875	0.6175	768.0	-636.0	-0.4574898785425101	0.5364372469635628	-458.0	26.34959473925677	2519.0	-33.355273485187055	2116.0	-1862.0	-40.13714334402787	
1866.0	-1.4175155064275924	10.629401738193149	1204.0	2.0899791447598277	2210.0	0.0	3887.0	2118.621826171875	0.6175	768.0	-636.0	-0.4574898785425101	0.5364372469635628	-458.0	24.055666003976146	2760.0	-36.93330030871106	2357.0	-1712.0	-43.870944173871216	
1890.0	-1.5965097618037276	10.587119057722486	1208.0	1.7981869220906292	2225.0	0.0	4527.0	2138.153076171875	0.6175	768.0	-636.0	-0.4574898785425101	0.5364372469635628	-458.0	16.5315797522557	2868.0	-37.47711637223318	2413.0	-1220.0	-45.53358656958393	
1899.0	-1.1529417717726334	10.896299013212866	1182.0	1.7003724661609887	2188.0	0.0	5167.0	2157.684326171875	0.6275000000000001	772.0	-656.0	-0.4979757085020243	0.5	-440.0	10.077993576999543	2827.0	-38.19427412748882	2476.0	-798.0	-44.911634317153364	
1924.0	-1.952930402887956	10.659340663585372	1203.0	1.3864285935801772	2255.0	0.0	5807.0	2177.215576171875	0.6275000000000001	772.0	-656.0	-0.4979757085020243	0.5	-440.0	18.504358464597036	2442.0	-41.69726896032018	2678.0	-1349.0	-39.03903805710359	
1911.0	-1.3658731131424082	9.841260114330609	1269.0	1.5325640615166338	2205.0	0.0	6447.0	2196.746826171875	0.6275000000000001	772.0	-656.0	-0.4979757085020243	0.5	-440.0	9.206300657592905	2075.0	-45.626768645298036	2954.0	-741.0	-33.446907551421525	
1933.0	-0.2495837861767526	9.565430906134265	1290.0	1.2731501296585082	2111.0	0.0	7087.0	2216.278076171875	0.6325000000000001	774.0	-684.0	-0.5546558704453441	0.4473684210526316	-414.0	-1.605750114696437	2370.0	-49.51719002875615	3238.0	-34.0	-38.01243444440295	
1955.0	-1.1418693342750466	9.622590382019162	1287.0	1.0003102227313678	2186.0	0.0	7727.0	2235.809326171875	0.6325000000000001	774.0	-684.0	-0.5546558704453441	0.4473684210526316	-414.0	11.347300810521487	2368.0	-60.58673473593116	3924.0	-881.0	-38.09244092415846	
1947.0	-1.3007544585007207	9.210268435642226	1321.0	1.0868604747302468	2199.0	0.0	8367.0	2255.340576171875	0.6325000000000001	774.0	-684.0	-0.5546558704453441	0.4473684210526316	-414.0	17.326808380486316	2434.0	-66.19901356130828	4274.0	-1272.0	-39.161299633848465	
1938.0	-0.888205124401091	8.79853517893852	1354.0	1.1911850378769282	2164.0	0.0	9007.0	2274.871826171875	0.635	775.0	-709.0	-0.6052631578947368	0.35627530364372473	-369.0	13.075393791099557	2635.0	-68.90508899726112	4463.0	-994.0	-42.272601603491104	
1941.0	-0.7448854619641337	8.844787136919953	1350.0	1.1573986953476734	2152.0	0.0	9647.0	2294.403076171875	0.635	775.0	-709.0	-0.6052631578947368	0.35627530364372473	-369.0	15.598715399908244	2965.0	-73.2619790642753	4743.0	-1159.0	-47.37985011134246	
1965.0	-0.6335905483841284	9.259992780634775	1316.0	0.8776591308517459	2143.0	0.0	10287.0	2313.934326171875	0.635	775.0	-709.0	-0.6052631578947368	0.35627530364372473	-369.0	18.81021562930112	3536.0	-79.33205662684335	5135.0	-1369.0	-56.20225105575747	
1985.0	-0.8244919911123868	9.217467555427993	1320.0	0.6339357564986408	2159.0	0.0	10927.0	2333.465576171875	0.635	775.0	-709.0	-0.6052631578947368	0.35627530364372473	-369.0	28.719987765713416	3839.0	-82.71191877090435	5332.0	-2017.0	-60.88542822560992	
2008.0	-2.1577735368082136	9.22264631917864	1322.0	0.3435980825817557	2271.0	0.0	11567.0	2352.996826171875	0.6425	778.0	-732.0	-0.6518218623481782	0.22874493927125505	-306.0	36.412295458021106	3991.0	-84.93422859193736	5458.0	-2520.0	-63.24001283985525	
2034.0	-2.120084676656306	9.420103762940828	1306.0	0.034671108010325774	2268.0	0.0	12207.0	2372.528076171875	0.6425	778.0	-732.0	-0.6518218623481782	0.22874493927125505	-306.0	22.70989447927818	4299.0	-80.18613915317202	5188.0	-1624.0	-67.91863291217005	
2042.0	-1.3224943491753254	9.417231749134128	1305.0	-0.05379597115967308	2201.0	0.0	12847.0	2392.059326171875	0.6425	778.0	-732.0	-0.6518218623481782	0.22874493927125505	-306.0	11.867257990518429	4665.0	-75.5896720779023	4921.0	-915.0	-73.48874926029107	
2032.0	-0.8369472689946357	9.162415957679288	1325.0	0.06644511152388036	2160.0	0.0	13487.0	2411.590576171875	0.6425	778.0	-753.0	-0.6943319838056681	0.09919028340080972	-242.0	6.3465361676097265	4681.0	-71.70580124010513	4683.0	-554.0	-73.6954222904431	
2076.0	-1.9089608951617922	9.10391048382076	1332.0	-0.47556561614267256	2250.0	0.0	14127.0	2431.121826171875	0.6425	778.0	-753.0	-0.6943319838056681	0.09919028340080972	-242.0	4.9090074935005354	4927.0	-70.62619669516991	4619.0	-460.0	-77.45936922489247	
2080.0	-1.386958430232006	8.923204595847038	1346.0	-0.5221524803371864	2206.0	0.0	14767.0	2450.653076171875	0.6425	778.0	-753.0	-0.6943319838056681	0.09919028340080972	-242.0	-5.536014681143906	5236.0	-64.57782984518785	4256.0	223.0	-82.14033100675324	
2092.0	0.5861675915210425	8.616759152104251	1368.0	-0.6531284422475239	2040.0	0.0	15407.0	2470.184326171875	0.6425	778.0	-753.0	-0.6943319838056681	0.09919028340080972	-242.0	-27.205994800428204	5374.0	-60.50613690311158	4049.0	1640.0	-84.21715282215372	
2192.0	-0.5889990470984982	8.957238147293037	1343.0	-1.8628898058383774	2139.0	0.0	16047.0	2489.715576171875	0.6575	784.0	-760.0	-0.708502024291498	-0.04048582995951417	-173.0	-26.364887597491975	5423.0	-64.45434103944359	4304.0	1585.0	-85.00851456276517	
2251.0	-1.365507697774806	8.687325460614638	1367.0	-2.586896519572684	2204.0	0.0	16687.0	2509.246826171875	0.6575	784.0	-760.0	-0.708502024291498	-0.04048582995951417	-173.0	-25.309680379262886	5084.0	-65.8559181252721	4389.0	1516.0	-79.8207503735191	
2250.0	-1.2774821799208194	7.966067722203793	1426.0	-2.5883932263912763	2196.0	0.0	17327.0	2528.778076171875	0.6575	784.0	-760.0	-0.708502024291498	-0.04048582995951417	-173.0	-24.269766019269003	4647.0	-59.1355236278622	3945.0	1448.0	-73.04800706994443	
2271.0	-0.7101659056430306	7.554838007125508	1459.0	-2.8439567061428357	2148.0	0.0	17967.0	2548.309326171875	0.6675	788.0	-759.0	-0.7064777327935223	-0.15991902834008098	-114.0	-29.51521639394403	4301.0	-51.27307707970886	3444.0	1791.0	-67.66019125875167	
2273.0	0.049881550749482306	7.369107455900613	1473.0	-2.864167228145577	2084.0	0.0	18607.0	2567.840576171875	0.6675	788.0	-759.0	-0.7064777327935223	-0.15991902834008098	-114.0	-27.649487689249124	3757.0	-42.618017114010506	2871.0	1669.0	-59.22624154907474	
2296.0	0.36022418701801173	7.450990130372607	1466.0	-3.136534582028392	2058.0	0.0	19247.0	2587.371826171875	0.6675	788.0	-759.0	-0.7064777327935223	-0.15991902834008098	-114.0	-20.43125860223276	3608.0	-39.37663420404697	2640.0	1197.0	-56.9074996549145	
2299.0	0.4957861588951552	7.911949222848854	1428.0	-3.1621043587733486	2047.0	0.0	19887.0	2606.903076171875	0.685	795.0	-750.0	-0.688259109311741	-0.23279352226720648	-78.0	-11.347300810521487	3192.0	-30.821447737664283	2056.0	603.0	-50.43864258847071	
2312.0	-0.6930942597060349	8.071526410348893	1417.0	-3.327428125233456	2147.0	0.0	20527.0	2626.434326171875	0.685	795.0	-750.0	-0.688259109311741	-0.23279352226720648	-78.0	4.801957485854107	2995.0	-26.45270594229523	1728.0	-453.0	-47.37209188986641	
2340.0	-0.45586645450988766	7.9847831204398005	1424.0	-3.6641401105700377	2127.0	0.0	21167.0	2645.965576171875	0.685	795.0	-750.0	-0.688259109311741	-0.23279352226720648	-78.0	-6.866493347606668	3053.0	-22.870212083094042	1526.0	310.0	-48.22624700344565	
2353.0	-0.1374124640349013	7.6873250250812974	1448.0	-3.8235312385965545	2100.0	0.0	21807.0	2665.496826171875	0.685	795.0	-750.0	-0.688259109311741	-0.23279352226720648	-78.0	-12.433093745220983	2900.0	-19.548760748708084	1323.0	674.0	-45.845326490408674	
2376.0	-0.043994339295088544	7.50532797525305	1463.0	-4.103345432080661	2092.0	0.0	22447.0	2685.028076171875	0.675	791.0	-738.0	-0.6639676113360324	-0.2732793522267207	-58.0	-9.833307845236275	2775.0	-14.719331591294472	1001.0	504.0	-43.878971741568925	
2384.0	-0.5448594635821301	7.418815546548891	1471.0	-4.206469874066288	2134.0	0.0	23087.0	2704.559326171875	0.675	791.0	-738.0	-0.6639676113360324	-0.2732793522267207	-58.0	-5.031350359382169	2502.0	-9.739215970734595	662.0	190.0	-39.64012654669523	
2395.0	-0.11367904423183028	7.679714624436021	1449.0	-4.3294702087969705	2098.0	0.0	23727.0	2724.090576171875	0.675	791.0	-738.0	-0.6639676113360324	-0.2732793522267207	-58.0	-11.13320079522863	2232.0	-7.183343567045638	509.0	589.0	-35.47155723496461	
2411.0	-0.051466073409713625	7.948630754266733	1427.0	-4.516240840829485	2093.0	0.0	24367.0	2743.621826171875	0.6625	786.0	-737.0	-0.6619433198380567	-0.34210526315789475	-24.0	-11.851965132283224	2145.0	-7.30637063160265	518.0	636.0	-34.13781742735332	
2418.0	-0.658966122747324	7.912911534791412	1431.0	-4.607367575109958	2144.0	0.0	25007.0	2763.153076171875	0.6625	786.0	-737.0	-0.6619433198380567	-0.34210526315789475	-24.0	-4.174950298210736	1923.0	-5.463420932016797	376.0	134.0	-30.71291255825373	
2425.0	-0.7553956758138693	7.793765751946399	1441.0	-4.695052135695114	2152.0	0.0	25647.0	2782.684326171875	0.6625	786.0	-737.0	-0.6619433198380567	-0.34210526315789475	-24.0	-4.970178926441353	1880.0	-3.423339319114766	245.0	186.0	-30.032698944825338	
2434.0	-0.6964824984363505	7.732702537317336	1446.0	-4.804118003153679	2147.0	0.0	26287.0	2802.215576171875	0.6625	786.0	-737.0	-0.6619433198380567	-0.34210526315789475	-24.0	-8.288729163480655	1679.0	0.01616433584724819	28.0	403.0	-26.914062692992612	
2443.0	-0.542716068014696	7.633155103292308	1454.0	-4.913005022469722	2134.0	0.0	26927.0	2821.746826171875	0.665	787.0	-726.0	-0.6396761133603239	-0.3360323886639676	-27.0	-17.464444104603153	1569.0	2.719527744499749	-125.0	1003.0	-25.19913585651235	
2465.0	0.07623366773679265	7.6233667736792645	1454.0	-5.1720715326683235	2082.0	0.0	27567.0	2841.278076171875	0.665	787.0	-726.0	-0.6396761133603239	-0.3360323886639676	-27.0	-25.11087322220523	1507.0	4.307821406291721	-209.0	1503.0	-24.231894933090686	
2458.0	0.13756562246640353	7.8041812942594	1439.0	-5.083504573311835	2077.0	0.0	28207.0	2860.809326171875	0.665	787.0	-726.0	-0.6396761133603239	-0.3360323886639676	-27.0	-17.20446551460468	1302.0	4.22161575809474	-226.0	986.0	-21.08713783965705	
2473.0	-0.11309749665074706	7.737869382544344	1445.0	-5.268060334303572	2098.0	0.0	28847.0	2880.340576171875	0.6675	788.0	-716.0	-0.6194331983805668	-0.3643724696356275	-13.0	-6.224193301728094	1421.0	3.277762728353063	-192.0	268.0	-22.922569925271326	
2485.0	-0.24413101702583495	7.729755440273647	1446.0	-5.414111261605749	2109.0	0.0	29487.0	2899.871826171875	0.6675	788.0	-716.0	-0.6194331983805668	-0.3643724696356275	-13.0	-4.236121731151552	1293.0	3.8861215392667097	-238.0	138.0	-20.952392428922202	
2507.0	-0.7531026781739806	8.023065515935281	1423.0	-5.678395017667853	2152.0	0.0	30127.0	2919.403076171875	0.6675	788.0	-716.0	-0.6194331983805668	-0.3643724696356275	-13.0	-2.9056430646887907	1048.0	2.810951995973758	-174.0	51.0	-17.20374562811453	
2502.0	-0.6465968814781163	7.959359471235981	1428.0	-5.6183631167394585	2143.0	0.0	30767.0	2938.934326171875	0.6625	786.0	-718.0	-0.6234817813765182	-0.37449392712550605	-8.0	-5.8112861293775815	823.0	1.2776698256449308	-69.0	241.0	-13.766569626739715	
2494.0	0.30570498670946433	7.951451051898811	1427.0	-5.512612724275651	2063.0	0.0	31407.0	2958.465576171875	0.6625	786.0	-718.0	-0.6234817813765182	-0.37449392712550605	-8.0	-13.641229545802112	776.0	-0.9080500923610927	93.0	753.0	-13.067236093987907	
