Device	Device	Device	Device	Device	Device	Device	Device	Device	Device	Device	Device	Device	Device	Device	Device	Device	Device	Device	Device	Device	
Low Noise Accelerometer X	Low Noise Accelerometer X	Low Noise Accelerometer Z	Low Noise Accelerometer Z	Low Noise Accelerometer Y	Low Noise Accelerometer Y	Event_Marker	Timestamp	Timestamp	Magnetometer Z	Magnetometer Z	Magnetometer X	Magnetometer X	Magnetometer Y	Magnetometer Y	Gyroscope Y	Gyroscope Y	Gyroscope Z	Gyroscope Z	Gyroscope X	Gyroscope X	
CAL	UNCAL	CAL	UNCAL	UNCAL	CAL	CAL	CAL	UNCAL	CAL	UNCAL	UNCAL	CAL	CAL	UNCAL	UNCAL	CAL	CAL	UNCAL	UNCAL	CAL	
m/(s^2)	no units	m/(s^2)	no units	no units	m/(s^2)	no units	ms	no units	local_flux	no units	no units	local_flux	local_flux	no units	no units	deg/s	deg/s	no units	no units	deg/s	
-0.06679678193093938	1718.0	9.98698847357273	1253.0	2096.0	3.873770596832868	0.0	274.84130859375	9006.0	0.44	697.0	-457.0	-0.0951417004048583	0.8178137651821863	-597.0	666.0	-4.00672885762349	-2.9560048871049047	200.0	123.0	-11.399822439541605	
0.11999852011318608	1730.0	9.61889963036623	1283.0	2080.0	3.723698459736167	0.0	294.37255859375	9646.0	0.44	697.0	-457.0	-0.0951417004048583	0.8178137651821863	-597.0	696.0	-9.00749350053525	-2.4283964905501265	179.0	450.0	-11.854880865319803	
0.5463076633418313	1745.0	9.392671096087899	1301.0	2044.0	3.5427140889166218	0.0	313.90380859375	10286.0	0.4575	704.0	-461.0	-0.10323886639676114	0.8319838056680162	-604.0	723.0	-3.502064535861753	-4.090235849783423	273.0	90.0	-12.28580031768151	
0.03438023770502535	1742.0	9.390404722883488	1302.0	2087.0	3.5736940655094185	0.0	333.43505859375	10926.0	0.4575	704.0	-461.0	-0.10323886639676114	0.8319838056680162	-604.0	679.0	3.2420859458632822	-5.79713189854231	366.0	-351.0	-11.627711997211602	
-0.061071687995442034	1751.0	9.369021676646273	1304.0	2095.0	3.463878150387911	0.0	352.96630859375	11566.0	0.4575	704.0	-461.0	-0.10323886639676114	0.8319838056680162	-604.0	601.0	1.529285823520416	-4.356330271433818	276.0	-239.0	-10.416434255606774	
-0.0032544273116615896	1761.0	9.198366792643364	1318.0	2090.0	3.340561297603847	0.0	372.49755859375	12206.0	0.465	707.0	-466.0	-0.11336032388663968	0.7894736842105263	-583.0	543.0	-4.343171738797982	-3.145988874976075	212.0	145.0	-9.514350789470951	
0.305728013872029	1768.0	9.144229958631474	1322.0	2064.0	3.2582310359378557	0.0	392.02880859375	12846.0	0.465	707.0	-466.0	-0.11336032388663968	0.7894736842105263	-583.0	409.0	-4.55727175409084	-2.8965131989924684	195.0	159.0	-7.455695222522379	
0.506246994955023	1774.0	8.958032828835636	1337.0	2047.0	3.1842231265262626	0.0	411.56005859375	13486.0	0.465	707.0	-466.0	-0.11336032388663968	0.7894736842105263	-583.0	338.0	-1.2693072335219453	-3.9309933505149837	253.0	-56.0	-6.376581684310735	
0.42317902692633536	1778.0	8.984569359300204	1335.0	2054.0	3.1357304063709304	0.0	431.09130859375	14126.0	0.465	707.0	-466.0	-0.11336032388663968	0.7894736842105263	-583.0	321.0	3.6244074017433863	-4.390802748249083	270.0	-376.0	-6.120323556099953	
0.35383594227285453	1777.0	9.193118036809256	1318.0	2060.0	3.1512561418456606	0.0	450.62255859375	14766.0	0.455	703.0	-461.0	-0.10323886639676114	0.8178137651821863	-597.0	250.0	2.4009787429270535	-3.737535556621383	230.0	-296.0	-5.024332544456808	
0.4026644456666869	1777.0	9.31406361428774	1308.0	2056.0	3.1541633384291683	0.0	470.15380859375	15406.0	0.455	703.0	-461.0	-0.10323886639676114	0.8178137651821863	-597.0	92.0	0.09175714941122497	-3.038808645475437	189.0	-145.0	-2.5929168573616135	
0.48658573005210093	1773.0	9.372858719495806	1303.0	2049.0	3.2043712244615215	0.0	489.68505859375	16046.0	0.455	703.0	-461.0	-0.10323886639676114	0.8178137651821863	-597.0	-57.0	-0.8869857776418414	-3.2070923672891825	201.0	-81.0	-0.30827162951914017	
0.5836187731203311	1761.0	9.552353502509295	1288.0	2041.0	3.3535097638054854	0.0	509.21630859375	16686.0	0.47250000000000003	710.0	-464.0	-0.10931174089068826	0.8097165991902834	-593.0	-158.0	0.9022786358770455	-3.9555227313340784	244.0	-198.0	1.2340369163110265	
0.6307225787556373	1746.0	9.50082930413516	1292.0	2037.0	3.533673209460621	0.0	528.74755859375	17326.0	0.47250000000000003	710.0	-464.0	-0.10931174089068826	0.8097165991902834	-593.0	-107.0	0.8564000611714331	-4.853324805675206	303.0	-195.0	0.4424902290032449	
0.4303363390363626	1749.0	9.700300570302927	1276.0	2054.0	3.4995141940735306	0.0	548.27880859375	17966.0	0.47250000000000003	710.0	-464.0	-0.10931174089068826	0.8097165991902834	-593.0	121.0	1.3151858082275578	-4.775169632795067	299.0	-225.0	-3.055270493320432	
0.35977784402514457	1751.0	9.787308212038266	1269.0	2060.0	3.4764523764159563	0.0	567.81005859375	18606.0	0.47250000000000003	710.0	-464.0	-0.10931174089068826	0.8097165991902834	-593.0	226.0	-2.492735892338278	-4.360666525085582	283.0	24.0	-4.662296246346452	
0.4180851227283022	1763.0	9.665655129973079	1279.0	2055.0	3.3300240743086724	0.0	587.34130859375	19246.0	0.47000000000000003	709.0	-465.0	-0.11133603238866396	0.7753036437246964	-576.0	262.0	-4.55727175409084	-4.380234861858386	290.0	159.0	-5.214893341406677	
0.4885253284118598	1764.0	9.566818555471693	1287.0	2049.0	3.316703552104396	0.0	606.87255859375	19886.0	0.47000000000000003	709.0	-465.0	-0.11133603238866396	0.7753036437246964	-576.0	183.0	-2.64566447469032	-4.668761677944947	303.0	34.0	-4.005564400575675	
0.3930589506753336	1761.0	9.543990305628595	1289.0	2057.0	3.3514369016434213	0.0	626.40380859375	20526.0	0.47000000000000003	709.0	-465.0	-0.11133603238866396	0.7753036437246964	-576.0	158.0	-1.1775500841107205	-4.6851739865974364	300.0	-62.0	-3.6221164322090775	
0.5242336427685084	1765.0	9.566221419707988	1287.0	2046.0	3.305000499761604	0.0	645.93505859375	21166.0	0.46	705.0	-466.0	-0.11336032388663968	0.8157894736842105	-596.0	210.0	-2.079828719987766	-4.395016743227875	284.0	-3.0	-4.417128009997877	
0.4194308657770822	1767.0	9.80022943485108	1268.0	2055.0	3.2845362467523826	0.0	665.46630859375	21806.0	0.46	705.0	-466.0	-0.11336032388663968	0.8157894736842105	-596.0	161.0	0.45878574705612485	-4.6732570326058305	295.0	-169.0	-3.668030713643536	
0.3164469891450779	1761.0	10.216127485936365	1234.0	2064.0	3.3641135256342745	0.0	684.99755859375	22446.0	0.46	705.0	-466.0	-0.11336032388663968	0.8157894736842105	-596.0	-18.0	1.330478666462762	-4.458732347672468	277.0	-226.0	-0.9192228919898444	
0.2717499174984813	1750.0	10.508325083181461	1210.0	2068.0	3.5020406273446376	0.0	704.52880859375	23086.0	0.47500000000000003	711.0	-460.0	-0.10121457489878542	0.8036437246963563	-590.0	-202.0	0.1529285823520416	-4.178393997032675	260.0	-149.0	1.9069654846115363	
0.29979835690522666	1731.0	10.932216642903619	1175.0	2066.0	3.7397146055837514	0.0	724.06005859375	23726.0	0.47500000000000003	711.0	-460.0	-0.10121457489878542	0.8036437246963563	-590.0	-384.0	-1.2846000917571496	-4.087299924194231	256.0	-55.0	4.700572451118654	
0.3752221063564081	1720.0	11.331734445164622	1142.0	2060.0	3.8809893196054106	0.0	743.59130859375	24366.0	0.47500000000000003	711.0	-460.0	-0.10121457489878542	0.8036437246963563	-590.0	-577.0	-0.8716929194066372	-2.5953553705251036	156.0	-82.0	7.676977242673451	
0.35408476571366315	1708.0	11.598952761842506	1120.0	2062.0	4.030700625785553	0.0	763.12255859375	25006.0	0.47500000000000003	711.0	-460.0	-0.10121457489878542	0.8036437246963563	-590.0	-733.0	-2.0645358617525615	-1.6487387759101857	96.0	-4.0	10.080182859287087	
-0.13551399564942546	1694.0	11.448600435057456	1133.0	2103.0	4.191472290431402	0.0	782.65380859375	25646.0	0.47500000000000003	711.0	-464.0	-0.10931174089068826	0.7894736842105263	-583.0	-706.0	-7.600550542896468	-0.10043660420222827	10.0	358.0	9.681364822234794	
0.018713548719488562	1681.0	11.39516439575838	1137.0	2090.0	4.348572351113205	0.0	802.18505859375	26286.0	0.47500000000000003	711.0	-464.0	-0.10931174089068826	0.7894736842105263	-583.0	-354.0	-14.574093898149565	4.354514918455134	-258.0	814.0	4.3246560898014	
0.34373460900253805	1681.0	11.754413281206187	1107.0	2063.0	4.359007539424993	0.0	821.71630859375	26926.0	0.47500000000000003	711.0	-464.0	-0.10931174089068826	0.7894736842105263	-583.0	295.0	-13.916500994035786	8.026875904173389	-492.0	771.0	-5.597190194464481	
0.31351430846894934	1682.0	12.303811799275888	1062.0	2066.0	4.357645114009966	0.0	841.24755859375	27566.0	0.455	703.0	-470.0	-0.12145748987854252	0.7692307692307693	-573.0	557.0	1.498700107050008	8.127279317903497	-536.0	-237.0	-9.616440878755906	
-0.17325540808750697	1689.0	12.436363953154066	1052.0	2107.0	4.271091110524376	0.0	860.77880859375	28206.0	0.455	703.0	-470.0	-0.12145748987854252	0.7692307692307693	-573.0	573.0	18.580822755773056	8.000223194804514	-572.0	-1354.0	-9.863223178516893	
-0.5406465565932804	1687.0	12.602011007338628	1039.0	2138.0	4.294826525665177	0.0	880.31005859375	28846.0	0.455	703.0	-470.0	-0.12145748987854252	0.7692307692307693	-573.0	478.0	23.70393026456645	8.011454245144332	-587.0	-1689.0	-8.405384920491631	
-1.0376132147793926	1693.0	12.905345188727425	1015.0	2180.0	4.223634386084585	0.0	899.84130859375	29486.0	0.455	703.0	-470.0	-0.12145748987854252	0.7692307692307693	-573.0	290.0	19.69720140694296	8.158243340147283	-588.0	-1427.0	-5.5191541018141175	
-1.1683051148712196	1685.0	12.931393274782812	1013.0	2191.0	4.319233970973451	0.0	919.37255859375	30126.0	0.47500000000000003	711.0	-459.0	-0.09919028340080972	0.7834008097165992	-580.0	10.0	6.4382933170209515	10.814266599930395	-729.0	-560.0	-1.196138444941313	
-0.7411739680306421	1674.0	12.787365101697699	1024.0	2155.0	4.453154839462081	0.0	938.90380859375	30766.0	0.47500000000000003	711.0	-459.0	-0.09919028340080972	0.7834008097165992	-580.0	16.0	-8.976907784064842	15.046200607517491	-964.0	448.0	-1.2458860068141915	
0.07875706708743833	1681.0	12.637611470648597	1035.0	2086.0	4.374021727794689	0.0	958.43505859375	31406.0	0.47500000000000003	711.0	-459.0	-0.09919028340080972	0.7834008097165992	-580.0	163.0	-13.350665239333233	19.07348454062431	-1213.0	734.0	-3.4612522652274844	
-0.07876063603536752	1695.0	12.362031634558488	1058.0	2099.0	4.1982602552464785	0.0	977.96630859375	32046.0	0.4825	714.0	-453.0	-0.08704453441295547	0.7672064777327935	-572.0	308.0	-8.135800581128613	20.978934758909606	-1349.0	393.0	-5.667147893472744	
-0.377649972881004	1704.0	12.235002711899599	1069.0	2124.0	4.084297048485086	0.0	997.49755859375	32686.0	0.4825	714.0	-453.0	-0.08704453441295547	0.7672064777327935	-572.0	390.0	-15.522251108732224	24.978315050933077	-1589.0	876.0	-6.88540175051875	
0.09808273338879082	1707.0	12.189225719831464	1072.0	2084.0	4.051994257393168	0.0	1017.02880859375	33326.0	0.4825	714.0	-453.0	-0.08704453441295547	0.7672064777327935	-572.0	495.0	-34.607738186267014	29.772133818928097	-1850.0	2124.0	-8.448634346941915	
0.7607398700574157	1728.0	11.788272720027289	1104.0	2028.0	3.797589720570999	0.0	1036.56005859375	33966.0	0.49	717.0	-422.0	-0.024291497975708502	0.7874493927125507	-582.0	566.0	-46.49028903502065	31.657926505522465	-1941.0	2901.0	-9.519234759802838	
1.1746686686232963	1751.0	11.51448590994865	1126.0	1993.0	3.5191448386201456	0.0	1056.09130859375	34606.0	0.49	717.0	-422.0	-0.024291497975708502	0.7874493927125507	-582.0	641.0	-42.56002446857318	30.58939620555094	-1881.0	2644.0	-10.680756337161922	
1.6873395516435354	1764.0	11.591098021496412	1119.0	1950.0	3.3691772836572067	0.0	1075.62255859375	35246.0	0.49	717.0	-422.0	-0.024291497975708502	0.7874493927125507	-582.0	664.0	-23.505123107508794	28.046642787056296	-1765.0	1398.0	-11.059106995483742	
1.11518090531621	1771.0	11.518090531621004	1126.0	1998.0	3.277658197998835	0.0	1095.15380859375	35886.0	0.49	717.0	-422.0	-0.024291497975708502	0.7874493927125507	-582.0	720.0	-9.145129224652088	24.17403969267082	-1550.0	459.0	-11.957124111282592	
1.1394708460037746	1769.0	11.56613221942508	1122.0	1996.0	3.302958316703961	0.0	1114.68505859375	36526.0	0.52	729.0	-404.0	0.012145748987854251	0.7591093117408907	-568.0	783.0	-20.84416577458327	23.436544267017084	-1471.0	1224.0	-12.931201536000998	
2.231698380582819	1780.0	11.265076153519992	1145.0	1904.0	3.1753293502497217	0.0	1134.21630859375	37166.0	0.52	729.0	-404.0	0.012145748987854251	0.7591093117408907	-568.0	928.0	-24.545037467502677	22.59168469559934	-1405.0	1466.0	-15.164600262143287	
3.0262447626559346	1791.0	10.957809598926794	1169.0	1837.0	3.044599362496661	0.0	1153.74755859375	37806.0	0.52	729.0	-404.0	0.012145748987854251	0.7591093117408907	-568.0	868.0	0.21410001529285827	20.054141371946315	-1305.0	-153.0	-14.269306675892322	
2.490984549979892	1775.0	11.003216902751102	1166.0	1882.0	3.2329259907837367	0.0	1173.27880859375	38446.0	0.55	741.0	-396.0	0.02834008097165992	0.7267206477732794	-552.0	703.0	35.081816791558346	15.80420550164602	-1121.0	-2433.0	-11.779966231004716	
1.7057745671616764	1759.0	11.05364719235811	1163.0	1948.0	3.418853581085044	0.0	1192.81005859375	39086.0	0.55	741.0	-396.0	0.02834008097165992	0.7267206477732794	-552.0	683.0	51.536932252638024	12.928175750037047	-977.0	-3509.0	-11.501836855358308	
1.5388927650481912	1755.0	11.032133647676245	1165.0	1962.0	3.4649472632546092	0.0	1212.34130859375	39726.0	0.55	741.0	-396.0	0.02834008097165992	0.7267206477732794	-552.0	850.0	51.41458938675639	12.081991184405089	-920.0	-3501.0	-14.072827471921487	
1.7134115597211532	1760.0	10.6268702578296	1198.0	1947.0	3.3983462195489844	0.0	1231.87255859375	40366.0	0.55	741.0	-396.0	0.02834008097165992	0.7267206477732794	-552.0	1085.0	53.739103838507425	8.37984737161841	-683.0	-3653.0	-17.715802569708707	
1.601806338602681	1782.0	10.180633860268108	1235.0	1956.0	3.123245198422714	0.0	1251.40380859375	41006.0	0.5525	742.0	-413.0	-0.006072874493927126	0.7510121457489879	-564.0	1340.0	60.758525768466136	2.1089844512038356	-291.0	-4112.0	-21.691354531734703	
0.9081895584831651	1792.0	9.866574895935559	1262.0	2014.0	2.989545923624025	0.0	1270.93505859375	41646.0	0.5525	742.0	-413.0	-0.006072874493927126	0.7510121457489879	-564.0	1569.0	62.532497323749816	-3.5561721196053497	75.0	-4228.0	-25.2618928551534	
0.6690606936900827	1805.0	9.763212226151122	1271.0	2034.0	2.8284608755563085	0.0	1290.46630859375	42286.0	0.5525	742.0	-413.0	-0.006072874493927126	0.7510121457489879	-564.0	1794.0	47.62196054442576	-4.3556947542233315	168.0	-3253.0	-28.722396904577682	
1.1156526568684082	1831.0	9.184313305888455	1318.0	1996.0	2.508095804734646	0.0	1309.99755859375	42926.0	0.5675	748.0	-445.0	-0.0708502024291498	0.6923076923076923	-535.0	1999.0	31.518580822755776	-5.172099875169616	265.0	-2200.0	-31.876180105702748	
0.9791576180697017	1863.0	8.630047521255886	1364.0	2007.0	2.1101033699793086	0.0	1329.52880859375	43566.0	0.5675	748.0	-445.0	-0.0708502024291498	0.6923076923076923	-535.0	1962.0	21.471172962226643	-9.297849616855153	559.0	-1543.0	-31.349691707768987	
0.6720121422905067	1863.0	8.867880895717326	1345.0	2033.0	2.1117885827107457	0.0	1349.06005859375	44206.0	0.5675	748.0	-445.0	-0.0708502024291498	0.6923076923076923	-535.0	1776.0	15.415201101085794	-13.098538372067507	820.0	-1147.0	-28.533624634909874	
0.12144954188050916	1858.0	8.573525616622344	1370.0	2079.0	2.1606368149801676	0.0	1368.59130859375	44846.0	0.5925	758.0	-461.0	-0.10323886639676114	0.7145748987854251	-546.0	1542.0	4.11377886526992	-14.112835290988178	913.0	-408.0	-24.953158428097858	
0.6336436545810921	1880.0	8.602460696204442	1367.0	2036.0	1.90127721673496	0.0	1388.12255859375	45486.0	0.5925	758.0	-461.0	-0.10323886639676114	0.7145748987854251	-546.0	1484.0	-7.784064841718918	-13.445918799377267	900.0	370.0	-24.0565092110105	
0.8287451762278657	1906.0	9.064993813262754	1329.0	2020.0	1.5992258822444012	0.0	1407.65380859375	46126.0	0.5925	758.0	-461.0	-0.10323886639676114	0.7145748987854251	-546.0	1237.0	-9.970943569353112	-14.842136298327546	994.0	513.0	-20.28038392244315	
0.9547100834680233	1900.0	9.756722632516624	1272.0	2010.0	1.686609264328386	0.0	1427.18505859375	46766.0	0.5925	758.0	-461.0	-0.10323886639676114	0.7145748987854251	-546.0	637.0	-6.423000458785748	-19.151985894207947	1259.0	281.0	-11.116792223527012	
-0.0231188138189473	1895.0	9.592880522867175	1287.0	2092.0	1.7337950970179492	0.0	1446.71630859375	47406.0	0.59	757.0	-460.0	-0.10121457489878542	0.6902834008097166	-534.0	-51.0	8.22755773053984	-23.304169050110346	1484.0	-677.0	-0.6013092982961012	
0.07669439772316386	1900.0	8.859915962792577	1347.0	2083.0	1.6598929740764568	0.0	1466.24755859375	48046.0	0.59	757.0	-460.0	-0.10121457489878542	0.6902834008097166	-534.0	-219.0	15.675179691084265	-26.580916772184658	1676.0	-1164.0	1.94379647904814	
0.583965447839548	1883.0	8.396544783954798	1384.0	2040.0	1.8605175381092987	0.0	1485.77880859375	48686.0	0.59	757.0	-460.0	-0.10121457489878542	0.6902834008097166	-534.0	48.0	8.686343477595964	-30.859258134692983	1975.0	-707.0	-2.195964071296293	
0.34810867675528384	1880.0	8.620391485052192	1366.0	2060.0	1.8987804827336567	0.0	1505.31005859375	49326.0	0.5975	760.0	-479.0	-0.1396761133603239	0.6538461538461539	-516.0	562.0	-3.4867716776265487	-37.16869719007555	2422.0	89.0	-10.14612306212632	
0.4119087866268544	1898.0	9.048021519828296	1331.0	2055.0	1.6911036146483764	0.0	1524.84130859375	49966.0	0.5975	760.0	-479.0	-0.1396761133603239	0.6538461538461539	-516.0	1287.0	-15.13992965285212	-39.021533404719996	2580.0	851.0	-21.289402076413324	
1.6978571740500832	1902.0	9.071431690722632	1327.0	1947.0	1.6562385308561582	0.0	1544.37255859375	50606.0	0.5975	760.0	-479.0	-0.1396761133603239	0.6538461538461539	-516.0	1749.0	-14.497629606973545	-37.97659220866306	2515.0	809.0	-28.36810411450646	
1.7046432589255105	1905.0	8.559563987789135	1369.0	1946.0	1.6099244593329893	0.0	1563.90380859375	51246.0	0.5975	760.0	-479.0	-0.1396761133603239	0.6538461538461539	-516.0	1695.0	-1.2234286588163328	-42.73010711070615	2789.0	-59.0	-27.587037145988145	
1.5976438312012544	1905.0	8.573906929649242	1368.0	1955.0	1.609141323892949	0.0	1583.43505859375	51886.0	0.6225	770.0	-495.0	-0.17206477732793524	0.6214574898785425	-500.0	1723.0	4.067900290564307	-43.660336487904374	2836.0	-405.0	-28.025984982187627	
0.8486755368672412	1928.0	8.67707749624792	1361.0	2018.0	1.3266066185466427	0.0	1602.96630859375	52526.0	0.6225	770.0	-495.0	-0.17206477732793524	0.6214574898785425	-500.0	1962.0	14.130601009328645	-46.410144797023094	2991.0	-1063.0	-31.720814659570664	
0.002412329746573849	1948.0	8.57456630799072	1371.0	2089.0	1.0751299072886054	0.0	1622.49755859375	53166.0	0.6225	770.0	-495.0	-0.17206477732793524	0.6214574898785425	-500.0	1924.0	28.33766630983331	-45.861409017821835	2918.0	-1992.0	-31.132236922769902	
0.5595123930132949	1952.0	8.332191682281872	1390.0	2042.0	1.0276606443227583	0.0	1642.02880859375	53806.0	0.6325000000000001	774.0	-531.0	-0.24493927125506074	0.5870445344129555	-483.0	2028.0	27.802416271601164	-41.31749622132517	2625.0	-1957.0	-32.68262409524993	
0.5747446648731187	1984.0	8.664942677788062	1363.0	2041.0	0.6489258182767816	0.0	1661.56005859375	54446.0	0.6325000000000001	774.0	-531.0	-0.24493927125506074	0.5870445344129555	-483.0	2250.0	23.581587398684817	-44.72908564167038	2860.0	-1681.0	-36.123215361557115	
-0.3520470349238073	1991.0	8.84291555523832	1350.0	2119.0	0.5588800094302271	0.0	1681.09130859375	55086.0	0.6325000000000001	774.0	-531.0	-0.24493927125506074	0.5870445344129555	-483.0	2201.0	24.575623183973086	-49.35981296500857	3158.0	-1746.0	-35.417642935542375	
0.038915887949200194	2002.0	8.653493556824781	1365.0	2086.0	0.42647107820875874	0.0	1700.62255859375	55726.0	0.65	781.0	-561.0	-0.305668016194332	0.5303643724696356	-455.0	2155.0	23.62746597339043	-49.34432893635566	3159.0	-1684.0	-34.71164184698209	
-0.22339857048334072	2023.0	8.612523904046881	1369.0	2108.0	0.17001649237610422	0.0	1720.15380859375	56366.0	0.65	781.0	-561.0	-0.305668016194332	0.5303643724696356	-455.0	2177.0	20.981801498700108	-47.22026437351245	3028.0	-1511.0	-35.02797984183241	
0.04972715860758484	2007.0	8.544144432187055	1374.0	2085.0	0.3641512445671663	0.0	1739.68505859375	57006.0	0.65	781.0	-561.0	-0.305668016194332	0.5303643724696356	-455.0	1947.0	19.95717999694143	-45.69188202449678	2929.0	-1444.0	-31.483464776973527	
0.18067370239980643	2024.0	8.543560716171118	1374.0	2074.0	0.1606297585763361	0.0	1759.21630859375	57646.0	0.65	781.0	-561.0	-0.305668016194332	0.5303643724696356	-455.0	1923.0	19.284294234592448	-45.34565666603609	2908.0	-1400.0	-31.111734915593924	
-0.27502601027534956	2027.0	8.21168468675076	1402.0	2112.0	0.11329066254792435	0.0	1778.74755859375	58286.0	0.665	787.0	-586.0	-0.35627530364372473	0.5161943319838057	-448.0	1878.0	26.487230463373606	-45.42531968214487	2894.0	-1871.0	-30.42202978113939	
-0.37230526668960656	2037.0	8.007568569134586	1419.0	2120.0	-0.012246380079385055	0.0	1798.27880859375	58926.0	0.665	787.0	-586.0	-0.35627530364372473	0.5161943319838057	-448.0	1787.0	41.78008869857777	-45.404945075981495	2852.0	-2871.0	-29.025478022188388	
-0.17883905754581636	2021.0	8.306570435894558	1394.0	2104.0	0.18843940368460166	0.0	1817.81005859375	59566.0	0.665	787.0	-586.0	-0.35627530364372473	0.5161943319838057	-448.0	1659.0	43.141153081510936	-42.402879020029424	2652.0	-2960.0	-27.03136345338888	
-0.4114902377863785	2048.0	8.850976221362151	1350.0	2124.0	-0.1283001972277292	0.0	1837.34130859375	60206.0	0.6475	780.0	-615.0	-0.4149797570850203	0.46153846153846156	-421.0	1930.0	38.20155987153999	-47.83921794551091	3021.0	-2637.0	-31.244081913995547	
-0.23038751259661794	2054.0	9.104105883195345	1329.0	2109.0	-0.19371573336567374	0.0	1856.87255859375	60846.0	0.6475	780.0	-615.0	-0.4149797570850203	0.46153846153846156	-421.0	2137.0	40.51078146505582	-50.237685711790206	3173.0	-2788.0	-34.444374708890194	
-0.7308544127925016	2089.0	9.057415863606982	1334.0	2151.0	-0.6213409497473517	0.0	1876.40380859375	61486.0	0.6475	780.0	-615.0	-0.4149797570850203	0.46153846153846156	-421.0	2005.0	53.38736809909773	-49.77320416622401	3108.0	-3630.0	-32.41425805056205	
-2.0375660034940823	2080.0	9.338637745829852	1313.0	2261.0	-0.5203498930701509	0.0	1895.93505859375	62126.0	0.6475	780.0	-615.0	-0.4149797570850203	0.46153846153846156	-421.0	1867.0	68.86374063312434	-46.229817097078154	2836.0	-4642.0	-30.26128543504935	
-2.2762747017754053	2037.0	9.277291727221362	1318.0	2281.0	-0.005891611268507485	0.0	1915.46630859375	62766.0	0.64	777.0	-649.0	-0.48380566801619435	0.4109311740890688	-396.0	1543.0	58.17403272671663	-42.1452313852117	2595.0	-3943.0	-25.248826872698213	
-1.351826407598379	2072.0	10.055454478257346	1253.0	2204.0	-0.4027706202939694	0.0	1934.99755859375	63406.0	0.64	777.0	-649.0	-0.48380566801619435	0.4109311740890688	-396.0	2201.0	30.601009328643528	-38.388266128469354	2429.0	-2140.0	-35.30792746717698	
-2.287833808649868	2083.0	10.502333420727489	1218.0	2283.0	-0.5357232359370091	0.0	1954.52880859375	64046.0	0.64	777.0	-649.0	-0.48380566801619435	0.4109311740890688	-396.0	2432.0	31.885609420400677	-37.40445657833324	2364.0	-2224.0	-38.84266509670247	
-2.923291707802343	2083.0	10.051781600718114	1256.0	2336.0	-0.5510888513287213	0.0	1974.06005859375	64686.0	0.63	773.0	-679.0	-0.5445344129554656	0.3441295546558705	-363.0	2179.0	31.27389509099251	-36.726676127041685	2319.0	-2184.0	-34.95373292668396	
-2.580771107595392	2111.0	9.780032097603652	1278.0	2307.0	-0.8904480329793025	0.0	1993.59130859375	65326.0	0.63	773.0	-679.0	-0.5445344129554656	0.3441295546558705	-363.0	2702.0	19.712494265178165	-35.87640849354472	2299.0	-1428.0	-42.97039520354831	
-2.614378178156445	2134.0	9.990753612926946	1261.0	2310.0	-1.163678107113387	0.0	2013.12255859375	430.0	0.63	773.0	-679.0	-0.5445344129554656	0.3441295546558705	-363.0	3048.0	11.729622266401591	-39.57992730272417	2564.0	-906.0	-48.31662173735132	
-2.63359227969105	2136.0	9.25981964994264	1321.0	2311.0	-1.202585312930588	0.0	2032.65380859375	1070.0	0.6375000000000001	776.0	-684.0	-0.5546558704453441	0.2874493927125506	-335.0	3069.0	11.163786511699037	-44.01448025226113	2854.0	-869.0	-48.68320142366732	
-1.941057667108435	2175.0	8.275185670108856	1401.0	2252.0	-1.6852321644737265	0.0	2052.18505859375	1710.0	0.6375000000000001	776.0	-684.0	-0.5546558704453441	0.2874493927125506	-335.0	3581.0	8.808686343477596	-47.4869582270997	3091.0	-715.0	-56.57430183637565	
-2.0732608330604076	2228.0	8.150107170149743	1412.0	2263.0	-2.327609982999898	0.0	2071.71630859375	2350.0	0.6375000000000001	776.0	-684.0	-0.5546558704453441	0.2874493927125506	-335.0	4150.0	13.090686649334762	-50.308686256008436	3269.0	-995.0	-65.33353031813782	
-2.5187636041059074	2232.0	7.647449113218768	1454.0	2300.0	-2.39031094293331	0.0	2091.24755859375	2990.0	0.6375000000000001	776.0	-684.0	-0.5546558704453441	0.2874493927125506	-335.0	4224.0	28.872916348065456	-50.05185802244115	3212.0	-2027.0	-66.46645382650338	
-1.791943059228363	2269.0	7.710455981925606	1448.0	2239.0	-2.827565732640519	0.0	2110.77880859375	3630.0	0.63	773.0	-700.0	-0.5870445344129555	0.20647773279352227	-295.0	4105.0	16.8986083499006	-49.914186631787324	3233.0	-1244.0	-64.63908355727997	
-2.3269221328045697	2284.0	7.7839771957334865	1443.0	2284.0	-3.012167990666388	0.0	2130.31005859375	4270.0	0.63	773.0	-700.0	-0.5870445344129555	0.20647773279352227	-295.0	4166.0	4.37375745526839	-52.52616778646686	3436.0	-425.0	-65.6012168719724	
-2.499550205450524	2266.0	7.187836597804705	1492.0	2298.0	-2.808949613471905	0.0	2149.84130859375	4910.0	0.63	773.0	-700.0	-0.5870445344129555	0.20647773279352227	-295.0	3593.0	13.38125095580364	-53.02048873240909	3439.0	-1014.0	-56.81377094532625	
-1.7668559045348529	2257.0	6.647742879848055	1535.0	2236.0	-2.7039908098821224	0.0	2169.37255859375	5550.0	0.6425	778.0	-709.0	-0.6052631578947368	0.09716599190283401	-241.0	3384.0	12.341336595809757	-48.04299348859301	3116.0	-946.0	-53.55699890833998	
-2.3328748735839038	2301.0	7.188703117800067	1492.0	2284.0	-3.2289522767412833	0.0	2188.90380859375	6190.0	0.6425	778.0	-709.0	-0.6052631578947368	0.09716599190283401	-241.0	3171.0	6.790029056430647	-45.1158773473317	2938.0	-583.0	-50.25935272774676	
-2.7935285230753446	2304.0	7.551909597227458	1463.0	2323.0	-3.262439261960903	0.0	2208.43505859375	6830.0	0.6425	778.0	-709.0	-0.6052631578947368	0.09716599190283401	-241.0	2879.0	8.625172044655146	-42.91158980629368	2787.0	-703.0	-45.756720624163904	
-1.7815941068535763	2295.0	7.554875028928101	1461.0	2238.0	-3.143826874224913	0.0	2227.96630859375	7470.0	0.6425	778.0	-709.0	-0.6052631578947368	0.09716599190283401	-241.0	2785.0	-1.131671509405108	-38.8444068647152	2547.0	-65.0	-44.27366733088438	
-1.1826580953153147	2327.0	7.924666658944731	1430.0	2188.0	-3.515983850183897	0.0	2247.49755859375	8110.0	0.6375000000000001	776.0	-725.0	-0.6376518218623481	0.012145748987854251	-199.0	2708.0	-14.130601009328645	-32.06098573425498	2139.0	785.0	-43.024307877904164	
-2.413009521001649	2376.0	8.699047899835069	1369.0	2292.0	-4.103161185406086	0.0	2267.02880859375	8750.0	0.6375000000000001	776.0	-725.0	-0.6376518218623481	0.012145748987854251	-199.0	2705.0	-5.0466432176173734	-25.21121463057846	1670.0	191.0	-42.909776715893024	
-2.5320729641685125	2343.0	8.69746548791065	1369.0	2302.0	-3.70679310663046	0.0	2286.56005859375	9390.0	0.6375000000000001	776.0	-725.0	-0.6376518218623481	0.012145748987854251	-199.0	2138.0	1.4681143905795995	-22.328824130492656	1460.0	-235.0	-34.180630576735346	
-1.535661857963623	2364.0	8.338576108399616	1397.0	2218.0	-3.9570188313514034	0.0	2306.09130859375	10030.0	0.64	777.0	-715.0	-0.6174089068825911	-0.048582995951417005	-169.0	2227.0	-16.9139012081358	-22.902702932299807	1546.0	967.0	-35.55202841032653	
-1.8316038606749667	2391.0	8.506280599170006	1384.0	2243.0	-4.281925366382386	0.0	2325.62255859375	10670.0	0.64	777.0	-715.0	-0.6174089068825911	-0.048582995951417005	-169.0	2089.0	-5.398378957027069	-20.723588064211032	1373.0	214.0	-33.412698516824406	
-1.6430017016348015	2385.0	8.318877455567462	1399.0	2227.0	-4.211498251037528	0.0	2345.15380859375	11310.0	0.64	777.0	-715.0	-0.6174089068825911	-0.048582995951417005	-169.0	1781.0	-5.398378957027069	-16.694955982617675	1108.0	214.0	-28.646311229306	
-1.4541424902215656	2390.0	8.157179549272014	1412.0	2211.0	-4.273084580904728	0.0	2364.68505859375	11950.0	0.6525	782.0	-714.0	-0.6153846153846154	-0.08097165991902834	-153.0	1698.0	1.0093286435234747	-14.68762810591514	960.0	-205.0	-27.352645806914612	
-2.0483835874765814	2410.0	8.256879347579932	1405.0	2261.0	-4.517996851332805	0.0	2384.21630859375	12590.0	0.6525	782.0	-714.0	-0.6153846153846154	-0.08097165991902834	-153.0	1570.0	3.211500229392874	-12.841994863388624	833.0	-349.0	-25.370095566249354	
-1.8451827549867337	2416.0	8.33886735846951	1398.0	2244.0	-4.586614239416622	0.0	2403.74755859375	13230.0	0.6525	782.0	-714.0	-0.6153846153846154	-0.08097165991902834	-153.0	1508.0	0.474078605291329	-12.711260153993965	831.0	-170.0	-24.417430232351663	
-1.60664774550463	2416.0	8.38284449715606	1394.0	2224.0	-4.5833493465480695	0.0	2423.27880859375	13870.0	0.6525	782.0	-714.0	-0.6153846153846154	-0.08097165991902834	-153.0	1600.0	5.1842789417342106	-13.439239404413494	867.0	-478.0	-25.83640252140335	
-1.7056227956052954	2435.0	8.009149010899037	1425.0	2232.0	-4.8207286694248195	0.0	2442.81005859375	14510.0	0.6425	778.0	-717.0	-0.6214574898785425	-0.12550607287449392	-131.0	1452.0	7.401743385838814	-11.474240718414066	732.0	-623.0	-23.545768953140872	
-1.7768958439278293	2451.0	8.024701321502793	1424.0	2238.0	-5.013901438033319	0.0	2462.34130859375	15150.0	0.6425	778.0	-717.0	-0.6214574898785425	-0.12550607287449392	-131.0	1133.0	7.172350512310752	-9.622182499335471	609.0	-608.0	-18.63235808400824	
-2.0236894010161683	2440.0	8.345345612668922	1398.0	2259.0	-4.877426367298952	0.0	2481.87255859375	15790.0	0.6425	778.0	-717.0	-0.6214574898785425	-0.12550607287449392	-131.0	794.0	7.600550542896468	-10.537260481025058	664.0	-636.0	-13.439728903720793	
-1.7877095232588904	2444.0	8.133809578872873	1415.0	2239.0	-4.927490060281637	0.0	2501.40380859375	16430.0	0.64	777.0	-722.0	-0.631578947368421	-0.1194331983805668	-134.0	1010.0	3.4561859611561405	-10.63059520839211	683.0	-365.0	-16.755070721149444	
-1.4810396134630135	2454.0	7.848419606079593	1438.0	2213.0	-5.050613088350388	0.0	2520.93505859375	17070.0	0.64	777.0	-722.0	-0.631578947368421	-0.1194331983805668	-134.0	786.0	4.756078911148494	-10.009441236482996	637.0	-450.0	-13.311694842010374	
-1.335887802966914	2460.0	8.077886369975278	1419.0	2201.0	-5.116861391594019	0.0	2540.46630859375	17710.0	0.64	777.0	-722.0	-0.631578947368421	-0.1194331983805668	-134.0	590.0	13.580058112861295	-10.315533738847263	632.0	-1027.0	-10.307236970041536	
-2.1775319689936445	2469.0	8.437279291111732	1391.0	2272.0	-5.226523709771316	0.0	2559.99755859375	18350.0	0.64	777.0	-722.0	-0.631578947368421	-0.1194331983805668	-134.0	726.0	18.90197277871234	-10.968943953228425	662.0	-1375.0	-12.400620849690332	
-2.419004677919335	2459.0	8.099532208066494	1419.0	2292.0	-5.1152114508106346	0.0	2579.52880859375	18990.0	0.6275000000000001	772.0	-724.0	-0.6356275303643725	-0.15587044534412955	-116.0	691.0	7.01942192995871	-9.806927490389493	617.0	-598.0	-11.851943757027573	
-1.6114648264910638	2465.0	7.901136398512668	1434.0	2224.0	-5.183393125113934	0.0	2599.06005859375	19630.0	0.6275000000000001	772.0	-724.0	-0.6356275303643725	-0.15587044534412955	-116.0	678.0	-0.36702859764489987	-8.252275308826531	535.0	-115.0	-11.636918947656318	
-1.6205417647002163	2483.0	8.183918768073603	1411.0	2225.0	-5.394695716984325	0.0	2618.59130859375	20270.0	0.6275000000000001	772.0	-724.0	-0.6356275303643725	-0.15587044534412955	-116.0	855.0	3.502064535861753	-7.995348768626263	510.0	-368.0	-14.350323289742425	
-2.6080811986064805	2476.0	8.239499186971022	1408.0	2308.0	-5.319122153547848	0.0	2638.12255859375	20910.0	0.625	771.0	-723.0	-0.6336032388663968	-0.145748987854251	-121.0	705.0	4.847836060559719	-6.918635360083201	435.0	-456.0	-12.037883606938259	
-2.4760447598022113	2487.0	8.347904972159814	1399.0	2297.0	-5.448163793937958	0.0	2657.65380859375	21550.0	0.625	771.0	-723.0	-0.6336032388663968	-0.145748987854251	-121.0	796.0	-3.3950145282153237	-3.452707925535009	232.0	83.0	-13.399572345482143	
-2.451372251395886	2499.0	8.434203431839977	1392.0	2295.0	-5.590769412913304	0.0	2677.18505859375	22190.0	0.625	771.0	-723.0	-0.6336032388663968	-0.145748987854251	-121.0	933.0	-10.337972166998012	-3.907652378281356	281.0	537.0	-15.506316051172718	
-2.5037311052079456	2503.0	7.960222812538743	1431.0	2299.0	-5.648965384921786	0.0	2696.71630859375	22830.0	0.615	767.0	-719.0	-0.6255060728744939	-0.1396761133603239	-124.0	1169.0	-15.965743997553144	-4.215440953505571	318.0	905.0	-19.130692080242437	
-1.3941011434356891	2526.0	8.20893327547871	1409.0	2206.0	-5.910003309780203	0.0	2716.24755859375	23470.0	0.615	767.0	-719.0	-0.6255060728744939	-0.1396761133603239	-124.0	1095.0	-19.054901361064385	-3.4418702318984553	275.0	1107.0	-17.987464582325124	
-1.9117392109719336	2502.0	8.826078902806639	1359.0	2250.0	-5.613680151402984	0.0	2735.77880859375	24110.0	0.615	767.0	-719.0	-0.6255060728744939	-0.1396761133603239	-124.0	687.0	-4.694907478207678	-8.55459863317075	566.0	168.0	-11.778042533822884	
-1.366715206511202	2463.0	8.566574586975033	1379.0	2204.0	-5.143540479602719	0.0	2755.31005859375	24750.0	0.615	767.0	-719.0	-0.6255060728744939	-0.1396761133603239	-124.0	661.0	-7.2488148034867725	-9.24085797310084	617.0	335.0	-11.38594855211094	
-0.8778719458949295	2457.0	8.641376839078495	1372.0	2163.0	-5.064866845327982	0.0	2774.84130859375	25390.0	0.6275000000000001	772.0	-712.0	-0.611336032388664	-0.1680161943319838	-110.0	800.0	0.18351429882244993	-11.070246503418865	718.0	-151.0	-13.53712566589348	
-1.8630964397407028	2449.0	8.928451264024948	1350.0	2246.0	-4.972592059598835	0.0	2794.37255859375	26030.0	0.6275000000000001	772.0	-712.0	-0.611336032388664	-0.1680161943319838	-110.0	963.0	12.693072335219453	-13.86805711705347	869.0	-969.0	-16.066254608304185	
-1.9762102536801303	2433.0	8.331355584367934	1399.0	2255.0	-4.792894026994021	0.0	2813.90380859375	26670.0	0.6275000000000001	772.0	-712.0	-0.611336032388664	-0.1680161943319838	-110.0	1225.0	5.9030432787888065	-14.540650076942331	933.0	-525.0	-20.0932352563318	
-1.7296026931209065	2492.0	7.992111640290302	1427.0	2234.0	-5.508056203763957	0.0	2833.43505859375	27310.0	0.6225	770.0	-711.0	-0.6093117408906883	-0.19230769230769232	-98.0	1473.0	-1.0705000764642914	-13.131655251922687	862.0	-69.0	-23.88457725529658	
-1.918811955171771	2500.0	8.118804482822899	1417.0	2250.0	-5.603799981702489	0.0	2852.96630859375	27950.0	0.6225	770.0	-711.0	-0.6093117408906883	-0.19230769230769232	-98.0	1420.0	-0.9940357852882705	-11.758581307672134	772.0	-74.0	-23.05758888197345	
-1.5035867913469785	2486.0	7.974654198635491	1428.0	2215.0	-5.4338560369528075	0.0	2872.49755859375	28590.0	0.6225	770.0	-711.0	-0.6093117408906883	-0.19230769230769232	-98.0	1395.0	-8.059336289952594	-11.433691150761423	769.0	388.0	-22.670727888951227	
-0.6626704263312841	2480.0	7.5424811763953965	1462.0	2144.0	-5.361801177120946	0.0	2892.02880859375	29230.0	0.6225	770.0	-711.0	-0.6093117408906883	-0.19230769230769232	-98.0	1393.0	-6.713564765254627	-12.595234666775562	841.0	300.0	-22.651654356795117	
-0.9567646246110882	2523.0	7.894966110319748	1434.0	2169.0	-5.875764709581884	0.0	2911.56005859375	29870.0	0.605	763.0	-708.0	-0.6032388663967612	-0.21052631578947367	-89.0	1307.0	2.9056430646887907	-10.424580737552787	674.0	-329.0	-21.310322222904148	
-1.7073754574661142	2498.0	7.833882824817146	1440.0	2232.0	-5.583287664343379	0.0	2931.09130859375	30510.0	0.605	763.0	-708.0	-0.6032388663967612	-0.21052631578947367	-89.0	1006.0	5.750114696436764	-8.84651018170832	561.0	-515.0	-16.67585193625011	
-1.0933198802267068	2505.0	7.334678643995994	1480.0	2180.0	-5.671468541584997	0.0	2950.62255859375	31150.0	0.605	763.0	-708.0	-0.6032388663967612	-0.21052631578947367	-89.0	1223.0	0.9787429270530663	-9.683649240539259	630.0	-203.0	-20.01397628065152	
-0.8928806497085497	2546.0	7.140506457716468	1496.0	2163.0	-6.167323496619865	0.0	2970.15380859375	31790.0	0.6025	762.0	-708.0	-0.6032388663967612	-0.26720647773279355	-61.0	1293.0	7.692307692307693	-7.726602557847704	486.0	-642.0	-21.068519669893345	
-1.784830599205274	2543.0	7.231225793758327	1490.0	2238.0	-6.138284031080741	0.0	2989.68505859375	32430.0	0.6025	762.0	-708.0	-0.6032388663967612	-0.26720647773279355	-61.0	975.0	15.461079675791407	-4.6715951435386165	264.0	-1150.0	-16.158423792466536	
-1.7871780563468966	2517.0	6.996480079596054	1509.0	2238.0	-5.82974940788721	0.0	3009.21630859375	33070.0	0.6025	762.0	-708.0	-0.6032388663967612	-0.26720647773279355	-61.0	903.0	9.083957791711272	-5.627278141122885	342.0	-733.0	-15.063177799057387	
-0.6484851318880397	2489.0	6.580058239767468	1541.0	2142.0	-5.489341517848832	0.0	3028.74755859375	33710.0	0.6025	762.0	-714.0	-0.6153846153846154	-0.291497975708502	-49.0	894.0	4.572564612326044	-7.017053826156473	444.0	-438.0	-14.938975202984599	
-1.2880388341547193	2493.0	6.91040229881377	1515.0	2196.0	-5.53732294477491	0.0	3048.27880859375	34350.0	0.6025	762.0	-714.0	-0.6153846153846154	-0.291497975708502	-49.0	853.0	14.604679614619974	-6.9324061650009945	412.0	-1094.0	-14.309004896389924	
-1.4185991972191654	2493.0	6.949604087607265	1512.0	2207.0	-5.537844512629685	0.0	3067.81005859375	34990.0	0.6025	762.0	-714.0	-0.6153846153846154	-0.291497975708502	-49.0	858.0	14.834072488148037	-7.309950874523146	436.0	-1109.0	-14.38950276177577	
-1.3746479916286787	2492.0	6.582819884751172	1542.0	2203.0	-5.532692491859817	0.0	3087.34130859375	35630.0	0.6025	762.0	-714.0	-0.6153846153846154	-0.291497975708502	-49.0	977.0	12.953050925217925	-9.923464528809848	612.0	-986.0	-16.2416314536355	
-1.337810039160821	2520.0	6.695186560108375	1533.0	2200.0	-5.867426176418356	0.0	3106.87255859375	36270.0	0.5775	752.0	-720.0	-0.6275303643724697	-0.32388663967611336	-33.0	833.0	12.096650864046492	-8.06562050105903	492.0	-930.0	-14.013447366588004	
-1.9444362984239554	2544.0	6.746846348080688	1530.0	2251.0	-6.161615869757565	0.0	3126.40380859375	36910.0	0.5775	752.0	-720.0	-0.6275303643724697	-0.32388663967611336	-33.0	615.0	14.29882244991589	-7.7411055727025335	463.0	-1074.0	-10.665104779833209	
-1.7217806712780497	2582.0	6.3933614436235935	1559.0	2232.0	-6.624290336876453	0.0	3145.93505859375	37550.0	0.5775	752.0	-720.0	-0.6275303643724697	-0.32388663967611336	-33.0	638.0	10.873222205230158	-6.462393785378232	389.0	-850.0	-11.00524078609684	
-1.0423450711356472	2603.0	6.479778600720995	1551.0	2175.0	-6.868779685925852	0.0	3165.46630859375	38190.0	0.5675	748.0	-728.0	-0.6437246963562753	-0.32793522267206476	-31.0	422.0	10.84263648875975	-2.572229992179613	134.0	-848.0	-7.651930678009874	
-2.108527858860145	2630.0	7.00435697112837	1510.0	2265.0	-7.1942511512142255	0.0	3184.99755859375	38830.0	0.5675	748.0	-728.0	-0.6437246963562753	-0.32793522267206476	-31.0	-44.0	21.731151552225114	0.4121961656657649	-93.0	-1560.0	-0.4715570317452144	
-2.8710217923405295	2621.0	6.945439813566123	1516.0	2329.0	-7.094620698760517	0.0	3204.52880859375	39470.0	0.5675	748.0	-728.0	-0.6437246963562753	-0.32793522267206476	-31.0	-376.0	13.38125095580364	2.6485704747146874	-220.0	-1014.0	4.645175285842743	
-1.609621602314274	2615.0	6.8949826257154605	1518.0	2223.0	-7.010726683990761	0.0	3224.06005859375	40110.0	0.5675	748.0	-728.0	-0.6437246963562753	-0.32793522267206476	-31.0	-481.0	-3.63970025997859	2.7287633385966528	-182.0	99.0	6.257147998584679	
-1.2856928457159482	2619.0	7.145001142690893	1497.0	2196.0	-7.0506797971696065	0.0	3243.59130859375	40750.0	0.5625	746.0	-736.0	-0.659919028340081	-0.3299595141700405	-30.0	-298.0	1.5445786817556202	2.5341098024904767	-181.0	-240.0	3.447160953786759	
-2.056704787848315	2586.0	7.424759310406581	1475.0	2261.0	-6.655204391790833	0.0	3263.12255859375	41390.0	0.5625	746.0	-736.0	-0.659919028340081	-0.3299595141700405	-30.0	-155.0	10.123872151705156	1.8283950246817209	-156.0	-801.0	1.2458426428968097	
-1.4130425362248262	2552.0	7.50527018704121	1467.0	2207.0	-6.237518997525038	0.0	3282.65380859375	42030.0	0.5625	746.0	-736.0	-0.659919028340081	-0.3299595141700405	-30.0	126.0	3.1656216546872615	1.7960545533388022	-133.0	-346.0	-3.0662806697497182	
-1.6622753443830067	2540.0	7.58198937122314	1461.0	2228.0	-6.093898628669969	0.0	3302.18505859375	42670.0	0.56	745.0	-731.0	-0.6497975708502024	-0.2894736842105263	-50.0	490.0	2.966814497629607	0.7524432015671993	-61.0	-333.0	-8.662108834824899	
-1.8657175728735287	2536.0	7.475861760266173	1470.0	2245.0	-6.049862832089676	0.0	3321.71630859375	43310.0	0.56	745.0	-731.0	-0.6497975708502024	-0.2894736842105263	-50.0	761.0	-0.6881786205841872	0.7094970383537867	-46.0	-94.0	-12.820893367808884	
-1.7345464937893686	2537.0	7.497731573444095	1468.0	2234.0	-6.060161917806361	0.0	3341.24755859375	43950.0	0.56	745.0	-731.0	-0.6497975708502024	-0.2894736842105263	-50.0	926.0	-9.466279247591375	1.3166124831973003	-61.0	480.0	-15.346662016951058	
-1.9963962252656353	2539.0	7.50323461629362	1468.0	2256.0	-6.0867667398063015	0.0	3360.77880859375	44590.0	0.56	745.0	-728.0	-0.6437246963562753	-0.305668016194332	-42.0	949.0	-12.433093745220983	2.8230660486181374	-151.0	674.0	-15.684520605433722	
-1.9486792949379383	2527.0	7.51302288715855	1467.0	2252.0	-5.941515491832713	0.0	3380.31005859375	45230.0	0.56	745.0	-728.0	-0.6437246963562753	-0.305668016194332	-42.0	927.0	-16.45511546107968	4.410961487588987	-244.0	937.0	-15.331063010565266	
-1.3756480628724748	2536.0	7.673288950847767	1453.0	2204.0	-6.041013593178034	0.0	3399.84130859375	45870.0	0.56	745.0	-728.0	-0.6437246963562753	-0.305668016194332	-42.0	999.0	-19.024315644593976	4.186390504796376	-222.0	1105.0	-16.438111543778184	
-1.6723515880123254	2538.0	7.764841198767451	1446.0	2229.0	-6.066245969013207	0.0	3419.37255859375	46510.0	0.56	745.0	-728.0	-0.6437246963562753	-0.305668016194332	-42.0	916.0	-12.815415201101088	4.84816732102601	-282.0	699.0	-15.157901631991521	
-1.948052922545827	2541.0	7.575660126369675	1462.0	2252.0	-6.1089311821197505	0.0	3438.90380859375	47150.0	0.5750000000000001	751.0	-718.0	-0.6234817813765182	-0.32186234817813764	-34.0	841.0	-6.912371922312281	3.816145736165216	-231.0	313.0	-14.01738557348076	
-1.8563643129098937	2545.0	7.220711566153513	1491.0	2244.0	-6.1633060383120535	0.0	3458.43505859375	47790.0	0.5750000000000001	751.0	-718.0	-0.6234817813765182	-0.32186234817813764	-34.0	926.0	-2.9209359229239946	1.5008655425634903	-90.0	52.0	-15.344819486357395	
