Device	Device	Device	Device	Device	Device	Device	Device	Device	Device	Device	Device	Device	Device	Device	Device	Device	Device	Device	Device	Device	
Low Noise Accelerometer X	Low Noise Accelerometer X	Low Noise Accelerometer Z	Low Noise Accelerometer Z	Low Noise Accelerometer Y	Low Noise Accelerometer Y	Event_Marker	Timestamp	Timestamp	Magnetometer Z	Magnetometer Z	Magnetometer X	Magnetometer X	Magnetometer Y	Magnetometer Y	Gyroscope Y	Gyroscope Y	Gyroscope Z	Gyroscope Z	Gyroscope X	Gyroscope X	
CAL	UNCAL	UNCAL	CAL	CAL	UNCAL	CAL	CAL	UNCAL	CAL	UNCAL	UNCAL	CAL	CAL	UNCAL	CAL	UNCAL	UNCAL	CAL	UNCAL	CAL	
m/(s^2)	no units	no units	m/(s^2)	m/(s^2)	no units	no units	ms	no units	local_flux	no units	no units	local_flux	local_flux	no units	deg/s	no units	no units	deg/s	no units	deg/s	
0.32624879095956394	1940.0	1253.0	10.00583147690877	1.203379117447771	2063.0	0.0	1555.96923828125	50986.0	0.7375	816.0	-451.0	-0.08299595141700405	-0.6275303643724697	117.0	-5.9030432787888065	-39.0	-1349.0	20.836393362661944	247.0	-0.34403747806587714	
0.5888383668102494	1945.0	1247.0	10.074312871501125	1.1471336772427032	2041.0	0.0	1575.50048828125	51626.0	0.7375	816.0	-451.0	-0.08299595141700405	-0.6275303643724697	117.0	-3.9608502829178778	32.0	-1311.0	20.185139893949344	120.0	-1.4400083524798712	
0.6368135538473555	1945.0	1244.0	10.109926813306975	1.1483257079491913	2037.0	0.0	1595.03173828125	52266.0	0.73	813.0	-456.0	-0.0931174089068826	-0.6295546558704453	118.0	0.4434928888209207	-1.0	-1332.0	20.32691553648888	-168.0	-0.9322226353363543	
0.5766789444304082	1934.0	1249.0	10.048846823993204	1.2790328825506743	2042.0	0.0	1614.56298828125	52906.0	0.73	813.0	-456.0	-0.0931174089068826	-0.6295546558704453	118.0	3.1809145129224654	-42.0	-1370.0	20.79560602179836	-347.0	-0.2984119005001383	
0.5531168047538801	1933.0	1247.0	10.073585237292768	1.2913402221909844	2044.0	0.0	1634.09423828125	53546.0	0.73	813.0	-456.0	-0.0931174089068826	-0.6295546558704453	118.0	2.4009787429270535	-20.0	-1454.0	22.122155490378212	-296.0	-0.6227250462930878	
0.4342113940138391	1930.0	1246.0	10.087806068050577	1.326580163011993	2054.0	0.0	1653.62548828125	54186.0	0.7525000000000001	822.0	-451.0	-0.08299595141700405	-0.582995951417004	95.0	2.4468573176326656	29.0	-1526.0	23.2352497546607	-299.0	-1.3634738028983833	
0.41065286734632567	1932.0	1244.0	10.112905782251616	1.3027501864871702	2056.0	0.0	1673.15673828125	54826.0	0.7525000000000001	822.0	-451.0	-0.08299595141700405	-0.582995951417004	95.0	1.1010857929346995	29.0	-1554.0	23.71973513588453	-211.0	-1.3586289490861447	
0.49396945739371667	1932.0	1244.0	10.111231453657384	1.3035498658157594	2049.0	0.0	1692.68798828125	55466.0	0.7525000000000001	822.0	-451.0	-0.08299595141700405	-0.582995951417004	95.0	1.7739715552836828	58.0	-1573.0	23.989505357440226	-255.0	-1.8009212729562105	
0.3979056113371969	1939.0	1251.0	10.028656371814925	1.2166003763207547	2057.0	0.0	1712.21923828125	56106.0	0.7525000000000001	822.0	-451.0	-0.08299595141700405	-0.582995951417004	95.0	4.159657439975532	66.0	-1533.0	23.280086467242743	-411.0	-1.9307713311231844	
0.445023869008562	1936.0	1255.0	9.978577377046676	1.2522145573153565	2053.0	0.0	1731.75048828125	56746.0	0.7425	818.0	-461.0	-0.10323886639676114	-0.5991902834008097	103.0	4.954886068206148	95.0	-1457.0	22.08379593618367	-463.0	-2.387724262519397	
0.551539300395132	1939.0	1260.0	9.915834801417967	1.2158802818033951	2044.0	0.0	1751.28173828125	57386.0	0.7425	818.0	-461.0	-0.10323886639676114	-0.5991902834008097	103.0	5.383086098791865	149.0	-1443.0	21.859624888853347	-491.0	-3.2185680905314453	
0.42194933867873463	1935.0	1249.0	10.052076725016319	1.2655019917425354	2055.0	0.0	1770.81298828125	58026.0	0.7425	818.0	-461.0	-0.10323886639676114	-0.5991902834008097	103.0	6.560636182902585	112.0	-1506.0	22.775835485217353	-568.0	-2.6416600892171833	
0.31532525265520994	1943.0	1245.0	10.103953836949568	1.1690877509522903	2064.0	0.0	1790.34423828125	58666.0	0.74	817.0	-468.0	-0.11740890688259109	-0.576923076923077	92.0	3.670285976448999	91.0	-1571.0	23.887962116755286	-379.0	-2.308304666081181	
0.4808661290652682	1947.0	1254.0	9.991374811288726	1.1202988081188368	2050.0	0.0	1809.87548828125	59306.0	0.74	817.0	-468.0	-0.11740890688259109	-0.576923076923077	92.0	2.1562930111637866	147.0	-1532.0	23.35726010990924	-280.0	-3.1729027710046367	
0.6833247085080212	1944.0	1253.0	9.999137517468778	1.1586232263501184	2033.0	0.0	1829.40673828125	59946.0	0.74	817.0	-468.0	-0.11740890688259109	-0.576923076923077	92.0	5.29132894938064	63.0	-1454.0	22.019287690336316	-485.0	-1.8973458679178739	
0.7783034768978465	1947.0	1255.0	9.973204832641802	1.122909782024224	2025.0	0.0	1848.93798828125	60586.0	0.74	817.0	-468.0	-0.11740890688259109	-0.576923076923077	92.0	8.074629148187798	86.0	-1455.0	21.926876403638854	-667.0	-2.2511931049217213	
0.7427122475325201	1942.0	1254.0	9.985510467537729	1.183040946283911	2028.0	0.0	1868.46923828125	61226.0	0.7475	820.0	-486.0	-0.15384615384615385	-0.5850202429149798	96.0	9.863893561706684	44.0	-1544.0	23.217752207127376	-784.0	-1.5938160332455897	
0.3149655673268756	1948.0	1248.0	10.06798530411613	1.1081238195869165	2064.0	0.0	1888.00048828125	61866.0	0.7475	820.0	-486.0	-0.15384615384615385	-0.5850202429149798	96.0	8.181679155834226	18.0	-1722.0	26.018811413182636	-674.0	-1.1668488660737897	
0.49325851709141555	1949.0	1250.0	10.040137423427272	1.0973015986997006	2049.0	0.0	1907.53173828125	62506.0	0.7475	820.0	-486.0	-0.15384615384615385	-0.5850202429149798	96.0	0.0764642911760208	105.0	-1829.0	28.00207201316374	-144.0	-2.4819863383308456	
0.9091148706536724	1953.0	1256.0	9.959106112986285	1.051646764942166	2014.0	0.0	1927.06298828125	63146.0	0.73	813.0	-483.0	-0.14777327935222673	-0.5931174089068826	100.0	-0.9787429270530663	242.0	-1848.0	28.357529427574043	-75.0	-4.580626025349854	
0.7440712382810207	1957.0	1243.0	10.121409542387791	1.0050496261221324	2028.0	0.0	1946.59423828125	63786.0	0.73	813.0	-483.0	-0.14777327935222673	-0.5931174089068826	100.0	7.998164857011776	184.0	-1846.0	27.958828687994124	-662.0	-3.6946329805744096	
0.2219396449965296	1947.0	1230.0	10.289202594891055	1.123666098950196	2072.0	0.0	1966.12548828125	64426.0	0.73	813.0	-483.0	-0.14777327935222673	-0.5931174089068826	100.0	10.123872151705156	146.0	-1907.0	28.8062019370634	-801.0	-3.10306886907497	
0.18648236133126073	1952.0	1228.0	10.31490279979274	1.0635845663561554	2075.0	0.0	1985.65673828125	65066.0	0.7275	812.0	-499.0	-0.18016194331983806	-0.597165991902834	102.0	2.3092215935158285	271.0	-2001.0	30.583722207106593	-290.0	-5.003354123640151	
0.4354653431343999	1959.0	1236.0	10.213200980106654	0.9797030103828747	2054.0	0.0	2005.18798828125	170.0	0.7275	812.0	-499.0	-0.18016194331983806	-0.597165991902834	102.0	-3.226793087628078	384.0	-1986.0	30.59176752308263	72.0	-6.737200323848505	
0.5183051628621342	1968.0	1240.0	10.163849619546758	0.871110646429195	2047.0	0.0	2024.71923828125	810.0	0.7275	812.0	-499.0	-0.18016194331983806	-0.597165991902834	102.0	-4.251414589386757	418.0	-2002.0	30.884056260879554	139.0	-7.2559898808467835	
0.6846921296108894	1966.0	1242.0	10.135879627755605	0.8963115018030281	2033.0	0.0	2044.25048828125	1450.0	0.7275	812.0	-499.0	-0.18016194331983806	-0.597165991902834	102.0	-2.171585869398991	395.0	-2003.0	30.812723263023248	3.0	-6.9037800866884735	
0.9346455127620771	1969.0	1242.0	10.131217942874375	0.8625732236236624	2012.0	0.0	2063.78173828125	2090.0	0.735	815.0	-509.0	-0.20040485829959515	-0.6133603238866396	110.0	0.0764642911760208	437.0	-2034.0	31.20605632185917	-144.0	-7.54431506974136	
0.6274916066285143	1962.0	1223.0	10.368208281899049	0.9485788407404107	2038.0	0.0	2083.31298828125	2730.0	0.735	815.0	-509.0	-0.20040485829959515	-0.6133603238866396	110.0	4.9090074935005354	325.0	-2136.0	32.564422321717366	-460.0	-5.812149240032789	
0.4392443155713307	1959.0	1205.0	10.591098223799738	0.9872987449811056	2054.0	0.0	2102.84423828125	3370.0	0.735	815.0	-509.0	-0.20040485829959515	-0.6133603238866396	110.0	4.81725034408931	281.0	-2192.0	33.422661148549636	-454.0	-5.128409570806969	
0.4384066555870015	1972.0	1212.0	10.507332225366813	0.8289885423885075	2054.0	0.0	2122.37548828125	4010.0	0.7325	814.0	-524.0	-0.23076923076923078	-0.6153846153846154	111.0	1.7280929805780703	376.0	-2142.0	32.791755348905916	-252.0	-6.592444576325273	
0.4714222795097519	1964.0	1234.0	10.237466046213282	0.9203069172133389	2051.0	0.0	2141.90673828125	4650.0	0.7325	814.0	-524.0	-0.23076923076923078	-0.6153846153846154	111.0	-1.238721517051537	450.0	-1947.0	29.922531236595887	-58.0	-7.756628608149616	
0.8739050046707686	1961.0	1252.0	10.009548086124479	0.9559179635764261	2017.0	0.0	2161.43798828125	5290.0	0.7325	814.0	-524.0	-0.23076923076923078	-0.6153846153846154	111.0	-5.9030432787888065	736.0	-1783.0	27.63052971337488	247.0	-12.16807094960555	
1.2195685702318328	1967.0	1248.0	10.052095118421384	0.887936383251469	1988.0	0.0	2180.96923828125	5930.0	0.7325	814.0	-524.0	-0.23076923076923078	-0.6153846153846154	111.0	-4.29729316409237	942.0	-1795.0	27.78248113659788	142.0	-15.327515068947049	
1.3035259847073941	1993.0	1243.0	10.11450323264416	0.5767711076324873	1981.0	0.0	2200.50048828125	6570.0	0.7175	808.0	-534.0	-0.25101214574898784	-0.6032388663967612	105.0	2.1410001529285827	1015.0	-2017.0	30.950693308193017	-279.0	-16.415980254274217	
1.3643895994717161	2002.0	1232.0	10.2484837566954	0.4716256193213963	1976.0	0.0	2220.03173828125	7210.0	0.7175	808.0	-534.0	-0.25101214574898784	-0.6032388663967612	105.0	7.264107661721977	924.0	-2375.0	36.23812188560838	-614.0	-14.966757955610696	
0.748996709537896	1998.0	1203.0	10.613956668075318	0.5209739197339938	2028.0	0.0	2239.56298828125	7850.0	0.7175	808.0	-534.0	-0.25101214574898784	-0.6032388663967612	105.0	13.182443798745988	717.0	-2720.0	41.275997436651494	-1001.0	-11.740071082868411	
0.36946902104270796	2004.0	1192.0	10.756425913794606	0.44773887113692157	2060.0	0.0	2259.09423828125	8490.0	0.725	811.0	-546.0	-0.27530364372469635	-0.6093117408906883	108.0	9.252179232298518	653.0	-3037.0	46.2990581401753	-744.0	-10.707793521713176	
0.5452236997911573	2023.0	1215.0	10.47475093149668	0.21494725562784514	2045.0	0.0	2278.62548828125	9130.0	0.725	811.0	-546.0	-0.27530364372469635	-0.6093117408906883	108.0	1.3916500994035788	758.0	-3247.0	49.85950723422798	-230.0	-12.283359814875766	
0.9490702330460277	2039.0	1222.0	10.383213780793234	0.024383893608975554	2011.0	0.0	2298.15673828125	9770.0	0.725	811.0	-546.0	-0.27530364372469635	-0.6093117408906883	108.0	-0.3976143141153082	854.0	-3404.0	52.36057148356716	-113.0	-13.731419603562365	
0.760197773933071	2023.0	1209.0	10.543586917116619	0.2184737160816631	2027.0	0.0	2317.68798828125	10410.0	0.7125	806.0	-555.0	-0.2935222672064777	-0.5850202429149798	96.0	6.117143294081664	694.0	-3557.0	54.428707271179924	-539.0	-11.255620860386253	
0.8335540010061271	2016.0	1193.0	10.736352481565097	0.3073999390389536	2021.0	0.0	2337.21923828125	11050.0	0.7125	806.0	-555.0	-0.2935222672064777	-0.5850202429149798	96.0	7.707600550542897	778.0	-3734.0	57.10036923360535	-643.0	-12.517840868044493	
0.584202903520286	2007.0	1188.0	10.801242732980981	0.41463796803217184	2042.0	0.0	2356.75048828125	11690.0	0.7125	806.0	-555.0	-0.2935222672064777	-0.5850202429149798	96.0	10.796757914054139	810.0	-3907.0	59.6425880090261	-845.0	-12.98344215735028	
0.0836914428798876	2005.0	1193.0	10.75009666894114	0.43270631768713974	2084.0	0.0	2376.28173828125	12330.0	0.7125	806.0	-555.0	-0.2935222672064777	-0.5850202429149798	96.0	9.603914971708214	891.0	-4113.0	62.87115117243279	-767.0	-14.194059702024331	
0.022837462806271566	2004.0	1204.0	10.61707961396049	0.44148562955787496	2089.0	0.0	2395.81298828125	12970.0	0.6875	796.0	-587.0	-0.3582995951417004	-0.611336032388664	109.0	1.2234286588163328	1018.0	-4276.0	65.73287851468032	-219.0	-16.11419185318372	
0.4015286956534686	2012.0	1222.0	10.390964803442102	0.3443647035073044	2057.0	0.0	2415.34423828125	13610.0	0.6875	796.0	-587.0	-0.3582995951417004	-0.611336032388664	109.0	-4.159657439975532	1227.0	-4270.0	65.88796292772747	133.0	-19.319638093601355	
0.8750779988901543	2024.0	1243.0	10.12684750806304	0.199239537379078	2017.0	0.0	2434.87548828125	14250.0	0.6875	796.0	-587.0	-0.3582995951417004	-0.611336032388664	109.0	-0.5199571799969415	1354.0	-4144.0	63.82390545783797	-105.0	-21.289028092882113	
0.481465741691425	2040.0	1250.0	10.051336073904404	0.0010221017865686133	2050.0	0.0	2454.40673828125	14890.0	0.685	795.0	-598.0	-0.3805668016194332	-0.5728744939271255	90.0	13.885915277565378	1274.0	-4013.0	61.22058070117755	-1047.0	-20.087502647798722	
-0.44644475718966603	2029.0	1246.0	10.117429042938165	0.12559497666036062	2128.0	0.0	2473.93798828125	15530.0	0.685	795.0	-598.0	-0.3805668016194332	-0.5728744939271255	90.0	24.896773206912375	965.0	-3894.0	58.90247612266827	-1767.0	-15.369238243223219	
-0.29424499209971544	2053.0	1267.0	9.861215075742747	-0.16716393153867234	2115.0	0.0	2493.46923828125	16170.0	0.685	795.0	-598.0	-0.3805668016194332	-0.5728744939271255	90.0	20.186572870469494	1102.0	-3852.0	58.46589528366046	-1459.0	-17.475798312776412	
0.13302853079528726	2059.0	1277.0	9.731424508100156	-0.23777616428908013	2079.0	0.0	2513.00048828125	16810.0	0.685	795.0	-598.0	-0.3805668016194332	-0.5728744939271255	90.0	15.0634653616761	1130.0	-3813.0	58.07524739771838	-1124.0	-17.909350334063326	
-0.16125260398345684	2048.0	1250.0	10.06521579213051	-0.1015130294743328	2104.0	0.0	2532.53173828125	17450.0	0.6675	788.0	-625.0	-0.4352226720647773	-0.5566801619433198	82.0	19.131365652240405	887.0	-3780.0	57.367700832265136	-1390.0	-14.187716270793508	
-0.42033952915169426	2016.0	1227.0	10.346999465782963	0.2870739434217327	2126.0	0.0	2552.06298828125	18090.0	0.6675	788.0	-625.0	-0.4352226720647773	-0.5566801619433198	82.0	19.070194219299587	736.0	-3823.0	58.00835015637243	-1386.0	-11.864292745175574	
-0.2307440863730541	2025.0	1234.0	10.258924696027924	0.17877466751465926	2110.0	0.0	2571.59423828125	18730.0	0.6675	788.0	-625.0	-0.4352226720647773	-0.5566801619433198	82.0	13.549472396390886	833.0	-3786.0	57.67495330938475	-1025.0	-13.356041628483567	
-0.08743044561778811	2023.0	1230.0	10.304574485840238	0.20521718526062688	2098.0	0.0	2591.12548828125	19370.0	0.6475	780.0	-656.0	-0.4979757085020243	-0.6153846153846154	111.0	8.135800581128613	925.0	-3712.0	56.76742144267314	-671.0	-14.776809443698173	
-0.3373681723965788	2033.0	1230.0	10.310801807961175	0.08236042672441435	2119.0	0.0	2610.65673828125	20010.0	0.6475	780.0	-656.0	-0.4979757085020243	-0.6153846153846154	111.0	7.554671968190855	952.0	-3731.0	57.087040364697096	-633.0	-15.187914313247308	
-0.11302036457327969	2059.0	1245.0	10.12653497124346	-0.2323344439798997	2100.0	0.0	2630.18798828125	20650.0	0.6475	780.0	-656.0	-0.4979757085020243	-0.6153846153846154	111.0	4.174950298210736	1085.0	-3752.0	57.56561676370224	-412.0	-17.22394487578787	
-0.11314708425530781	2055.0	1246.0	10.113863003040645	-0.1843963794564389	2100.0	0.0	2649.71923828125	21290.0	0.6425	778.0	-661.0	-0.5080971659919028	-0.5587044534412956	83.0	5.704236121731152	1042.0	-3782.0	57.95927530347805	-512.0	-16.56019549309074	
-0.2426187566440448	2048.0	1234.0	10.261933859405044	-0.09839232965544797	2111.0	0.0	2669.25048828125	21930.0	0.6425	778.0	-661.0	-0.5080971659919028	-0.5587044534412956	83.0	8.885150634653618	984.0	-3784.0	57.85391395634373	-720.0	-15.671269054390837	
-0.28838645392127693	2059.0	1219.0	10.447068893586593	-0.22767742642651703	2115.0	0.0	2688.78173828125	22570.0	0.6425	778.0	-661.0	-0.5080971659919028	-0.5587044534412956	83.0	9.710964979354642	1139.0	-3645.0	55.70674745389064	-774.0	-18.071135686424732	
-0.46778134206124655	2054.0	1226.0	10.364722936732486	-0.1708773305895772	2130.0	0.0	2708.31298828125	23210.0	0.6425	778.0	-661.0	-0.5080971659919028	-0.5587044534412956	83.0	13.610643829331703	1148.0	-3605.0	54.93692832994171	-1029.0	-18.216934230587345	
-0.1489520098855287	2075.0	1247.0	10.10479901144713	-0.42589956396629824	2103.0	0.0	2727.84423828125	23850.0	0.625	771.0	-684.0	-0.5546558704453441	-0.562753036437247	85.0	11.530815109343937	1300.0	-3567.0	54.45896743236943	-893.0	-20.55407535559805	
-0.47978152767792726	2074.0	1227.0	10.355180565540618	-0.41215203529126804	2131.0	0.0	2747.37548828125	24490.0	0.625	771.0	-684.0	-0.5546558704453441	-0.562753036437247	85.0	17.082122648723047	1276.0	-3585.0	54.51010782060365	-1256.0	-20.18529634392071	
-0.7049814475216143	2049.0	1219.0	10.454236200219526	-0.1112181025190184	2150.0	0.0	2766.90673828125	25130.0	0.625	771.0	-684.0	-0.5546558704453441	-0.562753036437247	85.0	19.681908548707757	1164.0	-3596.0	54.558130498372044	-1426.0	-18.466233947433036	
-0.7782049332309513	2065.0	1234.0	10.274744772142979	-0.3083112502749921	2156.0	0.0	2786.43798828125	25770.0	0.605	763.0	-713.0	-0.6133603238866396	-0.5263157894736842	67.0	15.95045113931794	1331.0	-3573.0	54.379240247131726	-1182.0	-21.0305516208523	
-0.9115437589758235	2086.0	1254.0	10.036100292893837	-0.5674295763101946	2167.0	0.0	2805.96923828125	26410.0	0.605	763.0	-713.0	-0.6133603238866396	-0.5263157894736842	67.0	10.735586481113321	1528.0	-3653.0	55.84849645142894	-841.0	-24.038722339459934	
-0.924183564684336	2081.0	1260.0	9.962595912518784	-0.5087850981193592	2168.0	0.0	2825.50048828125	27050.0	0.605	763.0	-713.0	-0.6133603238866396	-0.5263157894736842	67.0	7.126471937605139	1479.0	-3714.0	56.923551912602676	-605.0	-23.27609208560008	
-1.3045693868816033	2083.0	1256.0	10.019251788030145	-0.5355522243732733	2200.0	0.0	2845.03173828125	27690.0	0.605	763.0	-713.0	-0.6133603238866396	-0.5263157894736842	67.0	3.670285976448999	1429.0	-3695.0	56.76188054754541	-379.0	-22.510484616344407	
-1.211899536870577	2092.0	1277.0	9.762427265323254	-0.6481957512670601	2192.0	0.0	2864.56298828125	28330.0	0.5825	754.0	-732.0	-0.6518218623481782	-0.5020242914979757	55.0	-3.3644288117449155	1510.0	-3654.0	56.42505964864987	81.0	-23.756756001641477	
-0.620561213305339	2091.0	1308.0	9.372450098037532	-0.6380337186060376	2142.0	0.0	2884.09423828125	28970.0	0.5825	754.0	-732.0	-0.6518218623481782	-0.5020242914979757	55.0	-11.301422235815876	1550.0	-3504.0	54.44153819850294	600.0	-24.390370562467943	
-0.4177188618074869	2103.0	1304.0	9.418590009727495	-0.7796608101102719	2125.0	0.0	2903.62548828125	29610.0	0.5825	754.0	-732.0	-0.6518218623481782	-0.5020242914979757	55.0	-10.185043584645971	1600.0	-3257.0	50.60552342122055	527.0	-25.19595489314701	
-0.5826779262699486	2076.0	1290.0	9.589350230147987	-0.4525939915272096	2139.0	0.0	2923.15673828125	30250.0	0.58	753.0	-739.0	-0.6659919028340081	-0.4757085020242915	42.0	0.9940357852882705	1307.0	-3107.0	47.806343494579494	-204.0	-20.728012980582825	
-0.7978656966767569	2101.0	1298.0	9.499144618038601	-0.7577548007505738	2157.0	0.0	2942.68798828125	30890.0	0.58	753.0	-739.0	-0.6659919028340081	-0.4757085020242915	42.0	7.692307692307693	1395.0	-2898.0	44.33737264408244	-642.0	-22.113017251002784	
-1.119675144434413	2136.0	1302.0	9.461056985130114	-1.183421394874272	2184.0	0.0	2962.21923828125	31530.0	0.58	753.0	-739.0	-0.6659919028340081	-0.4757085020242915	42.0	12.1272365805169	1443.0	-2713.0	41.32192634165463	-932.0	-22.87970692961706	
-1.393668641918124	2140.0	1304.0	9.442659617711424	-1.23472204828182	2207.0	0.0	2981.75048828125	32170.0	0.5650000000000001	747.0	-753.0	-0.6943319838056681	-0.45546558704453444	32.0	12.173115155222511	1265.0	-2631.0	40.03156264557202	-935.0	-20.161292475431654	
-1.2272612014516187	2155.0	1306.0	9.416736997695274	-1.4142993178437433	2193.0	0.0	3001.28173828125	32810.0	0.5650000000000001	747.0	-753.0	-0.6943319838056681	-0.45546558704453444	32.0	8.793393485242392	1146.0	-2659.0	40.579139787877864	-714.0	-18.32982314869173	
-1.0583251246597287	2144.0	1287.0	9.643678010217604	-1.27554101634345	2179.0	0.0	3020.81298828125	33450.0	0.5650000000000001	747.0	-753.0	-0.6943319838056681	-0.45546558704453444	32.0	7.004129071723506	1039.0	-2676.0	40.895758336090985	-597.0	-16.684797211790233	
-1.0670568295766059	2145.0	1261.0	9.960983709006095	-1.2813304121879332	2180.0	0.0	3040.34423828125	34090.0	0.5650000000000001	747.0	-753.0	-0.6943319838056681	-0.45546558704453444	32.0	8.900443492888822	863.0	-2678.0	40.8236711744918	-721.0	-13.984888959576244	
-1.2799489293043353	2153.0	1250.0	10.100345164804564	-1.3770576462379158	2198.0	0.0	3059.87548828125	34730.0	0.55	741.0	-772.0	-0.7327935222672065	-0.46153846153846156	35.0	12.57072946933782	910.0	-2634.0	40.007334325507436	-961.0	-14.714243059997957	
-1.5658291404224192	2170.0	1252.0	10.08375262442476	-1.5850675762651265	2222.0	0.0	3079.40673828125	35370.0	0.55	741.0	-772.0	-0.7327935222672065	-0.46153846153846156	35.0	14.14589386756385	928.0	-2637.0	39.99323791293248	-1064.0	-14.990584729969955	
-1.6601815364201333	2181.0	1245.0	10.17232254846286	-1.7167698222262693	2230.0	0.0	3098.93798828125	36010.0	0.55	741.0	-772.0	-0.7327935222672065	-0.46153846153846156	35.0	8.900443492888822	989.0	-2656.0	40.504627652787896	-721.0	-15.92148433571702	
-1.7304998397670155	2180.0	1236.0	10.283349356631764	-1.7032042763252757	2236.0	0.0	3118.46923828125	36650.0	0.5475	740.0	-776.0	-0.7408906882591093	-0.4109311740890688	10.0	3.027985930570424	899.0	-2790.0	42.78670906240882	-337.0	-14.51765999238957	
-1.670373660704436	2184.0	1231.0	10.34358631050877	-1.7495910465414473	2231.0	0.0	3138.00048828125	37290.0	0.5475	740.0	-776.0	-0.7408906882591093	-0.4109311740890688	10.0	-5.168986083499006	908.0	-2928.0	45.23847411609606	199.0	-14.631242694775821	
-1.528384084943862	2196.0	1238.0	10.25682960085191	-1.8944845982299905	2219.0	0.0	3157.53173828125	37930.0	0.5475	740.0	-776.0	-0.7408906882591093	-0.4109311740890688	10.0	-12.616608044043433	918.0	-3124.0	48.552502821431354	686.0	-14.751547244303719	
-1.138401198109609	2203.0	1261.0	9.969403998562925	-1.9806706308050184	2186.0	0.0	3177.06298828125	38570.0	0.5475	740.0	-776.0	-0.7408906882591093	-0.4109311740890688	10.0	-19.865422847530205	971.0	-3201.0	50.034872917028665	1160.0	-15.549981177228366	
-0.4711563330918415	2187.0	1255.0	10.02722383367299	-1.7800707011152896	2130.0	0.0	3196.59423828125	39210.0	0.5475	740.0	-775.0	-0.7388663967611336	-0.3603238866396761	-15.0	-20.87475149105368	834.0	-3285.0	51.346201893582425	1226.0	-13.434673626299714	
-0.7672660029207135	2176.0	1243.0	10.17816161269056	-1.6474829217512994	2155.0	0.0	3216.12548828125	39850.0	0.5475	740.0	-775.0	-0.7388663967611336	-0.3603238866396761	-15.0	-13.30478666462762	661.0	-3344.0	51.924352212967314	731.0	-10.774296450250258	
-0.8869982346180395	2195.0	1249.0	10.109700347719862	-1.878965132018289	2165.0	0.0	3235.65673828125	40490.0	0.5475	740.0	-775.0	-0.7388663967611336	-0.3603238866396761	-15.0	-3.3032573788040986	602.0	-3435.0	52.914923387574234	77.0	-9.859066202674818	
-1.2307041367742715	2195.0	1237.0	10.262919655906197	-1.8793378048761247	2194.0	0.0	3255.18798828125	41130.0	0.54	737.0	-783.0	-0.7550607287449392	-0.3157894736842105	-37.0	-0.3976143141153082	524.0	-3467.0	53.27892453193209	-113.0	-8.6585564658975	
-1.7649891307569128	2179.0	1226.0	10.405848829070656	-1.6890509870153125	2239.0	0.0	3274.71923828125	41770.0	0.54	737.0	-783.0	-0.7550607287449392	-0.3157894736842105	-37.0	1.039914359993883	287.0	-3553.0	54.50780747449539	-207.0	-5.009625009496261	
-1.6719475520541693	2193.0	1244.0	10.18619717553544	-1.86118830309417	2231.0	0.0	3294.25048828125	42410.0	0.54	737.0	-783.0	-0.7550607287449392	-0.3157894736842105	-37.0	-8.900443492888822	344.0	-3739.0	57.77493972364129	443.0	-5.851589255517922	
-1.4114531983173888	2179.0	1255.0	10.045156358737325	-1.692729477097584	2209.0	0.0	3313.78173828125	43050.0	0.5575	744.0	-780.0	-0.7489878542510121	-0.2894736842105263	-50.0	-18.59611561400826	379.0	-3843.0	59.767691786577956	1077.0	-6.368718662922928	
-1.2564797878923648	2178.0	1253.0	10.066306925049247	-1.678708538896011	2196.0	0.0	3333.31298828125	43690.0	0.5575	744.0	-780.0	-0.7489878542510121	-0.2894736842105263	-50.0	-23.8874445633889	396.0	-3789.0	59.151373698805344	1423.0	-6.635738065988777	
-1.137489809242134	2150.0	1253.0	10.06054288531042	-1.3402845223139237	2186.0	0.0	3352.84423828125	44330.0	0.5575	744.0	-780.0	-0.7489878542510121	-0.2894736842105263	-50.0	-23.55100168221441	351.0	-3678.0	57.42375410166058	1401.0	-5.962512497344604	
-0.7573321353458198	2161.0	1259.0	9.981072179703729	-1.470602480169022	2154.0	0.0	3372.37548828125	44970.0	0.5575	744.0	-780.0	-0.7489878542510121	-0.2894736842105263	-50.0	-22.771065912218997	336.0	-3557.0	55.52919233942904	1350.0	-5.751290860095045	
-0.9018732298222053	2156.0	1273.0	9.81267701777946	-1.4151748304968494	2166.0	0.0	3391.90673828125	45610.0	0.5750000000000001	751.0	-782.0	-0.7530364372469636	-0.2408906882591093	-74.0	-17.892644135188867	511.0	-3384.0	52.70006217069828	1031.0	-8.46486680195421	
-0.5693418966617073	2153.0	1279.0	9.732477000495942	-1.377308939197662	2138.0	0.0	3411.43798828125	46250.0	0.5750000000000001	751.0	-782.0	-0.7530364372469636	-0.2408906882591093	-74.0	-12.295458021104146	396.0	-3249.0	50.382156761022785	665.0	-6.723430235366603	
-0.5446982923274994	2141.0	1272.0	9.815885052964338	-1.2308160288519399	2136.0	0.0	3430.96923828125	46890.0	0.5750000000000001	751.0	-782.0	-0.7530364372469636	-0.2408906882591093	-74.0	-7.64642911760208	417.0	-3151.0	48.692126558762006	361.0	-7.062564694209833	
-0.9157368762428226	2147.0	1289.0	9.616788566193923	-1.3107975010530075	2167.0	0.0	3450.50048828125	47530.0	0.5775	752.0	-781.0	-0.7510121457489879	-0.22469635627530365	-82.0	2.7833001988071575	357.0	-3040.0	46.5585144309122	-321.0	-6.163231796000837	
-1.0833320273312856	2158.0	1297.0	9.5239401240143	-1.4468605418894125	2181.0	0.0	3470.03173828125	48170.0	0.5775	752.0	-781.0	-0.7510121457489879	-0.22469635627530365	-82.0	7.46291481877963	413.0	-2980.0	45.45709796552117	-627.0	-7.033537045509743	
-1.6178548043055858	2147.0	1288.0	9.643090998012841	-1.3172926316972569	2226.0	0.0	3489.56298828125	48810.0	0.5775	752.0	-781.0	-0.7510121457489879	-0.22469635627530365	-82.0	10.460315032879647	340.0	-3000.0	45.63362780859817	-823.0	-5.911624440035855	
-2.071962560585935	2156.0	1303.0	9.470410608073168	-1.4337210519986128	2264.0	0.0	3509.09423828125	49450.0	0.5775	752.0	-781.0	-0.7510121457489879	-0.22469635627530365	-82.0	5.887750420553602	299.0	-3047.0	46.533114903666856	-524.0	-5.2735057391020455	
-1.8820086368152988	2159.0	1307.0	9.418183937517743	-1.4690106244852679	2248.0	0.0	3528.62548828125	50090.0	0.5775	752.0	-787.0	-0.7631578947368421	-0.17611336032388664	-106.0	-8.793393485242392	321.0	-3123.0	48.292611411896466	436.0	-5.593489414498498	
-1.6909828830776887	2141.0	1302.0	9.473140263659692	-1.2491337705455348	2232.0	0.0	3548.15673828125	50730.0	0.5775	752.0	-787.0	-0.7631578947368421	-0.17611336032388664	-106.0	-21.6852729775195	212.0	-3197.0	49.92968381463417	1279.0	-3.9045699717355062	
-1.5601546286131278	2161.0	1303.0	9.460727614877708	-1.4890375963982156	2221.0	0.0	3567.68798828125	51370.0	0.5775	752.0	-787.0	-0.7631578947368421	-0.17611336032388664	-106.0	-29.652852118060867	122.0	-3217.0	50.54216067497321	1800.0	-2.517441673900874	
-1.3948647828944494	2159.0	1314.0	9.323045520078885	-1.4660419542948364	2207.0	0.0	3587.21923828125	52010.0	0.605	763.0	-783.0	-0.7550607287449392	-0.13360323886639677	-127.0	-30.830402202171587	86.0	-3002.0	47.27688168189083	1877.0	-1.9976930521392016	
-1.6337811557589754	2146.0	1321.0	9.240932043150073	-1.3134468815379619	2227.0	0.0	3606.75048828125	52650.0	0.605	763.0	-783.0	-0.7550607287449392	-0.13360323886639677	-127.0	-28.88820920630066	-125.0	-2729.0	42.96789405475322	1750.0	1.1969031234537775	
-1.512676685613428	2153.0	1304.0	9.446617152942894	-1.3924594840382403	2217.0	0.0	3626.28173828125	53290.0	0.605	763.0	-783.0	-0.7550607287449392	-0.13360323886639677	-127.0	-29.606973543355256	-284.0	-2363.0	37.342906306161815	1797.0	3.580426147609723	
-1.2271585684963553	2139.0	1305.0	9.427000293221615	-1.2213219412663143	2193.0	0.0	3645.81298828125	53930.0	0.62	769.0	-767.0	-0.7226720647773279	-0.0708502024291498	-158.0	-31.90090227863588	-234.0	-2077.0	33.04344246273738	1947.0	2.7702073262692335	
-0.6804908211782728	2149.0	1312.0	9.331870263125111	-1.3382397921059068	2147.0	0.0	3665.34423828125	54570.0	0.62	769.0	-767.0	-0.7226720647773279	-0.0708502024291498	-158.0	-21.073558648111334	-159.0	-1580.0	24.97768596017113	1239.0	1.5387134868842034	
-0.6658027624730467	2134.0	1289.0	9.610199943171514	-1.1518034263516617	2146.0	0.0	3684.87548828125	55210.0	0.62	769.0	-767.0	-0.7226720647773279	-0.0708502024291498	-158.0	-6.774736198195443	-352.0	-1297.0	20.023437199195705	304.0	4.450656345292556	
-0.5452087840646267	2122.0	1276.0	9.764835879251612	-1.0029264545929635	2136.0	0.0	3704.40673828125	55850.0	0.62	769.0	-767.0	-0.7226720647773279	-0.0708502024291498	-158.0	3.7161645511546113	-273.0	-1000.0	15.047892946955118	-382.0	3.188686693778282	
-1.0198600256767418	2106.0	1264.0	9.918759337087709	-0.8118234135150131	2176.0	0.0	3723.93798828125	56490.0	0.64	777.0	-761.0	-0.7105263157894737	-0.05263157894736842	-167.0	16.05750114696437	-252.0	-834.0	12.004312867824211	-1189.0	2.8360167361663504	
-1.710543923698024	2122.0	1267.0	9.897988582578554	-1.0119167519227585	2234.0	0.0	3743.46923828125	57130.0	0.64	777.0	-761.0	-0.7105263157894737	-0.05263157894736842	-167.0	6.499464749961769	178.0	-668.0	9.899372782568145	-564.0	-3.7831606376799196	
-1.6884313643618776	2134.0	1281.0	9.728292135240821	-1.159667868529164	2232.0	0.0	3763.00048828125	57770.0	0.64	777.0	-761.0	-0.7105263157894737	-0.05263157894736842	-167.0	-7.661721975837285	295.0	-731.0	11.452699644535494	362.0	-5.562931957060861	
-0.7243514371768783	2124.0	1281.0	9.70771342516931	-1.0299567157479006	2151.0	0.0	3782.53173828125	58410.0	0.6375000000000001	776.0	-753.0	-0.6943319838056681	-0.048582995951417005	-169.0	-12.998929499923538	521.0	-657.0	10.56266906415011	711.0	-9.039685569600943	
-0.8546366828231798	2150.0	1276.0	9.774426955777257	-1.3431783096403975	2162.0	0.0	3802.06298828125	59050.0	0.6375000000000001	776.0	-753.0	-0.6943319838056681	-0.048582995951417005	-169.0	-2.1562930111637866	528.0	-598.0	9.222619039255848	2.0	-9.16049745545676	
-0.9736567698818663	2153.0	1276.0	9.777180154670491	-1.3804580248463727	2172.0	0.0	3821.59423828125	59690.0	0.6375000000000001	776.0	-753.0	-0.6943319838056681	-0.048582995951417005	-169.0	-3.5326502523321612	462.0	-536.0	8.313937406994656	92.0	-8.156848350343129	
-0.8299858524709427	2144.0	1269.0	9.858557610048596	-1.268960031624942	2160.0	0.0	3841.12548828125	60330.0	0.6375000000000001	776.0	-753.0	-0.6943319838056681	-0.048582995951417005	-169.0	-3.8385074170362445	374.0	-515.0	7.989673747749068	112.0	-6.809776425020592	
-0.8416287614319653	2157.0	1267.0	9.884742904422517	-1.4251792608511706	2161.0	0.0	3860.65673828125	60970.0	0.6325000000000001	774.0	-761.0	-0.7105263157894737	-0.07692307692307693	-155.0	0.5811286129377581	478.0	-456.0	6.921400712655637	-177.0	-8.416285455816515	
-0.9231168164292285	2157.0	1252.0	10.069270738029534	-1.4223035847290029	2168.0	0.0	3880.18798828125	61610.0	0.6325000000000001	774.0	-761.0	-0.7105263157894737	-0.07692307692307693	-155.0	5.841871845847989	388.0	-393.0	5.728198588517751	-521.0	-7.047213947826654	
-0.8054593331280572	2136.0	1263.0	9.930257163384766	-1.1708952331961153	2158.0	0.0	3899.71923828125	62250.0	0.6325000000000001	774.0	-761.0	-0.7105263157894737	-0.07692307692307693	-155.0	10.506193607585258	446.0	-159.0	1.9514569536933073	-826.0	-7.974961416346143	
-1.2119359313272373	2163.0	1278.0	9.758787819657215	-1.5036905908719351	2192.0	0.0	3919.25048828125	62890.0	0.63	773.0	-752.0	-0.6923076923076923	-0.03036437246963563	-178.0	14.467043890503136	620.0	44.0	-1.3025487790967434	-1085.0	-10.677441630187777	
-1.8670334173285459	2180.0	1282.0	9.725229695716836	-1.7157320053191896	2247.0	0.0	3938.78173828125	63530.0	0.63	773.0	-752.0	-0.6923076923076923	-0.03036437246963563	-178.0	9.267472090533722	641.0	-34.0	0.10833075952975946	-745.0	-10.985566991622134	
-1.9633362507130634	2191.0	1291.0	9.618755881074637	-1.8513546304278066	2255.0	0.0	3958.31298828125	64170.0	0.63	773.0	-752.0	-0.6923076923076923	-0.03036437246963563	-178.0	-3.3950145282153237	698.0	-82.0	1.36179917959262	83.0	-11.847667875934626	
-0.9885741812243839	2180.0	1301.0	9.475915210894936	-1.711933702654586	2173.0	0.0	3977.84423828125	64810.0	0.625	771.0	-756.0	-0.7004048582995952	-0.03441295546558704	-176.0	-17.143294081663864	742.0	-38.0	1.241674996027867	982.0	-12.52402639872777	
-0.4506321171414872	2196.0	1282.0	9.698693047756041	-1.8948698096138843	2128.0	0.0	3997.37548828125	65450.0	0.625	771.0	-756.0	-0.7004048582995952	-0.03441295546558704	-176.0	-10.76617219758373	627.0	162.0	-2.1071709279071795	565.0	-10.792899237282755	
-0.8534986143576031	2184.0	1267.0	9.888233802334932	-1.7505293462414557	2162.0	0.0	4016.90673828125	554.0	0.625	771.0	-756.0	-0.7004048582995952	-0.03441295546558704	-176.0	0.5046643217617374	196.0	230.0	-3.669975756930127	-172.0	-4.19505482892115	
-0.41250984277809954	2177.0	1262.0	9.93949191266624	-1.6607569469214443	2125.0	0.0	4036.43798828125	1194.0	0.625	771.0	-756.0	-0.7004048582995952	-0.03441295546558704	-176.0	3.899678849977061	119.0	325.0	-5.278744357670183	-394.0	-3.0296172732529336	
-0.7100702972836913	2176.0	1262.0	9.945351224011821	-1.651567172468504	2150.0	0.0	4055.96923828125	1834.0	0.62	769.0	-750.0	-0.688259109311741	-0.06680161943319839	-160.0	15.13992965285212	44.0	302.0	-5.386060296584788	-1129.0	-1.8798541582827115	
-0.7818369766346172	2187.0	1265.0	9.911540431776382	-1.7854911755886498	2156.0	0.0	4075.50048828125	2474.0	0.62	769.0	-750.0	-0.688259109311741	-0.06680161943319839	-160.0	14.237651016975073	40.0	326.0	-5.719723537406836	-1070.0	-1.8218128560584326	
-0.6510412392511884	2180.0	1266.0	9.89587607488116	-1.7001591559551295	2145.0	0.0	4095.03173828125	3114.0	0.62	769.0	-750.0	-0.688259109311741	-0.06680161943319839	-160.0	14.619972472855178	40.0	256.0	-4.658365109549739	-1095.0	-1.8111992717798613	
-0.770312357001255	2177.0	1268.0	9.873526204636413	-1.6656542862242723	2155.0	0.0	4114.56298828125	3754.0	0.6175	768.0	-757.0	-0.7024291497975709	-0.08097165991902834	-153.0	18.04557271754091	65.0	219.0	-4.222453380858388	-1319.0	-2.1904522459460707	
-1.069793140485194	2201.0	1284.0	9.687352618147287	-1.9615291922949183	2180.0	0.0	4134.09423828125	4394.0	0.6175	768.0	-757.0	-0.7024291497975709	-0.08097165991902834	-153.0	19.070194219299587	187.0	196.0	-3.8909593959142175	-1386.0	-4.059164312387867	
-1.0445412288039484	2188.0	1272.0	9.831591405319454	-1.8017653914105662	2178.0	0.0	4153.62548828125	5034.0	0.6175	768.0	-757.0	-0.7024291497975709	-0.08097165991902834	-153.0	15.889279706377124	13.0	108.0	-2.436929718068989	-1178.0	-1.3746838590956816	
-1.0076295474529449	2176.0	1262.0	9.951330968991227	-1.6544231700706082	2175.0	0.0	4173.15673828125	5674.0	0.6175	768.0	-757.0	-0.7024291497975709	-0.08097165991902834	-153.0	17.082122648723047	134.0	125.0	-2.7275457799716825	-1256.0	-3.234272542347822	
-1.224383983191457	2216.0	1283.0	9.704458823711454	-2.1434558681769627	2193.0	0.0	4192.68798828125	6314.0	0.6125	766.0	-778.0	-0.7449392712550608	-0.10323886639676114	-142.0	17.510322679308764	266.0	205.0	-3.95487624050329	-1284.0	-5.272017689825626	
-1.5454123747726811	2191.0	1280.0	9.744476808446176	-1.844660973120972	2220.0	0.0	4212.21923828125	6954.0	0.6125	766.0	-778.0	-0.7449392712550608	-0.10323886639676114	-142.0	14.008258143447012	-72.0	107.0	-2.3593571750307074	-1055.0	-0.0696270227246818	
-1.3671411030622294	2174.0	1282.0	9.71446112234849	-1.6386592970173874	2205.0	0.0	4231.75048828125	7594.0	0.6125	766.0	-778.0	-0.7449392712550608	-0.10323886639676114	-142.0	7.340571952897998	90.0	47.0	-1.1449781686960006	-619.0	-2.5432895852775697	
-1.1882205765692397	2190.0	1279.0	9.749370914504583	-1.828942980246685	2190.0	0.0	4251.28173828125	8234.0	0.59	757.0	-771.0	-0.7307692307692307	-0.09716599190283401	-145.0	5.872457562318398	285.0	30.0	-0.7948686298519793	-523.0	-5.531962803223486	
-1.2733789493664796	2179.0	1294.0	9.566866968113974	-1.7009145224205418	2197.0	0.0	4270.81298828125	8874.0	0.59	757.0	-771.0	-0.7307692307692307	-0.09716599190283401	-145.0	6.010093286435235	239.0	-65.0	0.6537362622661587	-532.0	-4.81163050602856	
-1.795245059923532	2187.0	1279.0	9.7612082933611	-1.7986318991898445	2241.0	0.0	4290.34423828125	9514.0	0.59	757.0	-771.0	-0.7307692307692307	-0.09716599190283401	-145.0	7.875821991130143	395.0	-26.0	0.0032018555190207465	-654.0	-7.2118753007635155	
-1.7982865966587203	2192.0	1304.0	9.457054619842248	-1.8649863518829952	2241.0	0.0	4309.87548828125	10154.0	0.5875	756.0	-776.0	-0.7408906882591093	-0.09109311740890688	-148.0	0.565835754702554	643.0	2.0	-0.09703732040816798	-176.0	-11.018309639737764	
-1.2171464190594763	2189.0	1321.0	9.237739046433322	-1.8274166832619283	2192.0	0.0	4329.40673828125	10794.0	0.5875	756.0	-776.0	-0.7408906882591093	-0.09109311740890688	-148.0	-3.3644288117449155	640.0	135.0	-1.9859372839403249	81.0	-10.99116518839871	
-1.1163392208996683	2173.0	1275.0	9.794649338604598	-1.6224993210995553	2184.0	0.0	4348.93798828125	11434.0	0.5875	756.0	-776.0	-0.7408906882591093	-0.09109311740890688	-148.0	4.129071723505123	509.0	188.0	-3.1209242711374587	-409.0	-8.99238769905632	
-1.7942626152121008	2193.0	1271.0	9.859452764504193	-1.8689463419463745	2241.0	0.0	4368.46923828125	12074.0	0.5875	756.0	-776.0	-0.7408906882591093	-0.09109311740890688	-148.0	12.1272365805169	592.0	93.0	-1.9669167006839707	-932.0	-10.254439766976152	
-1.559151710183947	2184.0	1295.0	9.561019457795803	-1.7641301640905018	2221.0	0.0	4388.00048828125	12714.0	0.59	757.0	-778.0	-0.7449392712550608	-0.09109311740890688	-148.0	5.398378957027069	573.0	86.0	-1.5930394931666645	-492.0	-9.959155805396605	
-1.4895636165207773	2186.0	1310.0	9.376971681255611	-1.7912116242268423	2215.0	0.0	4407.53173828125	13354.0	0.59	757.0	-778.0	-0.7449392712550608	-0.09109311740890688	-148.0	5.1842789417342106	612.0	58.0	-1.1478326958339797	-478.0	-10.553138600090149	
-1.631893608228274	2195.0	1306.0	9.429686796220214	-1.9000143567843846	2227.0	0.0	4427.06298828125	13994.0	0.59	757.0	-778.0	-0.7449392712550608	-0.09109311740890688	-148.0	6.881786205841872	630.0	-62.0	0.6327208314818792	-589.0	-10.81153377066324	
-1.3322367272724394	2216.0	1289.0	9.633470129898926	-2.145954169494023	2202.0	0.0	4446.59423828125	14634.0	0.5750000000000001	751.0	-779.0	-0.7469635627530364	-0.12753036437246965	-130.0	7.677014834072489	699.0	-158.0	2.088049740125444	-641.0	-11.855749853987422	
-1.5326807751359492	2171.0	1273.0	9.827160581643158	-1.601916126238978	2219.0	0.0	4466.12548828125	15274.0	0.5750000000000001	751.0	-779.0	-0.7469635627530364	-0.12753036437246965	-130.0	16.485701177550087	289.0	-204.0	2.3803441226499755	-1217.0	-5.561588610330966	
-2.249460266504497	2208.0	1295.0	9.577782873359794	-2.059854607848451	2279.0	0.0	4485.65673828125	15914.0	0.5750000000000001	751.0	-779.0	-0.7469635627530364	-0.12753036437246965	-130.0	21.05826578987613	680.0	-130.0	1.119278158382394	-1516.0	-11.573892380300478	
-2.287358005575946	2211.0	1313.0	9.359437537643455	-2.1007450702667456	2282.0	0.0	4505.18798828125	16554.0	0.5750000000000001	751.0	-779.0	-0.7469635627530364	-0.12753036437246965	-130.0	14.283529591680686	702.0	-131.0	1.4089966697486496	-1073.0	-11.908573835665566	
-2.1812155072174315	2208.0	1321.0	9.259401659209248	-2.0655397845385917	2273.0	0.0	4524.71923828125	17194.0	0.5625	746.0	-779.0	-0.7469635627530364	-0.08704453441295547	-150.0	8.472243462303105	765.0	-69.0	0.6974868597525801	-693.0	-12.882391404227393	
-1.977298917079929	2201.0	1308.0	9.41296543486423	-1.9760919937265264	2256.0	0.0	4544.25048828125	17834.0	0.5625	746.0	-779.0	-0.7469635627530364	-0.08704453441295547	-150.0	6.4382933170209515	745.0	-37.0	0.28358539466556737	-560.0	-12.579640745715766	
-1.7753375816745829	2190.0	1311.0	9.371003737303617	-1.8423814938417582	2239.0	0.0	4563.78173828125	18474.0	0.5625	746.0	-779.0	-0.7469635627530364	-0.08704453441295547	-150.0	8.105214864658205	823.0	-34.0	0.1827405678417362	-669.0	-13.777518919317748	
-2.1337399728904085	2198.0	1322.0	9.245050330006785	-1.9448701280685277	2269.0	0.0	4583.31298828125	19114.0	0.56	745.0	-775.0	-0.7388663967611336	-0.10121457489878542	-143.0	12.142529438752105	926.0	-48.0	0.25239732175747465	-933.0	-15.357304168565454	
-2.729706972240289	2202.0	1329.0	9.17215991882826	-2.000480377369934	2319.0	0.0	4602.84423828125	19754.0	0.56	745.0	-775.0	-0.7388663967611336	-0.10121457489878542	-143.0	10.613243615231688	971.0	-99.0	1.10488321687907	-833.0	-16.039281074229862	
-2.4804729597457698	2215.0	1335.0	9.095561168280156	-2.1561465182800474	2298.0	0.0	4622.37548828125	20394.0	0.56	745.0	-775.0	-0.7388663967611336	-0.10121457489878542	-143.0	1.9727787123413367	1070.0	-157.0	2.3577380016553935	-268.0	-17.545856408536466	
-1.9201104374609366	2195.0	1327.0	9.179432444382549	-1.9079016121134644	2251.0	0.0	4641.90673828125	21034.0	0.555	743.0	-782.0	-0.7530364372469636	-0.10728744939271255	-140.0	-0.9022786358770455	900.0	-186.0	2.8926863961846854	-80.0	-14.931944702709934	
-2.026860038830151	2200.0	1324.0	9.21875802174681	-1.9684235604352929	2260.0	0.0	4661.43798828125	21674.0	0.555	743.0	-782.0	-0.7530364372469636	-0.10728744939271255	-140.0	7.56996482642606	874.0	-123.0	1.580856595179971	-634.0	-14.546106425608736	
-2.3264940373955594	2198.0	1341.0	9.017262927110748	-1.9513534167714996	2285.0	0.0	4680.96923828125	22314.0	0.555	743.0	-782.0	-0.7530364372469636	-0.10728744939271255	-140.0	14.650558189325587	823.0	-144.0	1.612831203118078	-1097.0	-13.763218012964986	
-2.5664822402270593	2206.0	1357.0	8.827966453484562	-2.0539247704410135	2305.0	0.0	4700.50048828125	22954.0	0.555	743.0	-782.0	-0.7530364372469636	-0.10728744939271255	-140.0	13.105979507569966	868.0	-187.0	2.342883064894121	-996.0	-14.446419258962845	
-3.091393500528315	2216.0	1367.0	8.717792804311363	-2.1818592837383326	2349.0	0.0	4720.03173828125	23594.0	0.53	733.0	-780.0	-0.7489878542510121	-0.13562753036437247	-126.0	9.328643523474538	885.0	-297.0	4.188447887324141	-749.0	-14.688819832926667	
-2.6858644212867566	2212.0	1360.0	8.79451025227671	-2.1280768729022728	2315.0	0.0	4739.56298828125	24234.0	0.53	733.0	-780.0	-0.7489878542510121	-0.13562753036437247	-126.0	-3.211500229392874	902.0	-426.0	6.676723478239144	71.0	-14.924793299205643	
-2.4026275228127036	2227.0	1380.0	8.546771528253458	-2.3109221699642624	2291.0	0.0	4759.09423828125	24874.0	0.53	733.0	-780.0	-0.7489878542510121	-0.13562753036437247	-126.0	-8.166386297599022	1027.0	-565.0	9.031996593213936	395.0	-16.819301025321504	
-2.5349863125188214	2252.0	1392.0	8.406130652879762	-2.616263394645906	2302.0	0.0	4778.62548828125	25514.0	0.535	735.0	-784.0	-0.757085020242915	-0.15182186234817813	-118.0	-7.631136259366876	978.0	-678.0	10.741091009231493	360.0	-16.050330381913213	
-2.546280375178554	2251.0	1387.0	8.467200577382709	-2.60310674401136	2303.0	0.0	4798.15673828125	26154.0	0.535	735.0	-784.0	-0.757085020242915	-0.15182186234817813	-118.0	-7.600550542896468	791.0	-686.0	10.83422207410379	358.0	-13.17998062719513	
-2.522220991464619	2260.0	1385.0	8.492186567823808	-2.710800165305158	2301.0	0.0	4817.68798828125	26794.0	0.535	735.0	-784.0	-0.757085020242915	-0.15182186234817813	-118.0	-7.218229087016364	615.0	-705.0	11.084160659582691	333.0	-10.47685211751036	
