Device	Device	Device	Device	Device	Device	Device	Device	Device	Device	Device	Device	Device	Device	Device	Device	Device	Device	Device	Device	Device	
Low Noise Accelerometer X	Low Noise Accelerometer X	Low Noise Accelerometer Z	Low Noise Accelerometer Z	Low Noise Accelerometer Y	Low Noise Accelerometer Y	Event_Marker	Timestamp	Timestamp	Magnetometer Z	Magnetometer Z	Magnetometer X	Magnetometer X	Magnetometer Y	Magnetometer Y	Gyroscope Y	Gyroscope Y	Gyroscope Z	Gyroscope Z	Gyroscope X	Gyroscope X	
UNCAL	CAL	UNCAL	CAL	CAL	UNCAL	CAL	CAL	UNCAL	UNCAL	CAL	UNCAL	CAL	UNCAL	CAL	UNCAL	CAL	CAL	UNCAL	UNCAL	CAL	
no units	m/(s^2)	no units	m/(s^2)	m/(s^2)	no units	no units	ms	no units	no units	local_flux	no units	local_flux	no units	local_flux	no units	deg/s	deg/s	no units	no units	deg/s	
1832.0	0.9457733770071328	1247.0	10.053528176903761	2.511733116585255	2011.0	0.0	1799.530029296875	58967.0	807.0	0.715	-124.0	0.5789473684210527	-74.0	-0.2408906882591093	-515.0	6.453586175256156	0.9663530959065179	-94.0	-561.0	6.761236340534024	
1833.0	0.8152142182790251	1244.0	10.09285039933108	2.4991657766754356	2022.0	0.0	1819.061279296875	59607.0	807.0	0.715	-124.0	0.5789473684210527	-74.0	-0.2408906882591093	-507.0	6.988836213488302	1.2384061765727674	-113.0	-596.0	6.641201002075687	
1835.0	0.7434366999010551	1247.0	10.057955704391228	2.4736537220506905	2028.0	0.0	1838.592529296875	60247.0	801.0	0.7000000000000001	-131.0	0.5647773279352227	-68.0	-0.25303643724696356	-445.0	4.37375745526839	2.9059632884218987	-214.0	-425.0	5.706518586390434	
1815.0	0.7571435182311883	1232.0	10.23816134692836	2.718358758506421	2027.0	0.0	1858.123779296875	60887.0	801.0	0.7000000000000001	-131.0	0.5647773279352227	-68.0	-0.25303643724696356	-411.0	4.098486007034715	4.5064028619707095	-317.0	-407.0	5.200810537749676	
1814.0	0.9145549753897161	1210.0	10.503116586590659	2.737280170642337	2014.0	0.0	1877.655029296875	61527.0	801.0	0.7000000000000001	-131.0	0.5647773279352227	-68.0	-0.25303643724696356	-321.0	5.29132894938064	5.272299531911113	-369.0	-485.0	3.8274659752178377	
1787.0	1.6246859405919094	1145.0	11.278117868714746	3.0851827107561176	1955.0	0.0	1897.186279296875	62167.0	812.0	0.7275	-131.0	0.5647773279352227	-90.0	-0.20850202429149797	-286.0	16.638629759902127	4.793061494804734	-367.0	-1227.0	3.2856166668124027	
1754.0	1.545474286892313	1111.0	11.69028583208844	3.4902243149323784	1962.0	0.0	1916.717529296875	62807.0	812.0	0.7275	-131.0	0.5647773279352227	-90.0	-0.20850202429149797	-239.0	31.105673650405265	5.590532050194427	-456.0	-2173.0	2.572400640434429	
1774.0	0.759820050835573	1112.0	11.696290797843027	3.241524016465216	2028.0	0.0	1936.248779296875	63447.0	812.0	0.7275	-131.0	0.5647773279352227	-90.0	-0.20850202429149797	-40.0	33.858388132742014	12.109291888970352	-885.0	-2353.0	-0.41596400914466825	
1813.0	0.39791982628265254	1152.0	11.220554056836683	2.758510761327271	2058.0	0.0	1955.780029296875	64087.0	812.0	0.7275	-131.0	0.5647773279352227	-90.0	-0.20850202429149797	39.0	30.784523627465976	18.996487152166466	-1324.0	-2152.0	-1.5593062655045746	
1826.0	0.15574340307269036	1186.0	10.812435545364277	2.591300120841627	2078.0	0.0	1975.311279296875	64727.0	817.0	0.74	-143.0	0.5404858299595142	-90.0	-0.20850202429149797	-318.0	28.460009175714944	27.35564865409655	-1865.0	-2000.0	4.002266015465318	
1810.0	-0.10832224851781792	1204.0	10.596346576789635	2.777108769291578	2100.0	0.0	1994.842529296875	65367.0	817.0	0.74	-143.0	0.5404858299595142	-90.0	-0.20850202429149797	-596.0	25.06499464749962	35.139137664148045	-2365.0	-1778.0	8.345867362524556	
1844.0	-0.49074187167573985	1217.0	10.449622356235535	2.36071153443205	2132.0	0.0	2014.373779296875	471.0	817.0	0.74	-143.0	0.5404858299595142	-90.0	-0.20850202429149797	-505.0	15.675179691084265	41.9116497785087	-2780.0	-1164.0	7.017244470778796	
1829.0	-0.2917110096959511	1244.0	10.114613316119176	2.536724553815785	2115.0	0.0	2033.905029296875	1111.0	823.0	0.755	-156.0	0.5141700404858299	-78.0	-0.23279352226720648	-777.0	7.906407707600551	46.10271802109437	-3035.0	-656.0	11.232854708214628	
1838.0	-0.44899092982709776	1265.0	9.862811779194985	2.421681988936231	2128.0	0.0	2053.436279296875	1751.0	823.0	0.755	-156.0	0.5141700404858299	-78.0	-0.23279352226720648	-356.0	-0.9175714941122497	39.04521025813343	-2549.0	-79.0	4.702252010514433	
1842.0	-0.4874969762455847	1288.0	9.583635708774874	2.3675206359793064	2131.0	0.0	2072.967529296875	2391.0	823.0	0.755	-156.0	0.5141700404858299	-78.0	-0.23279352226720648	-105.0	-12.922465208747516	34.05757432354046	-2191.0	706.0	0.8009102529791516	
1849.0	-0.26146541809925944	1289.0	9.567743904359773	2.285125766074877	2112.0	0.0	2092.498779296875	3031.0	823.0	0.755	-156.0	0.5141700404858299	-78.0	-0.23279352226720648	42.0	-18.993729928123567	29.12427451021629	-1853.0	1103.0	-1.504061842898451	
1854.0	-0.16477760832330485	1277.0	9.712715358145708	2.228751109392934	2104.0	0.0	2112.030029296875	3671.0	821.0	0.75	-166.0	0.4939271255060729	-41.0	-0.3076923076923077	34.0	-17.984401284600093	21.46922611265291	-1358.0	1037.0	-1.4578564576090856	
1838.0	0.24341887028904868	1248.0	10.056172743190583	2.4324733062173047	2070.0	0.0	2131.561279296875	4311.0	821.0	0.75	-166.0	0.4939271255060729	-41.0	-0.3076923076923077	-41.0	-6.83590763113626	10.183803331158895	-654.0	308.0	-0.41987441106465784	
1846.0	0.3181340881106055	1221.0	10.384837382489122	2.343408209012816	2064.0	0.0	2151.092529296875	4951.0	821.0	0.75	-166.0	0.4939271255060729	-41.0	-0.3076923076923077	124.0	2.0645358617525615	1.1937968679905104	-91.0	-274.0	-3.041614279286951	
1856.0	0.4084111547118646	1164.0	11.0792107092817	2.237716518503837	2057.0	0.0	2170.623779296875	5591.0	819.0	0.745	-158.0	0.5101214574898786	-66.0	-0.25708502024291496	146.0	9.435693531120968	-7.4186090584565365	450.0	-756.0	-3.4653169790301694	
1811.0	0.28572024839608523	1096.0	11.905358172941854	2.795181233412677	2068.0	0.0	2190.155029296875	6231.0	819.0	0.745	-158.0	0.5101214574898786	-66.0	-0.25708502024291496	-183.0	21.60880868634348	-14.215912581656639	857.0	-1552.0	1.5150451092609234	
1741.0	0.02707516779369558	1069.0	12.231326303179083	3.642487639187302	2090.0	0.0	2209.686279296875	6871.0	819.0	0.745	-158.0	0.5101214574898786	-66.0	-0.25708502024291496	10.0	24.30035173573941	-17.323951676565834	1054.0	-1728.0	-1.4775206277062753	
1723.0	0.21895423788803187	1057.0	12.371614264993662	3.8640796590040547	2074.0	0.0	2229.217529296875	7511.0	823.0	0.755	-161.0	0.5040485829959515	-62.0	-0.2651821862348178	746.0	18.70316562165469	-16.295030524578433	1009.0	-1362.0	-12.760771388566333	
1718.0	0.325460034583896	1062.0	12.307908220294363	3.9241115599324488	2065.0	0.0	2248.748779296875	8151.0	823.0	0.755	-161.0	0.5040485829959515	-62.0	-0.2651821862348178	1447.0	15.10934393638171	-14.59795113949259	915.0	-1127.0	-23.50028363906103	
1739.0	0.3109011042333747	1084.0	12.042491375718422	3.665645585544654	2066.0	0.0	2268.280029296875	8791.0	823.0	0.755	-161.0	0.5040485829959515	-62.0	-0.2651821862348178	2360.0	9.129836366416884	-10.38891663203411	666.0	-736.0	-37.46770687385448	
1761.0	0.05719885705371208	1115.0	11.67226665775216	3.3906438277496767	2087.0	0.0	2287.811279296875	9431.0	823.0	0.755	-161.0	0.5040485829959515	-62.0	-0.2651821862348178	2998.0	4.74078605291329	-6.0242150805569485	400.0	-449.0	-47.2138404322234	
1804.0	0.30634709730170295	1122.0	11.587090682551246	2.8733595014915116	2066.0	0.0	2307.342529296875	10071.0	821.0	0.75	-163.0	0.5	-40.0	-0.3097165991902834	3684.0	0.8716929194066372	-0.9500517127204127	87.0	-196.0	-57.68941458801873	
1834.0	0.10294581624668092	1131.0	11.485057815144284	2.507839048200292	2083.0	0.0	2326.873779296875	10711.0	821.0	0.75	-163.0	0.5	-40.0	-0.3097165991902834	3829.0	3.5785288270377738	4.2702781845403965	-258.0	-373.0	-59.862161419474226	
1850.0	0.35449958614704313	1118.0	11.640434805180504	2.3206910413626707	2062.0	0.0	2346.405029296875	11351.0	821.0	0.75	-163.0	0.5	-40.0	-0.3097165991902834	4018.0	1.1775500841107205	4.718300832687046	-279.0	-216.0	-62.75778860437837	
1886.0	0.7111264331116232	1122.0	11.588833787352796	1.8894903497167261	2032.0	0.0	2365.936279296875	11991.0	814.0	0.7325	-171.0	0.48380566801619435	-1.0	-0.38866396761133604	4149.0	4.664321761737269	5.675592931899294	-349.0	-444.0	-64.75834304260061	
1877.0	0.6859699283676117	1133.0	11.454135693904028	1.9949785577400698	2034.0	0.0	2385.467529296875	12631.0	814.0	0.7325	-171.0	0.48380566801619435	-1.0	-0.38866396761133604	3957.0	18.09145129224652	1.6638237687793573	-125.0	-1322.0	-61.85231987187182	
1908.0	1.0627384235637851	1167.0	11.03574711828328	1.6168844952760022	2002.0	0.0	2404.998779296875	13271.0	814.0	0.7325	-171.0	0.48380566801619435	-1.0	-0.38866396761133604	4110.0	24.147423153387372	-2.63080453730728	140.0	-1718.0	-64.2429721546258	
1956.0	0.620336201734047	1184.0	10.843143982928519	1.0302951573385615	2039.0	0.0	2424.530029296875	13911.0	814.0	0.7325	-171.0	0.48380566801619435	-1.0	-0.38866396761133604	3640.0	39.455574246826735	-8.206247255328492	458.0	-2719.0	-57.08681926248731	
1927.0	-0.5117648003663524	1195.0	10.728281868126668	1.3660744953829662	2134.0	0.0	2444.061279296875	14551.0	806.0	0.7125	-185.0	0.45546558704453444	27.0	-0.44534412955465585	3070.0	44.563388897384925	-12.23550695123577	701.0	-3053.0	-48.38075617431518	
1938.0	-0.9562839223640837	1229.0	10.32398871597261	1.22101332063798	2171.0	0.0	2463.592529296875	15191.0	806.0	0.7125	-185.0	0.45546558704453444	27.0	-0.44534412955465585	3256.0	33.8125095580364	-10.992560639564749	650.0	-2350.0	-51.222400671609705	
1962.0	-0.42418353575088985	1258.0	9.9625988058634	0.9299498997959036	2126.0	0.0	2483.123779296875	15831.0	806.0	0.7125	-185.0	0.45546558704453444	27.0	-0.44534412955465585	3537.0	22.327573023398074	-8.321415200888792	509.0	-1599.0	-55.50748912515604	
1961.0	-0.9465480946816873	1247.0	10.10709529373604	0.9396643767351327	2170.0	0.0	2502.655029296875	16471.0	803.0	0.705	-201.0	0.4230769230769231	40.0	-0.4716599190283401	3353.0	26.089616149258298	-5.9161534893810925	341.0	-1845.0	-52.660051514945984	
1933.0	-1.3159209933190579	1250.0	10.074567334760882	1.2726694861596175	2201.0	0.0	2522.186279296875	17111.0	803.0	0.705	-201.0	0.4230769230769231	40.0	-0.4716599190283401	3428.0	16.1645511546108	-1.8932163326423388	106.0	-1196.0	-53.77065841773796	
1960.0	-1.3866931845951704	1245.0	10.140205350006774	0.9479733197324969	2207.0	0.0	2541.717529296875	17751.0	803.0	0.705	-201.0	0.4230769230769231	40.0	-0.4716599190283401	3819.0	3.135035938216853	2.2408472931398955	-125.0	-344.0	-59.729010891806986	
2006.0	-1.023715372760098	1197.0	10.72370081922828	0.40905613976539834	2177.0	0.0	2561.248779296875	18391.0	799.0	0.6950000000000001	-203.0	0.4190283400809717	57.0	-0.5060728744939271	4138.0	-8.19697201406943	2.88145269352381	-134.0	397.0	-64.61749512474499	
2021.0	-0.3156502241425755	1247.0	10.101644252409118	0.22297276834892527	2117.0	0.0	2580.780029296875	19031.0	799.0	0.6950000000000001	-203.0	0.4190283400809717	57.0	-0.5060728744939271	4140.0	-10.39914359993883	1.1702944429367332	-17.0	541.0	-64.66529567456712	
2021.0	-0.43260158448679864	1230.0	10.311270122748702	0.2259957721522747	2127.0	0.0	2600.311279296875	19671.0	799.0	0.6950000000000001	-203.0	0.4190283400809717	57.0	-0.5060728744939271	3912.0	-2.0492430035173577	0.9090148664905027	-24.0	-5.0	-61.16936619627909	
2043.0	-0.4105988841239451	1245.0	10.130587778081686	-0.042458088701292446	2125.0	0.0	2619.842529296875	20311.0	799.0	0.6950000000000001	-203.0	0.4190283400809717	57.0	-0.5060728744939271	4002.0	2.9515216393944033	-0.7537353018563684	72.0	-332.0	-62.5669972271938	
2058.0	-0.449579292189412	1272.0	9.803975542963563	-0.23010302905057464	2128.0	0.0	2639.373779296875	20951.0	779.0	0.645	-201.0	0.4230769230769231	92.0	-0.576923076923077	3956.0	10.414436458174034	-3.335625003068639	220.0	-820.0	-61.88696987593218	
2105.0	-0.9854950456961968	1275.0	9.78382876371365	-0.8021301824116046	2173.0	0.0	2658.905029296875	21591.0	779.0	0.645	-201.0	0.4230769230769231	92.0	-0.576923076923077	3965.0	13.503593821685275	-4.7959199175648735	307.0	-1022.0	-62.03967317800027	
2102.0	-1.1538384715134462	1289.0	9.616152848655382	-0.7710225566576894	2187.0	0.0	2678.436279296875	22231.0	779.0	0.645	-201.0	0.4230769230769231	92.0	-0.576923076923077	3804.0	11.163786511699037	-6.895719356666055	448.0	-869.0	-59.59020930343317	
2133.0	-0.31275564371656195	1322.0	9.200626104534281	-1.144416239165757	2116.0	0.0	2697.967529296875	22871.0	764.0	0.6075	-204.0	0.41700404858299595	114.0	-0.6214574898785425	3926.0	5.750114696436764	-8.02935900077428	537.0	-515.0	-61.47357270616549	
2144.0	-0.9321532457155893	1326.0	9.165627809393431	-1.283840301570492	2168.0	0.0	2717.498779296875	23511.0	764.0	0.6075	-204.0	0.41700404858299595	114.0	-0.6214574898785425	3594.0	12.769536626395475	-14.559472852901532	940.0	-974.0	-56.444505270189296	
2204.0	-0.44627805731787273	1344.0	8.943622839641288	-2.006313215346618	2127.0	0.0	2737.030029296875	24151.0	764.0	0.6075	-204.0	0.41700404858299595	114.0	-0.6214574898785425	3610.0	6.010093286435235	-16.762961723481467	1101.0	-532.0	-56.71205189742509	
2195.0	-0.497433544135578	1373.0	8.589978919775533	-1.9054639136723508	2131.0	0.0	2756.561279296875	24791.0	764.0	0.6075	-204.0	0.41700404858299595	114.0	-0.6214574898785425	3009.0	6.988836213488302	-18.60157755197742	1212.0	-596.0	-47.50840337717698	
2196.0	-0.6522850522239267	1374.0	8.58101858713113	-1.9192398281772065	2144.0	0.0	2776.092529296875	25431.0	753.0	0.58	-202.0	0.42105263157894735	136.0	-0.6659919028340081	2624.0	6.3465361676097265	-19.096379798545012	1242.0	-554.0	-41.60572519126457	
2208.0	-0.9256594033335556	1371.0	8.624535857120623	-2.0656815395415253	2167.0	0.0	2795.623779296875	26071.0	753.0	0.58	-202.0	0.42105263157894735	136.0	-0.6659919028340081	2378.0	3.517357394096957	-16.959952369584933	1108.0	-369.0	-37.80961793707624	
2191.0	-1.22372673656726	1375.0	8.57970729565495	-1.8647395069947426	2192.0	0.0	2815.155029296875	26711.0	753.0	0.58	-202.0	0.42105263157894735	136.0	-0.6659919028340081	2148.0	-3.440893102920936	-14.794350111745318	983.0	86.0	-34.25873067312912	
2192.0	-0.925434868041617	1369.0	8.646989386314482	-1.8724591392673795	2167.0	0.0	2834.686279296875	27351.0	738.0	0.5425	-195.0	0.4352226720647773	164.0	-0.7226720647773279	2198.0	-18.397308456950604	-12.696552893652543	886.0	1064.0	-35.00497688385443	
2228.0	0.14655320269592337	1363.0	8.702939317211385	-2.294355199701102	2077.0	0.0	2854.217529296875	27991.0	738.0	0.5425	-195.0	0.4352226720647773	164.0	-0.7226720647773279	2467.0	-26.67074476219606	-10.84782775997619	790.0	1605.0	-39.114155736553265	
2225.0	-0.19581538676589616	1340.0	8.989889894838958	-2.255895295729916	2106.0	0.0	2873.748779296875	28631.0	738.0	0.5425	-195.0	0.4352226720647773	164.0	-0.7226720647773279	2353.0	-15.95045113931794	-8.94083883578159	637.0	904.0	-37.34581471028508	
2209.0	-0.4799068059330138	1327.0	9.152176549555755	-2.0627193924899014	2130.0	0.0	2893.280029296875	29271.0	722.0	0.5025000000000001	-190.0	0.44534412955465585	154.0	-0.7024291497975709	2326.0	-9.879186419941888	-6.480802635041897	461.0	507.0	-36.90691328950832	
2219.0	-0.3494563018418607	1331.0	9.101988863432977	-2.182900568882289	2119.0	0.0	2912.811279296875	29911.0	722.0	0.5025000000000001	-190.0	0.44534412955465585	154.0	-0.7024291497975709	2680.0	-10.84263648875975	-6.17262449356655	447.0	570.0	-42.33577872306978	
2271.0	-0.51968392654731	1361.0	8.74589305955471	-2.8182307853032946	2133.0	0.0	2932.342529296875	30551.0	722.0	0.5025000000000001	-190.0	0.44534412955465585	154.0	-0.7024291497975709	3156.0	-10.368557883468421	-4.549720799686647	345.0	539.0	-49.623523907398436	
2295.0	-0.2971670624468153	1391.0	8.378531850556566	-3.1125094673482763	2114.0	0.0	2951.873779296875	31191.0	722.0	0.5025000000000001	-190.0	0.44534412955465585	154.0	-0.7024291497975709	3429.0	-7.631136259366876	-2.679350901770664	219.0	360.0	-53.79386424708738	
2283.0	-1.4276628604526873	1389.0	8.424190145207461	-2.9783229461823058	2209.0	0.0	2971.405029296875	31831.0	710.0	0.47250000000000003	-177.0	0.4716599190283401	165.0	-0.7246963562753036	3122.0	2.5997858999847074	-1.520675087653952	114.0	-309.0	-49.07152100590186	
2340.0	-1.00069362341446	1402.0	8.263970991887323	-3.664004624830133	2173.0	0.0	2990.936279296875	32471.0	710.0	0.47250000000000003	-177.0	0.4716599190283401	165.0	-0.7246963562753036	3428.0	-10.628536473466893	0.008958394786521384	52.0	556.0	-53.751636670463675	
2311.0	-1.0966789232424812	1408.0	8.189250532894732	-3.3170612966468194	2181.0	0.0	3010.467529296875	33111.0	710.0	0.47250000000000003	-177.0	0.4716599190283401	165.0	-0.7246963562753036	3216.0	-16.990365499311824	-0.5535371931002524	103.0	972.0	-50.50423109082007	
2355.0	-1.2905990203155016	1437.0	7.844859873211748	-3.85600879273892	2197.0	0.0	3029.998779296875	33751.0	686.0	0.41250000000000003	-188.0	0.4493927125506073	201.0	-0.7975708502024291	3289.0	-24.51445175103227	0.8198655628137054	34.0	1464.0	-51.610644370304044	
2430.0	-0.5218526404537573	1478.0	7.3385454784337965	-4.7620620746671865	2132.0	0.0	3049.530029296875	34391.0	686.0	0.41250000000000003	-188.0	0.4493927125506073	201.0	-0.7975708502024291	3532.0	-35.70882397920172	1.7355389486651764	6.0	2196.0	-55.33019716536988	
2400.0	-0.22091625494774553	1450.0	7.670279267130207	-4.3909722519056675	2107.0	0.0	3069.061279296875	35031.0	686.0	0.41250000000000003	-188.0	0.4493927125506073	201.0	-0.7975708502024291	2901.0	-34.31717387979814	-0.8317070975006702	163.0	2105.0	-45.67350043755472	
2422.0	-0.29181637024222445	1446.0	7.72312488053946	-4.655684581754284	2113.0	0.0	3088.592529296875	35671.0	686.0	0.41250000000000003	-188.0	0.4493927125506073	201.0	-0.7975708502024291	2611.0	-27.267166233369018	-3.5421839354245828	318.0	1644.0	-41.250704945077736	
2418.0	1.4373138264843233	1419.0	8.017096934146618	-4.584321067630537	1968.0	0.0	3108.123779296875	36311.0	662.0	0.3525	-161.0	0.5040485829959515	209.0	-0.8137651821862348	2481.0	-27.618901972778716	-5.778264814809927	463.0	1667.0	-39.27828287831536	
2438.0	-0.31547993853767775	1445.0	7.737720431946511	-4.848400390746447	2115.0	0.0	3127.655029296875	36951.0	662.0	0.3525	-161.0	0.5040485829959515	209.0	-0.8137651821862348	2261.0	-5.933628995259214	-4.7875160600052675	340.0	249.0	-35.892588985979835	
2448.0	-0.29276027619083184	1454.0	7.628734285678725	-4.970834844759177	2113.0	0.0	3147.186279296875	37591.0	662.0	0.3525	-161.0	0.5040485829959515	209.0	-0.8137651821862348	2344.0	-0.948157210582658	-2.1441295538059064	156.0	-77.0	-37.13974726454221	
2435.0	-0.3732887688670905	1431.0	7.909218351386185	-4.809403942347695	2120.0	0.0	3166.717529296875	38231.0	647.0	0.315	-166.0	0.4939271255060729	222.0	-0.840080971659919	2356.0	-0.8869857776418414	0.6853157771831371	-28.0	-81.0	-37.295586615129814	
2453.0	-0.9005065388744691	1460.0	7.56839373160072	-5.0383600823229955	2164.0	0.0	3186.248779296875	38871.0	647.0	0.315	-166.0	0.4939271255060729	222.0	-0.840080971659919	2521.0	-4.129071723505123	2.3783731957904095	-128.0	131.0	-39.81049584453435	
2504.0	0.11186584453761911	1455.0	7.61515588233334	-5.6417589467995235	2079.0	0.0	3205.780029296875	39511.0	647.0	0.315	-166.0	0.4939271255060729	222.0	-0.840080971659919	2794.0	-17.326808380486316	5.439791279983405	-290.0	994.0	-43.968925702360515	
2478.0	-0.26989462478054593	1462.0	7.534347045754933	-5.333939716176079	2111.0	0.0	3225.311279296875	40151.0	629.0	0.27	-163.0	0.5	236.0	-0.868421052631579	2394.0	-14.66585104756079	5.133565434655335	-281.0	820.0	-37.83419449756384	
2518.0	-0.08318750365562498	1493.0	7.1574401106279755	-5.821538494510744	2095.0	0.0	3244.842529296875	40791.0	629.0	0.27	-163.0	0.5	236.0	-0.868421052631579	2399.0	-16.02691543049396	4.604302702806849	-243.0	909.0	-37.916209543172954	
2532.0	1.1168963880134166	1510.0	6.927734039436887	-5.982806475813056	1994.0	0.0	3264.373779296875	41431.0	629.0	0.27	-163.0	0.5	236.0	-0.868421052631579	2428.0	-18.96314421165316	1.6808088245140849	-45.0	1101.0	-38.3904345080415	
2538.0	0.6512483557273081	1522.0	6.7915022393974755	-6.062476748763211	2033.0	0.0	3283.905029296875	42071.0	629.0	0.27	-163.0	0.5	236.0	-0.868421052631579	2065.0	-5.123107508793394	-0.8510210468905282	80.0	196.0	-32.845705238856205	
2548.0	0.0905080830690667	1533.0	6.669855925954289	-6.190999005469501	2080.0	0.0	3303.436279296875	42711.0	614.0	0.2325	-161.0	0.5040485829959515	224.0	-0.8441295546558705	1846.0	9.11454350818168	-2.6537666452343727	158.0	-735.0	-29.503290773710287	
2539.0	0.6475924899633908	1552.0	6.425915663005735	-6.0818732317197695	2033.0	0.0	3322.967529296875	43351.0	614.0	0.2325	-161.0	0.5040485829959515	224.0	-0.8441295546558705	1862.0	7.01942192995871	-3.382692962982088	211.0	-598.0	-29.75609177541776	
2538.0	-0.12752559285310908	1564.0	6.295059762308141	-6.080193337790801	2098.0	0.0	3342.498779296875	43991.0	614.0	0.2325	-161.0	0.5040485829959515	224.0	-0.8441295546558705	1636.0	10.139165009940358	-3.2499117685572063	192.0	-802.0	-26.286910656737287	
2566.0	0.04084794137259619	1550.0	6.465746518212001	-6.412445264920828	2084.0	0.0	3362.030029296875	44631.0	607.0	0.215	-167.0	0.49190283400809715	235.0	-0.8663967611336032	1646.0	5.8112861293775815	-1.1219293548423108	65.0	-519.0	-26.419075669181385	
2527.0	0.35038449476810385	1549.0	6.467020905381813	-5.939444893571188	2058.0	0.0	3381.561279296875	45271.0	607.0	0.215	-167.0	0.49190283400809715	235.0	-0.8663967611336032	1411.0	-2.3245144517510323	1.9051807222906048	-113.0	13.0	-22.782850908750703	
2583.0	-0.3197378528763385	1579.0	6.1214528076042445	-6.627756274183907	2114.0	0.0	3401.092529296875	45911.0	607.0	0.215	-167.0	0.49190283400809715	235.0	-0.8663967611336032	1418.0	-7.2488148034867725	4.579501488590173	-274.0	335.0	-22.863519086694584	
2592.0	0.1812696474651283	1570.0	6.222202841750924	-6.7291649334373185	2072.0	0.0	3420.623779296875	46551.0	607.0	0.215	-167.0	0.49190283400809715	235.0	-0.8663967611336032	1475.0	-12.830708059336292	7.241652683186164	-432.0	700.0	-23.711533143261743	
2582.0	-0.1482297836508872	1539.0	6.605593063482707	-6.6043101956029995	2100.0	0.0	3440.155029296875	47191.0	598.0	0.1925	-165.0	0.4959514170040486	235.0	-0.8663967611336032	1080.0	-6.83590763113626	7.756457666003996	-485.0	308.0	-17.645314048474226	
2608.0	0.12579984392297058	1537.0	6.627603439916106	-6.914382703846786	2077.0	0.0	3459.686279296875	47831.0	598.0	0.1925	-165.0	0.4959514170040486	235.0	-0.8663967611336032	849.0	-10.980272212876587	6.640935884533745	-404.0	579.0	-14.111893541262075	
2578.0	-0.004552844558272137	1532.0	6.687572687029928	-6.553041062656792	2088.0	0.0	3479.217529296875	48471.0	598.0	0.1925	-165.0	0.4959514170040486	235.0	-0.8663967611336032	692.0	-10.506193607585258	4.306160294704562	-255.0	548.0	-11.726157362834757	
2578.0	-0.34655211400105135	1506.0	7.011455266561529	-6.549983403760587	2117.0	0.0	3498.748779296875	49111.0	590.0	0.17250000000000001	-164.0	0.4979757085020243	238.0	-0.8724696356275303	430.0	-2.0339501452821533	2.2198470141448543	-144.0	-6.0	-7.726765777211629	
2560.0	0.024350115541537785	1490.0	7.196916316058541	-6.325697690595702	2086.0	0.0	3518.280029296875	49751.0	590.0	0.17250000000000001	-164.0	0.4979757085020243	238.0	-0.8724696356275303	409.0	-7.875821991130143	2.9578399603139207	-177.0	376.0	-7.397151690929315	
2572.0	-0.09526864417348074	1495.0	7.139802249318594	-6.472614472780664	2096.0	0.0	3537.811279296875	50391.0	590.0	0.17250000000000001	-164.0	0.4979757085020243	238.0	-0.8724696356275303	333.0	-5.688943263495948	2.5357179892449584	-156.0	233.0	-6.235192152622512	
2584.0	0.0010618889468159282	1486.0	7.249046037538736	-6.61404460493807	2088.0	0.0	3557.342529296875	51031.0	587.0	0.165	-158.0	0.5101214574898786	241.0	-0.8785425101214575	433.0	-7.27940051995718	2.8761449515066846	-173.0	337.0	-7.766236248812384	
2572.0	0.335532820467073	1476.0	7.362805856231106	-6.463846385996008	2060.0	0.0	3576.873779296875	51671.0	587.0	0.165	-158.0	0.5101214574898786	241.0	-0.8785425101214575	322.0	-5.413671815262273	2.261548424028361	-139.0	215.0	-6.069144528035303	
2569.0	0.38289488281178846	1478.0	7.337107328797893	-6.427742157607972	2056.0	0.0	3596.405029296875	52311.0	587.0	0.165	-158.0	0.5101214574898786	241.0	-0.8785425101214575	266.0	-4.37375745526839	1.5499933922373959	-96.0	147.0	-5.216968993498218	
2574.0	-0.024339624806884175	1499.0	7.089847043121108	-6.497000672253117	2090.0	0.0	3615.936279296875	52951.0	587.0	0.165	-158.0	0.5101214574898786	241.0	-0.8785425101214575	328.0	1.819850129989295	-0.13400032710291376	-2.0	-258.0	-6.185166917495366	
2568.0	0.16974813938366434	1469.0	7.451004414556911	-6.415547490555988	2074.0	0.0	3635.467529296875	53591.0	585.0	0.16	-161.0	0.5040485829959515	244.0	-0.8846153846153846	149.0	0.7034714788193914	-0.193717079552851	3.0	-185.0	-3.439101510215507	
2552.0	0.003461396917496126	1466.0	7.488996834606756	-6.223679425242304	2088.0	0.0	3654.998779296875	54231.0	585.0	0.16	-161.0	0.5040485829959515	244.0	-0.8846153846153846	107.0	-0.5199571799969415	0.7716137836642855	-57.0	-105.0	-2.78497988794209	
2584.0	-0.5837389717616984	1499.0	7.102293300020628	-6.622827668295518	2137.0	0.0	3674.530029296875	54871.0	585.0	0.16	-161.0	0.5040485829959515	244.0	-0.8846153846153846	236.0	0.5505428964673498	2.1328544400898783	-147.0	-175.0	-4.750805873275946	
2587.0	-0.6893938607735128	1487.0	7.251090113124912	-6.657052859236802	2146.0	0.0	3694.061279296875	55511.0	580.0	0.1475	-172.0	0.4817813765182186	274.0	-0.9453441295546559	216.0	-5.10781465055819	2.894422399410886	-182.0	195.0	-4.436300520520239	
2583.0	0.2532046968128041	1468.0	7.4633268241375506	-6.595189368356349	2067.0	0.0	3713.592529296875	56151.0	580.0	0.1475	-172.0	0.4817813765182186	274.0	-0.9453441295546559	212.0	-10.246215017586788	3.437699782472712	-204.0	531.0	-4.369489812057121	
2561.0	-0.1532090115302746	1482.0	7.2981464660201585	-6.337496871638273	2101.0	0.0	3733.123779296875	56791.0	580.0	0.1475	-172.0	0.4817813765182186	274.0	-0.9453441295546559	196.0	-7.050007646429118	1.6155312097718104	-94.0	322.0	-4.14219975925413	
2599.0	0.20207931840355484	1497.0	7.112693745117388	-6.795484368058195	2071.0	0.0	3752.655029296875	57431.0	580.0	0.1475	-172.0	0.4817813765182186	274.0	-0.9453441295546559	240.0	-1.819850129989295	-1.4015733535358896	89.0	-20.0	-4.847528085844704	
2582.0	0.3454967964504224	1492.0	7.168727264089866	-6.588110245789843	2059.0	0.0	3772.186279296875	58071.0	576.0	0.1375	-175.0	0.4757085020242915	260.0	-0.917004048582996	265.0	-0.29056430646887904	-3.396872495131172	215.0	-120.0	-5.25109316871378	
2582.0	0.1322293550219614	1484.0	7.270554549815189	-6.588206374489621	2077.0	0.0	3791.717529296875	58711.0	576.0	0.1375	-175.0	0.4757085020242915	260.0	-0.917004048582996	45.0	8.885150634653618	-6.612288961093363	398.0	-720.0	-1.9074609285859223	
2585.0	-0.10800867416458011	1502.0	7.056275440684845	-6.631038915277346	2097.0	0.0	3811.248779296875	59351.0	576.0	0.1375	-175.0	0.4757085020242915	260.0	-0.917004048582996	17.0	11.148493653463834	-8.429749266335662	510.0	-868.0	-1.4959899892108481	
2590.0	0.5235543718959798	1496.0	7.117341951502737	-6.683742918455805	2044.0	0.0	3830.780029296875	59991.0	581.0	0.15	-161.0	0.5040485829959515	267.0	-0.9311740890688259	15.0	7.906407707600551	-8.961756219524814	553.0	-656.0	-1.4706210914264897	
2575.0	0.21565941705165995	1483.0	7.280227419451708	-6.5028412670790035	2070.0	0.0	3850.311279296875	60631.0	581.0	0.15	-161.0	0.5040485829959515	267.0	-0.9311740890688259	-99.0	4.389050313503594	-7.469683691637947	464.0	-426.0	0.29357077087861827	
2586.0	0.03494287258967501	1501.0	7.065715830396073	-6.641468784786663	2085.0	0.0	3869.842529296875	61271.0	581.0	0.15	-161.0	0.5040485829959515	267.0	-0.9311740890688259	-110.0	3.7773359840954277	-4.9859915593113335	304.0	-386.0	0.4871970124412584	
2609.0	0.5625757273969467	1469.0	7.448048930170866	-6.905654227978035	2041.0	0.0	3889.373779296875	61911.0	580.0	0.1475	-161.0	0.5040485829959515	257.0	-0.9109311740890689	-149.0	-8.30402202171586	-0.432880944298509	39.0	404.0	1.131162981258258	
2572.0	0.6001887143595455	1453.0	7.637919055002163	-6.455697563081662	2038.0	0.0	3908.905029296875	62551.0	580.0	0.1475	-161.0	0.5040485829959515	257.0	-0.9109311740890689	-328.0	-1.513992965285212	-0.1628325284082502	2.0	-40.0	3.8805260402215183	
2578.0	0.1459554427335064	1469.0	7.4526871304935005	-6.536233690914601	2076.0	0.0	3928.436279296875	63191.0	580.0	0.1475	-161.0	0.5040485829959515	257.0	-0.9109311740890689	-116.0	-1.1928429423459246	-0.6045715166153849	32.0	-61.0	0.6230781148169673	
2589.0	0.5142107466230503	1475.0	7.373455614685984	-6.666665888673784	2045.0	0.0	3947.967529296875	63831.0	580.0	0.1475	-161.0	0.5040485829959515	257.0	-0.9109311740890689	-43.0	-0.8869857776418414	-1.2823555026651379	76.0	-81.0	-0.5038470320866484	
2589.0	0.3150399172615128	1449.0	7.69446791662747	-6.662237350928569	2062.0	0.0	3967.498779296875	64471.0	580.0	0.1475	-160.0	0.5060728744939271	264.0	-0.9251012145748988	-190.0	6.040679002905644	-2.812445386659038	156.0	-534.0	1.7364911668177738	
2569.0	0.17352831615693343	1438.0	7.829022091883819	-6.419997528012802	2074.0	0.0	3987.030029296875	65111.0	580.0	0.1475	-160.0	0.5060728744939271	264.0	-0.9251012145748988	-143.0	8.686343477595964	-4.679831941422355	271.0	-707.0	0.9966265693382701	
2575.0	0.12385372242440407	1455.0	7.623467480535646	-6.496894522803598	2078.0	0.0	4006.561279296875	215.0	580.0	0.1475	-160.0	0.5060728744939271	264.0	-0.9251012145748988	-6.0	5.8112861293775815	-5.7281360386008675	348.0	-519.0	-1.1160507327966271	
2570.0	0.4209193415652657	1459.0	7.568124632717046	-6.434789759713139	2053.0	0.0	4026.092529296875	855.0	584.0	0.1575	-166.0	0.4939271255060729	253.0	-0.902834008097166	-69.0	7.38645052760361	-4.9087211454062025	290.0	-622.0	-0.14115411340281145	
2562.0	-0.04328272338947575	1459.0	7.57648956581433	-6.342878939532066	2092.0	0.0	4045.623779296875	1495.0	584.0	0.1575	-166.0	0.4939271255060729	253.0	-0.902834008097166	40.0	5.704236121731152	-3.609639328267493	211.0	-512.0	-1.800712013967039	
2590.0	-0.02151660168194304	1476.0	7.37214935561522	-6.684097480109335	2090.0	0.0	4065.155029296875	2135.0	584.0	0.1575	-166.0	0.4939271255060729	253.0	-0.902834008097166	97.0	0.7952286282306164	-3.2507460733199656	201.0	-191.0	-2.6717586499306836	
2588.0	0.5144533469600625	1473.0	7.397715648387198	-6.654130069225306	2045.0	0.0	4084.686279296875	2775.0	584.0	0.1575	-166.0	0.4939271255060729	253.0	-0.902834008097166	-14.0	1.2693072335219453	-3.286737995199949	201.0	-222.0	-0.9688808830976188	
2589.0	0.24082194347736263	1472.0	7.415527681069594	-6.668558335377569	2068.0	0.0	4104.217529296875	3415.0	584.0	0.1575	-164.0	0.4979757085020243	257.0	-0.9109311740890689	-60.0	4.81725034408931	-3.9894048752697047	237.0	-454.0	-0.2700613036245706	
2586.0	0.2891592245154796	1466.0	7.487351022976531	-6.630493917415795	2064.0	0.0	4123.748779296875	4055.0	584.0	0.1575	-164.0	0.4979757085020243	257.0	-0.9109311740890689	-63.0	3.9302645664474696	-5.092561880447492	311.0	-396.0	-0.23505942270197377	
2568.0	0.7891589890824126	1465.0	7.487327479669822	-6.408626920756743	2022.0	0.0	4143.280029296875	4695.0	584.0	0.1575	-164.0	0.4979757085020243	257.0	-0.9109311740890689	-100.0	3.2726716623336904	-5.33340976948892	328.0	-353.0	0.3302779937582334	
2570.0	0.659820058057395	1452.0	7.648672472406153	-6.4307897957544355	2033.0	0.0	4162.811279296875	5335.0	584.0	0.1575	-161.0	0.5040485829959515	245.0	-0.8866396761133604	-73.0	7.692307692307693	-4.475527313065104	261.0	-642.0	-0.07544424044690085	
2564.0	0.4217654319039626	1452.0	7.652733666586736	-6.360799961505853	2053.0	0.0	4182.342529296875	5975.0	584.0	0.1575	-161.0	0.5040485829959515	245.0	-0.8866396761133604	-12.0	7.722893408778101	-3.021604603793417	167.0	-644.0	-0.9969185164998032	
2567.0	0.13562455540379312	1456.0	7.610074587998361	-6.400659130155875	2077.0	0.0	4201.873779296875	6615.0	584.0	0.1575	-161.0	0.5040485829959515	245.0	-0.8866396761133604	128.0	4.266707447621961	-1.785241102640825	97.0	-418.0	-3.1327825936257643	
2579.0	0.7552936618119506	1450.0	7.672223324052193	-6.5377977776237275	2025.0	0.0	4221.405029296875	7255.0	586.0	0.1625	-156.0	0.5141700404858299	240.0	-0.8765182186234818	281.0	-0.474078605291329	0.04282072619238469	-8.0	-108.0	-5.462207975030542	
2565.0	0.3358900971227309	1473.0	7.398533521796897	-6.378790910520546	2060.0	0.0	4240.936279296875	7895.0	586.0	0.1625	-156.0	0.5141700404858299	240.0	-0.8765182186234818	228.0	4.174950298210736	0.7408276283409244	-66.0	-412.0	-4.641970272128437	
2588.0	0.2170159991274841	1472.0	7.415885627034123	-6.656741043130693	2070.0	0.0	4260.467529296875	8535.0	586.0	0.1625	-156.0	0.5141700404858299	240.0	-0.8765182186234818	361.0	-1.7128001223428662	2.365603481589089	-155.0	-27.0	-6.666538840126568	
2572.0	0.7663342851076267	1457.0	7.585809463143619	-6.455078299211352	2024.0	0.0	4279.998779296875	9175.0	586.0	0.1625	-156.0	0.5141700404858299	240.0	-0.8765182186234818	244.0	-1.1928429423459246	3.449647912655546	-228.0	-61.0	-4.8603938078152895	
2570.0	0.2790661201774255	1451.0	7.6685167796473115	-6.4342004489884115	2065.0	0.0	4299.530029296875	9815.0	582.0	0.1525	-160.0	0.5060728744939271	247.0	-0.8906882591093117	157.0	0.9940357852882705	3.5795438064500344	-243.0	-204.0	-3.5241247706204777	
2567.0	-0.14978852008533994	1454.0	7.640195610513628	-6.402910840460461	2101.0	0.0	4319.061279296875	10455.0	582.0	0.1525	-160.0	0.5060728744939271	247.0	-0.8906882591093117	286.0	-1.2846000917571496	4.090371013734565	-269.0	-55.0	-5.498454890445745	
2584.0	-0.0292815182597862	1442.0	7.786133888307095	-6.603606281994769	2091.0	0.0	4338.592529296875	11095.0	582.0	0.1525	-160.0	0.5060728744939271	247.0	-0.8906882591093117	494.0	-5.750114696436764	5.623628202303471	-355.0	237.0	-8.674774919450037	
2592.0	0.2692625852935748	1434.0	7.878639481738428	-6.695156271259284	2066.0	0.0	4358.123779296875	11735.0	580.0	0.1475	-157.0	0.5121457489878543	239.0	-0.8744939271255061	583.0	-5.077228934087781	6.0410305908004265	-383.0	193.0	-10.036259941138184	
2585.0	0.24764365698582025	1416.0	8.097699031915354	-6.606653920141232	2068.0	0.0	4377.655029296875	12375.0	580.0	0.1475	-157.0	0.5121457489878543	239.0	-0.8744939271255061	760.0	-0.9787429270530663	6.934772187714954	-450.0	-75.0	-12.743296132657147	
2586.0	0.22554675402207078	1402.0	8.268961116492795	-6.615497840250405	2070.0	0.0	4397.186279296875	13015.0	580.0	0.1475	-157.0	0.5121457489878543	239.0	-0.8744939271255061	937.0	-0.948157210582658	6.530045998975858	-422.0	-77.0	-15.463317002032646	
2558.0	0.5385098205442044	1373.0	8.612886816325194	-6.268140297998174	2044.0	0.0	4416.717529296875	13655.0	580.0	0.1475	-157.0	0.5121457489878543	239.0	-0.8744939271255061	1196.0	-4.771371769383698	7.23026098570174	-455.0	173.0	-19.430536119619738	
2551.0	0.7081821287014983	1348.0	8.913450965387932	-6.176094942537756	2030.0	0.0	4436.248779296875	14295.0	570.0	0.1225	-173.0	0.47975708502024295	278.0	-0.9534412955465588	1713.0	-6.958250497017893	10.41166975586084	-651.0	316.0	-27.331820083168722	
2613.0	0.7524530121546444	1376.0	8.578634548797767	-6.929336513842257	2026.0	0.0	4455.780029296875	14935.0	570.0	0.1225	-173.0	0.47975708502024295	278.0	-0.9534412955465588	2308.0	-9.726257837589847	11.951791368064807	-738.0	497.0	-36.44638664363101	
2591.0	0.8385028015587251	1451.0	7.659803965396325	-6.68179238665239	2018.0	0.0	4475.311279296875	15575.0	570.0	0.1225	-173.0	0.47975708502024295	278.0	-0.9534412955465588	1951.0	-7.967579140541368	12.641854598094067	-791.0	382.0	-30.961505345380118	
2598.0	0.11136954047003743	1460.0	7.565525475575172	-6.77528663845729	2079.0	0.0	4494.842529296875	16215.0	560.0	0.0975	-168.0	0.4898785425101215	262.0	-0.9210526315789473	1535.0	-5.061936075852578	13.415417898015516	-853.0	192.0	-24.570464510600942	
2604.0	0.28918090256956785	1466.0	7.489518828385358	-6.847317814406596	2064.0	0.0	4514.373779296875	16855.0	560.0	0.0975	-168.0	0.4898785425101215	262.0	-0.9210526315789473	1348.0	-13.30478666462762	11.424681726909679	-704.0	731.0	-21.720953428242645	
2606.0	0.1640644943407835	1516.0	6.882639910268826	-6.884802942393384	2074.0	0.0	4533.905029296875	17495.0	560.0	0.0975	-168.0	0.4898785425101215	262.0	-0.9210526315789473	1267.0	-12.631900902278637	8.201534060268402	-497.0	687.0	-20.51028172860094	
2623.0	0.4420620010104801	1579.0	6.1109620058099114	-7.102275802524299	2050.0	0.0	4553.436279296875	18135.0	547.0	0.065	-169.0	0.48785425101214575	273.0	-0.9433198380566802	1352.0	-13.67181526227252	7.548655284954895	-451.0	755.0	-21.82109162729469	
2596.0	0.28900530655478845	1565.0	6.281483036431227	-6.775094744037152	2063.0	0.0	4572.967529296875	18775.0	547.0	0.065	-169.0	0.48785425101214575	273.0	-0.9433198380566802	1053.0	-4.052607432329102	8.163938361477225	-519.0	126.0	-17.22693818275012	
2617.0	-0.8637926603253597	1551.0	6.477876824606883	-7.0357068961352125	2160.0	0.0	4592.498779296875	19415.0	547.0	0.065	-169.0	0.48785425101214575	273.0	-0.9433198380566802	1132.0	-2.0645358617525615	10.31136673731582	-663.0	-4.0	-18.4176781079836	
2636.0	-0.5693799885192347	1577.0	6.1572392433146375	-7.268091183693598	2135.0	0.0	4612.030029296875	20055.0	547.0	0.065	-169.0	0.48785425101214575	273.0	-0.9433198380566802	1295.0	-10.490900749350054	9.919741808320802	-614.0	547.0	-20.92274519354791	
2633.0	0.10783246549089694	1587.0	6.021341787184932	-7.2278924299628375	2078.0	0.0	4631.561279296875	20695.0	538.0	0.0425	-172.0	0.4817813765182186	280.0	-0.9574898785425101	1261.0	-13.641229545802112	8.687023205734128	-526.0	753.0	-20.41335993519753	
2647.0	-0.24909987166679678	1586.0	6.04239378570127	-7.399715412159268	2108.0	0.0	4651.092529296875	21335.0	538.0	0.0425	-172.0	0.4817813765182186	280.0	-0.9574898785425101	1115.0	-7.75347912524851	8.275328923351491	-516.0	368.0	-18.177182263935123	
2643.0	-0.5680306324614398	1566.0	6.292174849094111	-7.34971632741502	2135.0	0.0	4670.623779296875	21975.0	538.0	0.0425	-172.0	0.4817813765182186	280.0	-0.9574898785425101	963.0	-7.478207677014835	8.087190775228738	-506.0	350.0	-15.846702129381365	
2647.0	-0.2953684259904503	1575.0	6.177443115240682	-7.3974771111117175	2112.0	0.0	4690.155029296875	22615.0	527.0	0.015	-182.0	0.46153846153846156	285.0	-0.9676113360323887	1018.0	-10.414436458174034	7.213320601993245	-441.0	542.0	-16.699387432310587	
2675.0	0.035737413556430904	1593.0	5.9546937365954715	-7.735970437879514	2084.0	0.0	4709.686279296875	23255.0	527.0	0.015	-182.0	0.46153846153846156	285.0	-0.9676113360323887	1085.0	-8.04404343171739	5.544580923820684	-338.0	387.0	-17.744155234186685	
2664.0	-0.1904208642719224	1593.0	5.95791357280776	-7.605637503451624	2103.0	0.0	4729.217529296875	23895.0	527.0	0.015	-182.0	0.46153846153846156	285.0	-0.9676113360323887	820.0	-1.498700107050008	4.165484796817571	-268.0	-41.0	-13.691658026053613	
2650.0	-0.41524182940586335	1582.0	6.094864678461284	-7.436471992194711	2122.0	0.0	4748.748779296875	24535.0	527.0	0.015	-182.0	0.46153846153846156	285.0	-0.9676113360323887	720.0	0.948157210582658	3.790805257366706	-251.0	-201.0	-12.160956455635633	
2649.0	-0.1529032842465577	1578.0	6.138243003915658	-7.4209328474629475	2100.0	0.0	4768.280029296875	25175.0	519.0	-0.005	-183.0	0.45951417004048584	289.0	-0.9757085020242915	810.0	-2.0186572870469495	2.769721314599458	-176.0	-7.0	-13.552170824294548	
2676.0	-0.2133578358926775	1586.0	6.045168791684628	-7.748700082043306	2105.0	0.0	4787.811279296875	25815.0	519.0	-0.005	-183.0	0.45951417004048584	289.0	-0.9757085020242915	918.0	-3.5326502523321612	2.0009062684029786	-121.0	92.0	-15.217063209834002	
2661.0	-0.2153263383245541	1602.0	5.848318548496971	-7.571933880365113	2105.0	0.0	4807.342529296875	26455.0	519.0	-0.005	-183.0	0.45951417004048584	289.0	-0.9757085020242915	788.0	-4.832543202324515	3.0326971560694957	-186.0	177.0	-13.211962425401097	
2683.0	-0.1794708305681273	1601.0	5.862440752711082	-7.8363531221671225	2102.0	0.0	4826.873779296875	27095.0	516.0	-0.0125	-187.0	0.451417004048583	276.0	-0.9493927125506073	808.0	-6.728857623489831	4.480494000709308	-275.0	301.0	-13.5043741301172	
2671.0	-0.24009425366811354	1610.0	5.75247939509341	-7.694580270297464	2107.0	0.0	4846.405029296875	27735.0	516.0	-0.0125	-187.0	0.451417004048583	276.0	-0.9493927125506073	661.0	-7.64642911760208	5.602050233577729	-347.0	361.0	-11.237519470044154	
2681.0	-0.3473254427023376	1611.0	5.743646205956715	-7.816311173681383	2116.0	0.0	4865.936279296875	28375.0	516.0	-0.0125	-187.0	0.451417004048583	276.0	-0.9493927125506073	592.0	-9.63450068817862	6.578440447857687	-406.0	491.0	-10.168986195490737	
2644.0	-0.02417747791393072	1596.0	5.9155855419402625	-7.363857774783708	2089.0	0.0	4885.467529296875	29015.0	512.0	-0.0225	-193.0	0.4392712550607287	293.0	-0.9838056680161943	421.0	-9.84860070347148	5.760970186431228	-354.0	505.0	-7.553254192565641	
2658.0	-0.43964644641207373	1587.0	6.035355358792631	-7.534291766926822	2124.0	0.0	4904.998779296875	29655.0	512.0	-0.0225	-193.0	0.4392712550607287	293.0	-0.9838056680161943	478.0	-7.141764795840343	4.600184011378319	-285.0	328.0	-8.43949762282929	
2659.0	-0.06096364391924428	1605.0	5.808397512837476	-7.547092288592081	2092.0	0.0	4924.530029296875	30295.0	512.0	-0.0225	-193.0	0.4392712550607287	293.0	-0.9838056680161943	507.0	-9.083957791711272	4.49774488876883	-273.0	455.0	-8.885512040141005	
2670.0	-0.18058360797060102	1610.0	5.751163012463705	-7.681963298721999	2102.0	0.0	4944.061279296875	30935.0	512.0	-0.0225	-193.0	0.4392712550607287	293.0	-0.9838056680161943	509.0	-4.4196360299740025	1.7275381160055698	-105.0	150.0	-8.94390307518489	
2655.0	0.11634806547020302	1615.0	5.68242559463935	-7.499645838777813	2077.0	0.0	4963.592529296875	31575.0	506.0	-0.0375	-189.0	0.4473684210526316	279.0	-0.9554655870445344	456.0	-1.3610643829331703	-0.6946501912174037	44.0	-50.0	-8.154867324376498	
2668.0	-0.015537566925272972	1623.0	5.589100450329845	-7.659457704012054	2088.0	0.0	4983.123779296875	32215.0	506.0	-0.0375	-189.0	0.4473684210526316	279.0	-0.9554655870445344	519.0	2.8597644899831782	-1.8996887417398998	112.0	-326.0	-9.133620180343593	
2701.0	0.01959977451082332	1628.0	5.531406022510904	-8.057850580599855	2085.0	0.0	5002.655029296875	32855.0	506.0	-0.0375	-189.0	0.4473684210526316	279.0	-0.9554655870445344	534.0	2.355100168221441	-1.708014925969632	101.0	-293.0	-9.361870697057764	
2673.0	-0.18204282300168861	1622.0	5.605241509354951	-7.721040899247737	2102.0	0.0	5022.186279296875	33495.0	501.0	-0.05	-192.0	0.44129554655870445	291.0	-0.979757085020243	187.0	3.410307386450528	-1.1267077527791818	57.0	-362.0	-4.031521795956516	
2676.0	0.09000866744958674	1636.0	5.429438173530104	-7.757981029372974	2079.0	0.0	5041.717529296875	34135.0	501.0	-0.05	-192.0	0.44129554655870445	291.0	-0.979757085020243	271.0	-1.513992965285212	1.3133357115107522	-88.0	-40.0	-5.29605798859611	
2691.0	0.15051380122191252	1628.0	5.527570598381729	-7.936136221104484	2074.0	0.0	5061.248779296875	34775.0	501.0	-0.05	-192.0	0.44129554655870445	291.0	-0.979757085020243	294.0	-3.0738645052760365	2.7788978966488527	-179.0	62.0	-5.634325490881602	
2691.0	-0.10975360855025316	1615.0	5.691305811641351	-7.935464190937014	2096.0	0.0	5080.780029296875	35415.0	501.0	-0.05	-192.0	0.44129554655870445	291.0	-0.979757085020243	235.0	-2.263343018810216	5.02915385006984	-328.0	9.0	-4.706498395518022	
2680.0	-0.6440325808512031	1604.0	5.834837152974929	-7.805406233351422	2141.0	0.0	5100.311279296875	36055.0	502.0	-0.0475	-184.0	0.4574898785425101	278.0	-0.9534412955465588	180.0	-3.211500229392874	6.335236721631339	-411.0	71.0	-3.8494909656055376	
2706.0	-0.36322048141093305	1644.0	5.344618525573361	-8.125655496953243	2117.0	0.0	5119.842529296875	36695.0	502.0	-0.0475	-184.0	0.4574898785425101	278.0	-0.9534412955465588	389.0	-10.460315032879647	7.3493590721966475	-456.0	545.0	-7.04634682664799	
2716.0	-0.24455044498987485	1647.0	5.3068602629172785	-8.245705889552998	2107.0	0.0	5139.373779296875	37335.0	502.0	-0.0475	-184.0	0.4574898785425101	278.0	-0.9534412955465588	381.0	-11.332007952286283	6.998478096258183	-431.0	602.0	-6.9270997671423755	
2693.0	-0.4697479561608855	1639.0	5.406156764863834	-7.968863500890839	2126.0	0.0	5158.905029296875	37975.0	496.0	-0.0625	-190.0	0.44534412955465585	280.0	-0.9574898785425101	152.0	-8.716929194066372	6.274283040235979	-393.0	431.0	-3.4204549599919942	
2690.0	-0.3991906654860057	1646.0	5.319028689494673	-7.933755911178219	2120.0	0.0	5178.436279296875	38615.0	496.0	-0.0625	-190.0	0.44534412955465585	280.0	-0.9574898785425101	164.0	-9.466279247591375	4.552694166437621	-279.0	480.0	-3.621804652627476	
2704.0	-0.19732112400887866	1650.0	5.267887599112133	-8.10143473636628	2103.0	0.0	5197.967529296875	39255.0	496.0	-0.0625	-190.0	0.44534412955465585	280.0	-0.9574898785425101	264.0	-11.913136565224042	3.650774708350922	-213.0	640.0	-5.165272213020834	
2708.0	-0.10331636997611646	1660.0	5.144553478578829	-8.151154142320957	2095.0	0.0	5217.498779296875	39895.0	490.0	-0.0775	-202.0	0.42105263157894735	294.0	-0.9858299595141701	176.0	-10.58265789876128	3.2303027389201047	-190.0	553.0	-3.8191623708001505	
2695.0	-0.02184397135125038	1675.0	4.958460007732105	-7.997434781727545	2088.0	0.0	5237.030029296875	40535.0	490.0	-0.0775	-202.0	0.42105263157894735	294.0	-0.9858299595141701	53.0	-10.414436458174034	3.527697653486191	-211.0	542.0	-1.928816931705126	
2708.0	0.09756109209887369	1672.0	4.994204447982607	-8.15215234831213	2078.0	0.0	5256.561279296875	41175.0	490.0	-0.0775	-202.0	0.42105263157894735	294.0	-0.9858299595141701	68.0	-12.1272365805169	3.1986057691126004	-185.0	654.0	-2.162275105420735	
2708.0	-0.21068150471039815	1662.0	5.122325719436378	-8.152672348851148	2104.0	0.0	5276.092529296875	41815.0	490.0	-0.0775	-202.0	0.42105263157894735	294.0	-0.9858299595141701	-88.0	-14.008258143447012	4.926401585983221	-294.0	777.0	0.248742303415456	
