Device	Device	Device	Device	Device	Device	Device	Device	Device	Device	Device	Device	Device	Device	Device	Device	Device	Device	Device	Device	Device	
Low Noise Accelerometer X	Low Noise Accelerometer X	Low Noise Accelerometer Z	Low Noise Accelerometer Z	Low Noise Accelerometer Y	Low Noise Accelerometer Y	Event_Marker	Timestamp	Timestamp	Magnetometer Z	Magnetometer Z	Magnetometer X	Magnetometer X	Magnetometer Y	Magnetometer Y	Gyroscope Y	Gyroscope Y	Gyroscope Z	Gyroscope Z	Gyroscope X	Gyroscope X	
CAL	UNCAL	UNCAL	CAL	CAL	UNCAL	CAL	UNCAL	CAL	UNCAL	CAL	CAL	UNCAL	CAL	UNCAL	CAL	UNCAL	CAL	UNCAL	UNCAL	CAL	
m/(s^2)	no units	no units	m/(s^2)	m/(s^2)	no units	no units	no units	ms	no units	local_flux	local_flux	no units	local_flux	no units	deg/s	no units	deg/s	no units	no units	deg/s	
-0.38790304413735055	1932.0	1253.0	10.019219395788756	1.2928908996430761	2123.0	0.0	29873.0	911.651611328125	816.0	0.7375	-0.38461538461538464	-600.0	-0.5708502024291499	89.0	1.6975072641076618	-198.0	-1.5633135670466431	86.0	-250.0	1.8717383542788968	
-0.47279352553447485	1941.0	1266.0	9.863504589409658	1.180493963761764	2130.0	0.0	30513.0	931.182861328125	816.0	0.7375	-0.38461538461538464	-600.0	-0.5708502024291499	89.0	2.8597644899831782	-191.0	-1.6702480443170158	90.0	-326.0	1.763257623899319	
-0.5310983955649561	1931.0	1256.0	9.98539853874249	1.3028307217589592	2135.0	0.0	31153.0	950.714111328125	809.0	0.72	-0.38461538461538464	-600.0	-0.5607287449392713	84.0	2.079828719987766	-184.0	-1.3149847994050956	69.0	-275.0	1.6593988707415637	
-0.5802865842871229	1936.0	1269.0	9.828484428430569	1.2389595938100775	2139.0	0.0	31793.0	970.245361328125	809.0	0.72	-0.38461538461538464	-600.0	-0.5607287449392713	84.0	1.1010857929346995	-182.0	-1.337054981170782	73.0	-211.0	1.628489201607657	
-0.557098581974988	1930.0	1274.0	9.76633227869168	1.310237587464927	2137.0	0.0	32433.0	989.776611328125	809.0	0.72	-0.38461538461538464	-600.0	-0.5607287449392713	84.0	1.0857929346994954	-200.0	-0.7393573371575463	34.0	-210.0	1.9106668838940377	
-0.687784460385124	1927.0	1272.0	9.792982532916186	1.345608312078569	2148.0	0.0	33073.0	1009.307861328125	808.0	0.7175	-0.3765182186234818	-596.0	-0.5344129554655871	71.0	0.764642911760208	-193.0	-0.7562000358836073	36.0	-189.0	1.8030870712999028	
-0.6634969283702358	1923.0	1268.0	9.840783353452613	1.3949999748937836	2146.0	0.0	33713.0	1028.839111328125	808.0	0.7175	-0.3765182186234818	-596.0	-0.5344129554655871	71.0	-0.2752714482336749	-178.0	-1.1429660811046458	64.0	-121.0	1.5690521559758188	
-0.664466125381946	1928.0	1276.0	9.743863652281581	1.332810925044824	2146.0	0.0	34353.0	1048.370361328125	808.0	0.7175	-0.3765182186234818	-596.0	-0.5344129554655871	71.0	-0.3058571647040832	-173.0	-2.4483360464732775	149.0	-119.0	1.479276038031508	
-0.6423668137455202	1929.0	1290.0	9.572842434971788	1.3175633010439083	2144.0	0.0	34993.0	1067.901611328125	808.0	0.7175	-0.3765182186234818	-596.0	-0.5344129554655871	71.0	0.2752714482336749	-213.0	-3.1852287438844966	195.0	-157.0	2.085686457382392	
-0.5945111203724129	1931.0	1288.0	9.596507010377769	1.2944187639435902	2140.0	0.0	35633.0	1087.432861328125	815.0	0.735	-0.3805668016194332	-598.0	-0.5506072874493927	79.0	0.5352500382321457	-232.0	-3.552298356768291	218.0	-174.0	2.373560950757927	
-0.66410764438995	1922.0	1273.0	9.779711751481194	1.4058206284652424	2146.0	0.0	36273.0	1106.964111328125	815.0	0.735	-0.3805668016194332	-598.0	-0.5506072874493927	79.0	-0.9022786358770455	-262.0	-3.4378830008978	214.0	-80.0	2.835039614060379	
-0.6157583199884507	1929.0	1267.0	9.85273942972637	1.3234273258765705	2142.0	0.0	36913.0	1126.495361328125	815.0	0.735	-0.3805668016194332	-598.0	-0.5506072874493927	79.0	-0.9634500688178621	-339.0	-3.6933418322703773	230.0	-76.0	4.014010267422272	
-0.6030086553066453	1924.0	1260.0	9.937229707430706	1.385485591932897	2141.0	0.0	37553.0	1146.026611328125	811.0	0.725	-0.36639676113360325	-591.0	-0.5344129554655871	71.0	-0.5964214711729623	-439.0	-3.769506590012885	233.0	-100.0	5.547696985657337	
-0.6386071106900012	1913.0	1259.0	9.948812740523692	1.5178913885228509	2144.0	0.0	38193.0	1165.557861328125	811.0	0.725	-0.36639676113360325	-591.0	-0.5344129554655871	71.0	-1.2998929499923537	-551.0	-5.081295777730115	319.0	-54.0	7.253161263490154	
-0.31614961248614537	1910.0	1250.0	10.051705418052133	1.5593183953687113	2117.0	0.0	38833.0	1185.089111328125	811.0	0.725	-0.36639676113360325	-591.0	-0.5344129554655871	71.0	-0.6728857623489831	-502.0	-5.5448961258673775	348.0	-95.0	6.49664556076066	
-0.5780065699804414	1906.0	1250.0	10.056485859098716	1.6049882056990374	2139.0	0.0	39473.0	1204.620361328125	811.0	0.725	-0.36639676113360325	-591.0	-0.5344129554655871	71.0	2.7833001988071575	-362.0	-7.445812066233499	464.0	-321.0	4.3294086892195125	
-0.7680751700697235	1909.0	1247.0	10.097244897789563	1.5677581221587082	2155.0	0.0	40113.0	1224.151611328125	809.0	0.72	-0.3684210526315789	-592.0	-0.5303643724696356	69.0	2.7068359076311364	-273.0	-6.752347299676756	420.0	-316.0	2.9706842913119638	
-0.8161626247527989	1917.0	1251.0	10.050404191386782	1.4699548913151472	2159.0	0.0	40753.0	1243.682861328125	809.0	0.72	-0.3684210526315789	-592.0	-0.5303643724696356	69.0	-1.605750114696437	-212.0	-5.755324235164939	367.0	-34.0	2.044641018811463	
-0.60179204061257	1922.0	1250.0	10.058891176838248	1.4120273730101573	2141.0	0.0	41393.0	1263.214111328125	809.0	0.72	-0.3684210526315789	-592.0	-0.5303643724696356	69.0	-4.725493194678085	-239.0	-5.111745418352292	333.0	170.0	2.4653778657489616	
-0.4113565291769241	1920.0	1250.0	10.05482327278378	1.4379467555855932	2125.0	0.0	42033.0	1282.745361328125	813.0	0.73	-0.3582995951417004	-587.0	-0.5425101214574899	75.0	-3.150328796452057	-299.0	-5.107047909803128	328.0	67.0	3.3860938603219477	
-0.590611449935145	1930.0	1256.0	9.986474054104548	1.3143052942935827	2140.0	0.0	42673.0	1302.276611328125	813.0	0.73	-0.3582995951417004	-587.0	-0.5425101214574899	75.0	-1.1775500841107205	-297.0	-4.185898106092838	263.0	-62.0	3.3646163910428	
-0.6255919632807573	1926.0	1250.0	10.059851290971896	1.363615804981811	2143.0	0.0	43313.0	1321.807861328125	813.0	0.73	-0.3582995951417004	-587.0	-0.5425101214574899	75.0	-2.4315644593974617	-295.0	-2.3512732332602027	147.0	20.0	3.352273672454877	
-0.5897569292420806	1931.0	1249.0	10.071926123411004	1.3039746881155583	2140.0	0.0	43953.0	1341.339111328125	815.0	0.735	-0.36639676113360325	-591.0	-0.5425101214574899	75.0	-3.1809145129224654	-256.0	-0.6695824209015651	40.0	69.0	2.7706557179115925	
-0.5420303642236777	1927.0	1248.0	10.082677863346522	1.3528597596487901	2136.0	0.0	44593.0	1360.870361328125	815.0	0.735	-0.36639676113360325	-591.0	-0.5425101214574899	75.0	-1.146964367640312	-213.0	-0.6674312694310698	35.0	-64.0	2.110864432126926	
-0.6489078896112586	1927.0	1246.0	10.109211038874145	1.3523216479054667	2145.0	0.0	45233.0	1380.401611328125	815.0	0.735	-0.36639676113360325	-591.0	-0.5425101214574899	75.0	0.7034714788193914	-179.0	-1.1053617590316223	59.0	-185.0	1.5847726828546742	
-0.6365203189304641	1925.0	1242.0	10.157491916477397	1.3775075267065082	2144.0	0.0	45873.0	1399.932861328125	815.0	0.735	-0.36639676113360325	-591.0	-0.5425101214574899	75.0	0.382321455880104	-169.0	-1.2140284341590213	67.0	-164.0	1.430241179522151	
-0.6608150769633816	1923.0	1246.0	10.108968494138027	1.4003904962215603	2146.0	0.0	46513.0	1419.464111328125	812.0	0.7275	-0.36639676113360325	-591.0	-0.5708502024291499	89.0	-0.015292858235204161	-144.0	-0.8712947874640211	46.0	-138.0	1.0500564245359783	
-0.6010630352651952	1920.0	1244.0	10.131791711575714	1.4375890593005491	2141.0	0.0	47153.0	1438.995361328125	812.0	0.7275	-0.36639676113360325	-591.0	-0.5708502024291499	89.0	-0.36702859764489987	-99.0	-0.8349417266627702	45.0	-115.0	0.35991819052837004	
-0.6373856786505728	1915.0	1249.0	10.07095594446653	1.4962500813799333	2144.0	0.0	47793.0	1458.526611328125	812.0	0.7275	-0.36639676113360325	-591.0	-0.5708502024291499	89.0	0.7952286282306164	-30.0	-1.4091656105528392	80.0	-191.0	-0.7045934207211492	
-0.6611904186641131	1915.0	1249.0	10.071434324064882	1.496021601571765	2146.0	0.0	48433.0	1478.057861328125	819.0	0.745	-0.37044534412955465	-593.0	-0.5607287449392713	84.0	0.16822144058724578	18.0	-1.2998196610622186	75.0	-150.0	-1.4400351768162383	
-0.6026489699783109	1919.0	1257.0	9.973198240264143	1.4464495232982708	2141.0	0.0	49073.0	1497.589111328125	819.0	0.745	-0.37044534412955465	-593.0	-0.5607287449392713	84.0	0.29056430646887904	79.0	-1.6029679035375193	95.0	-158.0	-2.3790801623866105	
-0.5786040383004349	1916.0	1255.0	9.996739027099359	1.483305366665007	2139.0	0.0	49713.0	1517.120361328125	819.0	0.745	-0.37044534412955465	-593.0	-0.5607287449392713	84.0	0.8411072029362289	60.0	-1.8739939508431178	111.0	-194.0	-2.090245233355293	
-0.6032669120160545	1912.0	1262.0	9.911404036489785	1.5295448091999966	2141.0	0.0	50353.0	1536.651611328125	819.0	0.745	-0.37044534412955465	-593.0	-0.5607287449392713	84.0	-0.12234286588163329	63.0	-1.66581169407368	100.0	-131.0	-2.134196861761974	
-0.520557424979363	1914.0	1267.0	9.849019406825605	1.505027825934911	2134.0	0.0	50993.0	1556.182861328125	817.0	0.74	-0.3866396761133603	-601.0	-0.548582995951417	78.0	-0.948157210582658	80.0	-1.8147426515854501	112.0	-77.0	-2.396542393525215	
-0.5681644963337672	1916.0	1267.0	9.850217033289956	1.4804793222084855	2138.0	0.0	51633.0	1575.714111328125	817.0	0.74	-0.3866396761133603	-601.0	-0.548582995951417	78.0	0.5964214711729623	83.0	-1.8606786218641163	111.0	-178.0	-2.443035204202376	
-0.6155313760238356	1915.0	1265.0	9.875433826187875	1.4925581820406277	2142.0	0.0	52273.0	1595.245361328125	817.0	0.74	-0.3866396761133603	-601.0	-0.548582995951417	78.0	0.1988071570576541	50.0	-1.8652195237012883	112.0	-152.0	-1.936712652502626	
-0.4492675159480939	1912.0	1268.0	9.83515316709538	1.529559785772788	2128.0	0.0	52913.0	1614.776611328125	812.0	0.7275	-0.37044534412955465	-593.0	-0.5303643724696356	69.0	-0.7034714788193914	12.0	-1.850343018591592	113.0	-93.0	-1.3534735084427827	
-0.6041190240364427	1913.0	1269.0	9.826192834450977	1.5157838712679321	2141.0	0.0	53553.0	1634.307861328125	812.0	0.7275	-0.37044534412955465	-593.0	-0.5303643724696356	69.0	0.6117143294081664	-2.0	-2.335753106398086	141.0	-179.0	-1.143504838107099	
-0.5804313690142247	1917.0	1270.0	9.814005955720399	1.4675842391592053	2139.0	0.0	54193.0	1653.839111328125	812.0	0.7275	-0.37044534412955465	-593.0	-0.5303643724696356	69.0	-0.5352500382321457	-9.0	-2.2909531255466273	141.0	-104.0	-1.0356454526917103	
-0.5442354453108752	1918.0	1266.0	9.86216975462677	1.456861281603282	2136.0	0.0	54833.0	1673.370361328125	818.0	0.7425	-0.36639676113360325	-591.0	-0.5404858299595142	74.0	-0.9940357852882705	-35.0	-2.261211986644598	140.0	-74.0	-0.6363914661914422	
-0.5087745486365917	1916.0	1268.0	9.836830850626555	1.4808054980321894	2133.0	0.0	55473.0	1692.901611328125	818.0	0.7425	-0.36639676113360325	-591.0	-0.5404858299595142	74.0	0.04587857470561248	-62.0	-1.8916678061608476	113.0	-142.0	-0.21839496561723226	
-0.5557757213166344	1915.0	1263.0	9.898618344527032	1.4936194289544826	2137.0	0.0	56113.0	1712.432861328125	818.0	0.7425	-0.36639676113360325	-591.0	-0.5404858299595142	74.0	0.24468573176326658	-72.0	-1.424351557005486	82.0	-155.0	-0.06027696654442958	
-0.531849078966419	1915.0	1262.0	9.910330198596197	1.4940929324593681	2135.0	0.0	56753.0	1731.964111328125	818.0	0.7425	-0.36639676113360325	-591.0	-0.5404858299595142	74.0	-0.42820003058571654	-61.0	-1.103517587895092	63.0	-111.0	-0.2258579470926996	
-0.543992844973863	1917.0	1264.0	9.886429788327984	1.4693971010517608	2136.0	0.0	57393.0	1751.495361328125	819.0	0.745	-0.3623481781376518	-589.0	-0.5242914979757085	66.0	-0.21410001529285827	-71.0	-1.1443764487561066	65.0	-125.0	-0.07282169912006069	
-0.5448449569942511	1918.0	1271.0	9.801218586289174	1.4556361631196963	2136.0	0.0	58033.0	1771.026611328125	819.0	0.745	-0.3623481781376518	-589.0	-0.5242914979757085	66.0	-0.18351429882244993	-54.0	-1.4659863807803655	86.0	-127.0	-0.3368940206284267	
-0.5555246906252547	1921.0	1261.0	9.923721413665012	1.4218348440176498	2137.0	0.0	58673.0	1790.557861328125	819.0	0.745	-0.3623481781376518	-589.0	-0.5242914979757085	66.0	0.18351429882244993	-71.0	-1.3140865391595482	75.0	-151.0	-0.07451880002409511	
-0.5085223136088736	1923.0	1266.0	9.86205435339836	1.3969751410403122	2133.0	0.0	59313.0	1810.089111328125	814.0	0.7325	-0.35627530364372473	-586.0	-0.5425101214574899	75.0	0.3058571647040832	-159.0	-1.7323800410682335	101.0	-159.0	1.2716128268718097	
-0.6163738533535177	1924.0	1272.0	9.791186093219657	1.3824310676682074	2142.0	0.0	59953.0	1829.620361328125	814.0	0.7325	-0.35627530364372473	-586.0	-0.5425101214574899	75.0	0.7034714788193914	-180.0	-1.8591700183968278	108.0	-185.0	1.592579083919147	
-0.4605519439171203	1919.0	1263.0	9.897186560668917	1.4463502599669782	2129.0	0.0	60593.0	1849.151611328125	814.0	0.7325	-0.35627530364372473	-586.0	-0.5425101214574899	75.0	-0.4434928888209207	-187.0	-1.1222380509286178	63.0	-110.0	1.7073597892007033	
-0.5453277489955989	1922.0	1275.0	9.752939386154395	1.40647298011265	2136.0	0.0	61233.0	1868.682861328125	814.0	0.7325	-0.35627530364372473	-586.0	-0.5425101214574899	75.0	0.42820003058571654	-164.0	-0.8151977650267918	41.0	-167.0	1.3575070679228487	
-0.6766159130710814	1925.0	1278.0	9.719361073844249	1.3683439539124391	2147.0	0.0	61873.0	1888.214111328125	816.0	0.7375	-0.3522267206477733	-584.0	-0.5263157894736842	67.0	1.1928429423459246	-169.0	-0.5235526436117218	20.0	-217.0	1.437145937427624	
-0.6877892777304768	1923.0	1272.0	9.79250079838089	1.3937914002987468	2148.0	0.0	62513.0	1907.745361328125	816.0	0.7375	-0.3522267206477733	-584.0	-0.5263157894736842	67.0	-0.9022786358770455	-196.0	-0.6899901294785014	36.0	-80.0	1.8497826213383284	
-0.5582041333594323	1923.0	1283.0	9.655777140247245	1.3923527785797842	2137.0	0.0	63153.0	1927.276611328125	816.0	0.7375	-0.3522267206477733	-584.0	-0.5263157894736842	67.0	-3.4714788193913444	-261.0	-1.2124337475453821	76.0	88.0	2.8419496229357786	
-0.5092597493106159	1918.0	1272.0	9.788310783224128	1.4557338591352318	2133.0	0.0	63793.0	1946.807861328125	813.0	0.73	-0.37044534412955465	-593.0	-0.5668016194331984	87.0	-1.605750114696437	-314.0	-2.079603448226051	127.0	-34.0	3.646535559809592	
-0.6286479520520045	1919.0	1275.0	9.754252413847158	1.4418106169491942	2143.0	0.0	64433.0	1966.339111328125	813.0	0.73	-0.37044534412955465	-593.0	-0.5668016194331984	87.0	-0.6423000458785748	-323.0	-2.780889027995859	170.0	-97.0	3.777623056935018	
-0.5568595946469905	1926.0	1272.0	9.790231011491423	1.358910723078539	2137.0	0.0	65073.0	1985.870361328125	813.0	0.73	-0.37044534412955465	-593.0	-0.5668016194331984	87.0	-4.266707447621961	-308.0	-1.9261130882711772	124.0	140.0	3.556003561460391	
-0.38937671120449696	1923.0	1265.0	9.871852689074116	1.3983625637778712	2123.0	0.0	177.0	2005.401611328125	816.0	0.7375	-0.3582995951417004	-587.0	-0.52834008097166	68.0	-6.086557577611256	-363.0	-1.3849629486691388	93.0	259.0	4.405361664053282	
-0.6248605492607061	1926.0	1244.0	10.132992692977009	1.3650859471621137	2143.0	0.0	817.0	2024.932861328125	816.0	0.7375	-0.3582995951417004	-587.0	-0.52834008097166	68.0	-2.0186572870469495	-493.0	-1.6137506569308084	96.0	-7.0	6.397856662526903	
-0.8338602045691974	1927.0	1201.0	10.661598590699313	1.3615198757923905	2161.0	0.0	1457.0	2044.464111328125	816.0	0.7375	-0.3582995951417004	-587.0	-0.52834008097166	68.0	-1.4681143905795995	-632.0	-1.4263862082473597	81.0	-43.0	8.532613535493098	
-0.9246762284669928	1939.0	1165.0	11.103805724729286	1.2248775449810003	2169.0	0.0	2097.0	2063.995361328125	816.0	0.7375	-0.3582995951417004	-587.0	-0.52834008097166	68.0	-3.5326502523321612	-715.0	0.2738076671863727	-25.0	92.0	9.823207617871804	
-0.8712335013245768	1924.0	1117.0	11.68617367706613	1.4177822228654262	2165.0	0.0	2737.0	2083.526611328125	816.0	0.7375	-0.340080971659919	-578.0	-0.5384615384615384	73.0	-2.5997858999847074	-739.0	3.170530281747377	-216.0	31.0	10.22044245181241	
-1.1510426823356659	1921.0	1069.0	12.276684147385794	1.4629389187749615	2189.0	0.0	3377.0	2103.057861328125	816.0	0.7375	-0.340080971659919	-578.0	-0.5384615384615384	73.0	3.4256002446857323	-644.0	5.266602069859797	-367.0	-363.0	8.78367722217167	
-1.3537142551640915	1913.0	974.0	13.438098293114665	1.5805260281299294	2207.0	0.0	4017.0	2122.589111328125	816.0	0.7375	-0.340080971659919	-578.0	-0.5384615384615384	73.0	9.068664933476068	-575.0	6.820270430946681	-482.0	-732.0	7.740444533371919	
-1.8081641331848177	1905.0	894.0	14.421681919613455	1.6920387440483724	2246.0	0.0	4657.0	2142.120361328125	826.0	0.7625000000000001	-0.3825910931174089	-599.0	-0.5384615384615384	73.0	11.94372228169445	-631.0	9.46521553092105	-662.0	-920.0	8.626185069226658	
-2.2594693400579757	1913.0	886.0	14.529256470392893	1.5932916408265552	2284.0	0.0	5297.0	2161.651611328125	826.0	0.7625000000000001	-0.3825910931174089	-599.0	-0.5384615384615384	73.0	4.4655146046796155	-716.0	15.857414614244327	-1059.0	-431.0	9.994388171000507	
-2.201193374099612	1899.0	896.0	14.404472113848293	1.7600534121504274	2279.0	0.0	5937.0	2181.182861328125	826.0	0.7625000000000001	-0.3825910931174089	-599.0	-0.5384615384615384	73.0	-18.56552989753785	-705.0	23.393957653689863	-1489.0	1075.0	9.900964281155588	
-1.9081842534865026	1866.0	933.0	13.943479413254508	2.151354010790466	2254.0	0.0	6577.0	2200.714111328125	826.0	0.7625000000000001	-0.3825910931174089	-599.0	-0.5384615384615384	73.0	-43.64581740327267	-765.0	32.78573117746568	-2035.0	2715.0	10.915551035880842	
-1.2879545117277207	1874.0	1020.0	12.871215493894619	2.0397254876521815	2201.0	0.0	7217.0	2220.245361328125	825.0	0.76	-0.3522267206477733	-584.0	-0.5080971659919028	58.0	-60.80440434317175	-517.0	43.83051349799379	-2706.0	3837.0	7.2205669118711455	
-0.6013984324446595	1872.0	1051.0	12.479204374581665	2.0628472116009213	2143.0	0.0	7857.0	2239.776611328125	825.0	0.76	-0.3522267206477733	-584.0	-0.5080971659919028	58.0	-68.16026915430494	-413.0	52.092502827945424	-3223.0	4318.0	5.707360504725672	
0.04965580272861775	1838.0	1080.0	12.10843741571892	2.4715809689922668	2088.0	0.0	8497.0	2259.307861328125	825.0	0.76	-0.3522267206477733	-584.0	-0.5080971659919028	58.0	-64.6582046184432	-317.0	57.15046302897586	-3560.0	4089.0	4.284869675555986	
0.8411329483307654	1831.0	1129.0	11.494247214028922	2.5515492858120785	2021.0	0.0	9137.0	2278.839111328125	831.0	0.775	-0.3157894736842105	-566.0	-0.48380566801619435	46.0	-51.65927511851966	-24.0	63.65835539055434	-4014.0	3239.0	-0.14598511265882674	
1.3118821108329364	1846.0	1173.0	10.950115845198399	2.364651258494225	1981.0	0.0	9777.0	2298.370361328125	831.0	0.775	-0.3157894736842105	-566.0	-0.48380566801619435	46.0	-38.874445633888975	405.0	66.95034732587217	-4257.0	2403.0	-6.695848682641233	
1.9654081141571882	1840.0	1182.0	10.826525701433093	2.4410038722786673	1926.0	0.0	10417.0	2317.901611328125	831.0	0.775	-0.3157894736842105	-566.0	-0.48380566801619435	46.0	-28.872916348065456	703.0	65.18102275079755	-4165.0	1749.0	-11.2861980585132	
2.015794852528357	1818.0	1159.0	11.103294776645201	2.7121033621304766	1922.0	0.0	11057.0	2337.432861328125	841.0	0.8	-0.31376518218623484	-565.0	-0.4493927125506073	29.0	-16.45511546107968	775.0	60.942513866552375	-3921.0	937.0	-12.433385970740646	
1.8738414068579297	1836.0	1152.0	11.193664495316773	2.4956237521676856	1934.0	0.0	11697.0	2356.964111328125	841.0	0.8	-0.31376518218623484	-565.0	-0.4493927125506073	29.0	6.545343324667381	1264.0	57.39060942693218	-3745.0	-567.0	-19.972357523959925	
2.0523853873138496	1843.0	1152.0	11.190919683765895	2.413016946343637	1919.0	0.0	12337.0	2376.495361328125	841.0	0.8	-0.31376518218623484	-565.0	-0.4493927125506073	29.0	20.72182290870164	1425.0	55.3409994325507	-3647.0	-1494.0	-22.463315492861852	
1.6117695487624006	1856.0	1154.0	11.176954876240087	2.25170498578351	1956.0	0.0	12977.0	2396.026611328125	841.0	0.8	-0.31376518218623484	-565.0	-0.4493927125506073	29.0	37.95687413977673	1450.0	53.07128884014842	-3544.0	-2621.0	-22.869624690238997	
1.503784063317699	1847.0	1161.0	11.09269204605563	2.357373609265133	1965.0	0.0	13617.0	2415.557861328125	828.0	0.7675000000000001	-0.36639676113360325	-591.0	-0.4291497975708502	19.0	47.53020339501453	1420.0	51.06881643917893	-3439.0	-3247.0	-22.429314904504945	
1.456443679027072	1868.0	1159.0	11.120558378897668	2.1044454838862965	1969.0	0.0	14257.0	2435.089111328125	828.0	0.7675000000000001	-0.36639676113360325	-591.0	-0.4291497975708502	19.0	51.41458938675639	1523.0	46.453472926555385	-3148.0	-3501.0	-24.055950156418046	
0.5725325591899971	1896.0	1185.0	10.824684490428284	1.7523394973281765	2043.0	0.0	14897.0	2454.620361328125	828.0	0.7675000000000001	-0.36639676113360325	-591.0	-0.4291497975708502	19.0	53.402660957332934	1619.0	41.98980395389233	-2862.0	-3631.0	-25.573657277324667	
0.7108783125500364	1919.0	1222.0	10.373545540717917	1.4675917421326297	2031.0	0.0	15537.0	2474.151611328125	815.0	0.735	-0.4271255060728745	-621.0	-0.4190283400809717	14.0	42.91176020798287	1606.0	40.100296818986216	-2712.0	-2945.0	-25.393074061118103	
1.1130254391094834	1941.0	1243.0	10.11206772047215	1.2013234160294535	1997.0	0.0	16177.0	2493.682861328125	815.0	0.735	-0.4271255060728745	-621.0	-0.4190283400809717	14.0	30.58571647040832	1519.0	36.82704746475404	-2468.0	-2139.0	-24.09083647640356	
1.0887571764760071	1961.0	1247.0	10.0661938380769	0.9591994003335269	1999.0	0.0	16817.0	2513.214111328125	815.0	0.735	-0.4271255060728745	-621.0	-0.4190283400809717	14.0	28.827037773359844	1375.0	32.72250181184109	-2198.0	-2024.0	-21.922276286162703	
0.43219806677093453	1979.0	1263.0	9.88647334376012	0.7321719294706226	2054.0	0.0	17457.0	2532.745361328125	815.0	0.735	-0.4271255060728745	-621.0	-0.4190283400809717	14.0	28.490594892185353	1089.0	28.077864102160717	-1898.0	-2002.0	-17.580200337035784	
0.2547247119456502	1950.0	1254.0	9.996280718374544	1.081990933776104	2069.0	0.0	18097.0	2552.276611328125	808.0	0.7175	-0.451417004048583	-633.0	-0.41700404858299595	13.0	17.143294081663864	490.0	27.14782677488003	-1814.0	-1260.0	-8.39815499909177	
0.743326576561249	1946.0	1249.0	10.04694337041062	1.1360829765473188	2028.0	0.0	18737.0	2571.807861328125	808.0	0.7175	-0.451417004048583	-633.0	-0.41700404858299595	13.0	7.172350512310752	445.0	24.309771039776248	-1604.0	-608.0	-7.736033791827189	
0.8607607289068201	1942.0	1262.0	9.885596700205816	1.1822231557510159	2018.0	0.0	19377.0	2591.339111328125	808.0	0.7175	-0.451417004048583	-633.0	-0.41700404858299595	13.0	4.847836060559719	565.0	19.02252436434336	-1253.0	-456.0	-9.630244297556505	
0.9659147608722131	1928.0	1278.0	9.686714182459397	1.347971744510922	2009.0	0.0	20017.0	2610.870361328125	805.0	0.71	-0.48380566801619435	-649.0	-0.4352226720647773	22.0	3.884385991741857	483.0	12.788527994025154	-846.0	-393.0	-8.434336601293445	
0.580899058553965	1932.0	1312.0	9.280382045872692	1.287802173671668	2041.0	0.0	20657.0	2630.401611328125	805.0	0.71	-0.48380566801619435	-649.0	-0.4352226720647773	22.0	0.3058571647040832	774.0	6.285693613107575	-411.0	-159.0	-12.964609689616967	
1.0771439374107319	1934.0	1342.0	8.90486993154937	1.2611579946316007	1999.0	0.0	21297.0	2649.932861328125	805.0	0.71	-0.48380566801619435	-649.0	-0.4352226720647773	22.0	-1.4834072488148036	1203.0	1.1782558986007856	-70.0	-42.0	-19.59846755609762	
0.9078566056448751	1957.0	1364.0	8.642803421630369	0.9771153573806224	2013.0	0.0	21937.0	2669.464111328125	799.0	0.6950000000000001	-0.4716599190283401	-643.0	-0.4271255060728745	18.0	2.370393026456645	1784.0	-5.700393053421785	373.0	-294.0	-28.582399050988418	
1.217708019557689	1977.0	1361.0	8.675563860530817	0.7399052248760727	1987.0	0.0	22577.0	2688.995361328125	799.0	0.6950000000000001	-0.4716599190283401	-643.0	-0.4271255060728745	18.0	5.520721822908702	2138.0	-11.432181143922655	741.0	-500.0	-34.071664146869644	
-0.05497057675590153	1995.0	1354.0	8.788656610124132	0.5125728240252851	2094.0	0.0	23217.0	2708.526611328125	799.0	0.6950000000000001	-0.4716599190283401	-643.0	-0.4271255060728745	18.0	14.58938675638477	2390.0	-17.293283130767843	1101.0	-1093.0	-37.997085048585575	
0.07838751837038262	1990.0	1334.0	9.029228027514453	0.578958797179776	2083.0	0.0	23857.0	2728.057861328125	799.0	0.6950000000000001	-0.4716599190283401	-643.0	-0.4271255060728745	18.0	11.408472243462304	2385.0	-17.274491395800855	1108.0	-885.0	-37.920174712945276	
0.5284724975404506	1981.0	1352.0	8.799630706426004	0.6873014354894668	2045.0	0.0	24497.0	2747.589111328125	795.0	0.685	-0.48380566801619435	-649.0	-0.4676113360323887	38.0	7.20293622878116	2774.0	-17.56954687031881	1142.0	-610.0	-43.89212941070104	
0.3385390474875643	1995.0	1348.0	8.85390474875643	0.5178128830403657	2061.0	0.0	25137.0	2767.120361328125	795.0	0.685	-0.48380566801619435	-649.0	-0.4676113360323887	38.0	6.040679002905644	2997.0	-17.365800766258282	1134.0	-534.0	-47.3119118054223	
0.006401121072871149	2021.0	1339.0	8.97344544062045	0.2036293055653064	2089.0	0.0	25777.0	2786.651611328125	795.0	0.685	-0.48380566801619435	-649.0	-0.4676113360323887	38.0	7.034714788193914	3247.0	-15.967556164469062	1043.0	-599.0	-51.13405027393563	
0.1848376512281746	2040.0	1340.0	8.959955599007937	-0.023771788615993217	2074.0	0.0	26417.0	2806.182861328125	774.0	0.6325000000000001	-0.48380566801619435	-649.0	-0.5384615384615384	73.0	3.440893102920936	3385.0	-14.249192608602037	942.0	-364.0	-53.23440538319819	
0.3038806206772878	2056.0	1340.0	8.959490639157353	-0.21536174245586318	2064.0	0.0	27057.0	2825.714111328125	774.0	0.6325000000000001	-0.48380566801619435	-649.0	-0.5384615384615384	73.0	-1.2693072335219453	3441.0	-11.868150446872196	800.0	-56.0	-54.06988604643589	
0.48303772582559823	2066.0	1335.0	9.018058296845542	-0.33288074596145967	2049.0	0.0	27697.0	2845.245361328125	774.0	0.6325000000000001	-0.48380566801619435	-649.0	-0.5384615384615384	73.0	2.6303716164551156	3550.0	-11.038413407646267	737.0	-311.0	-55.734137394779246	
0.7060349732547644	2084.0	1361.0	8.698735420714529	-0.5539047008893063	2030.0	0.0	28337.0	2864.776611328125	774.0	0.6325000000000001	-0.48380566801619435	-649.0	-0.5384615384615384	73.0	12.295458021104146	3709.0	-12.12347632610895	784.0	-943.0	-58.18476092560573	
1.1802058315382082	2106.0	1377.0	8.4967736300113	-0.8182624690843919	1990.0	0.0	28977.0	2884.307861328125	760.0	0.5975	-0.4777327935222672	-646.0	-0.6052631578947368	106.0	24.606208900443495	3884.0	-14.080935910746678	881.0	-1748.0	-60.88962016162397	
-0.16398480042591373	2144.0	1371.0	8.601519957408629	-1.2874407741572913	2103.0	0.0	29617.0	2903.839111328125	760.0	0.5975	-0.4777327935222672	-646.0	-0.6052631578947368	106.0	49.57944639853189	3978.0	-21.586764540318285	1305.0	-3381.0	-62.40705991178342	
-1.0927124855735837	2163.0	1374.0	8.585894299784469	-1.5259562268118536	2181.0	0.0	30257.0	2923.370361328125	760.0	0.5975	-0.4777327935222672	-646.0	-0.6052631578947368	106.0	68.3590763113626	3773.0	-28.01404854064745	1672.0	-4609.0	-59.32571360187111	
-1.3529582172916614	2181.0	1361.0	8.751797318452917	-1.7421080936351836	2203.0	0.0	30897.0	2942.901611328125	737.0	0.54	-0.5101214574898786	-662.0	-0.6720647773279352	139.0	63.31243309374523	3673.0	-32.27257137102127	1961.0	-4279.0	-57.83385046436236	
-2.540845352154377	2209.0	1342.0	9.010702879800462	-2.086158251347221	2303.0	0.0	31537.0	2962.432861328125	737.0	0.54	-0.5101214574898786	-662.0	-0.6720647773279352	139.0	52.53096803792629	3633.0	-34.32378751108846	2122.0	-3574.0	-57.240583279438034	
-2.1594843112637077	2207.0	1338.0	9.05156887362925	-2.0574309355195703	2271.0	0.0	32177.0	2981.964111328125	737.0	0.54	-0.5101214574898786	-662.0	-0.6720647773279352	139.0	33.414895243921094	3514.0	-33.22372281700073	2099.0	-2324.0	-55.40358907718029	
-0.7559654171221734	2219.0	1346.0	8.927267811592188	-2.1904600810719077	2153.0	0.0	32817.0	3001.495361328125	709.0	0.47000000000000003	-0.5263157894736842	-670.0	-0.7368421052631579	171.0	12.540143752867412	3799.0	-29.745748714814148	1930.0	-959.0	-59.74198717872403	
-0.60098478067912	2224.0	1344.0	8.949140979707051	-2.248713775200602	2140.0	0.0	33457.0	3021.026611328125	709.0	0.47000000000000003	-0.5263157894736842	-670.0	-0.7368421052631579	171.0	9.527450680532192	3837.0	-30.20388973165087	1968.0	-762.0	-60.32965896790114	
-1.3845558379853375	2253.0	1328.0	9.163463820513872	-2.6016606193189737	2206.0	0.0	34097.0	3040.557861328125	709.0	0.47000000000000003	-0.5263157894736842	-670.0	-0.7368421052631579	171.0	14.252943875210278	3724.0	-30.76398444085086	1991.0	-1071.0	-58.60133326162503	
-1.5291005454707376	2245.0	1342.0	8.994707357688133	-2.5100956534816676	2218.0	0.0	34737.0	3060.089111328125	709.0	0.47000000000000003	-0.5263157894736842	-670.0	-0.7368421052631579	171.0	14.084722434623032	3708.0	-30.02143700888609	1943.0	-1060.0	-58.34839604877538	
-0.17417237173137684	2252.0	1358.0	8.773239017338506	-2.5853130879488573	2104.0	0.0	35377.0	3079.620361328125	685.0	0.41000000000000003	-0.5101214574898786	-662.0	-0.8036437246963563	204.0	5.780700412907173	3907.0	-29.41268549853223	1927.0	-517.0	-61.3958607816387	
-1.8261119694763788	2295.0	1338.0	9.0554697190288	-3.1142601590491275	2243.0	0.0	36017.0	3099.151611328125	685.0	0.41000000000000003	-0.5101214574898786	-662.0	-0.8036437246963563	204.0	23.70393026456645	3665.0	-31.981596820323947	2045.0	-1689.0	-57.70818484959038	
-2.604410352073477	2285.0	1376.0	8.606583840271302	-3.0105389327394048	2308.0	0.0	36657.0	3118.682861328125	685.0	0.41000000000000003	-0.5101214574898786	-662.0	-0.8036437246963563	204.0	3.4256002446857323	3776.0	-31.66107750779742	2078.0	-363.0	-59.408217342516984	
-1.4762427418278163	2287.0	1397.0	8.32810676959931	-3.028923183592557	2213.0	0.0	37297.0	3138.214111328125	666.0	0.3625	-0.5060728744939271	-660.0	-0.8360323886639677	220.0	-10.750879339348526	4101.0	-33.85888051816212	2261.0	564.0	-64.41715256151123	
-0.24033826815615697	2294.0	1413.0	8.109030327241447	-3.105283017100588	2109.0	0.0	37937.0	3157.745361328125	666.0	0.3625	-0.5060728744939271	-660.0	-0.8360323886639677	220.0	-11.668450833460774	4153.0	-34.66014208940157	2316.0	624.0	-65.22307832744612	
-1.0232588663434987	2357.0	1392.0	8.388399079935866	-3.8665609926068867	2175.0	0.0	38577.0	3177.276611328125	666.0	0.3625	-0.5060728744939271	-660.0	-0.8360323886639677	220.0	3.1044502217464447	3902.0	-34.81270781359093	2285.0	-342.0	-61.373138586498655	
-1.4205269893061452	2374.0	1429.0	7.947301069385487	-4.084174911155954	2208.0	0.0	39217.0	3196.807861328125	666.0	0.3625	-0.5060728744939271	-660.0	-0.8360323886639677	220.0	-3.7161645511546113	3596.0	-32.17208832970559	2128.0	104.0	-56.65132039227358	
-1.111651998423071	2393.0	1434.0	7.882419205311961	-4.311299461179196	2182.0	0.0	39857.0	3216.339111328125	638.0	0.2925	-0.46963562753036436	-642.0	-0.888663967611336	246.0	-7.967579140541368	3433.0	-33.365179598342465	2215.0	382.0	-54.16210046868559	
-0.8600016172491364	2388.0	1420.0	8.047457322705405	-4.245241231164167	2161.0	0.0	40497.0	3235.870361328125	638.0	0.2925	-0.46963562753036436	-642.0	-0.888663967611336	246.0	-11.13320079522863	3180.0	-34.21560841490038	2276.0	589.0	-50.28845039134557	
-0.9337090992961593	2407.0	1439.0	7.819566260860254	-4.479451789872142	2167.0	0.0	41137.0	3255.401611328125	638.0	0.2925	-0.46963562753036436	-642.0	-0.888663967611336	246.0	-13.992965285211808	3165.0	-36.01073885651919	2400.0	776.0	-50.07623444088988	
0.5191126598861874	2408.0	1433.0	7.863646940999689	-4.476090151448615	2045.0	0.0	41777.0	3274.932861328125	618.0	0.2425	-0.4251012145748988	-620.0	-0.9008097165991903	252.0	-12.448386603456187	3243.0	-34.98389856862978	2330.0	675.0	-51.26283576334473	
0.6145826506317283	2414.0	1431.0	7.886836491744259	-4.5469608171527724	2037.0	0.0	42417.0	3294.464111328125	618.0	0.2425	-0.4251012145748988	-620.0	-0.9008097165991903	252.0	4.893714635265331	2882.0	-34.2409723549815	2233.0	-459.0	-45.71604790062516	
-1.1950170262905049	2454.0	1435.0	7.87924975190192	-5.047136259562216	2189.0	0.0	43057.0	3313.995361328125	618.0	0.2425	-0.4251012145748988	-620.0	-0.9008097165991903	252.0	7.478207677014835	2616.0	-31.6627681709932	2056.0	-628.0	-41.608633205724054	
-0.8508319451419397	2447.0	1443.0	7.773948342948892	-4.9614630875322	2160.0	0.0	43697.0	3333.526611328125	606.0	0.2125	-0.39271255060728744	-604.0	-0.937246963562753	270.0	-12.280165162868942	2733.0	-27.13242901531497	1814.0	664.0	-43.35863440216789	
-0.13545867800559686	2457.0	1433.0	7.882703628011743	-5.072616176870424	2100.0	0.0	44337.0	3353.057861328125	606.0	0.2125	-0.39271255060728744	-604.0	-0.937246963562753	270.0	-17.23505123107509	2632.0	-23.273759884530424	1575.0	988.0	-41.770254861389425	
-1.0039455077720416	2474.0	1430.0	7.938782556129168	-5.284998743714173	2173.0	0.0	44977.0	3372.589111328125	606.0	0.2125	-0.39271255060728744	-604.0	-0.937246963562753	270.0	-20.263037161645514	2690.0	-20.190657171178135	1383.0	1186.0	-42.62940388642715	
-0.018960001254265516	2486.0	1454.0	7.627809398382971	-5.425946665056932	2090.0	0.0	45617.0	3392.120361328125	606.0	0.2125	-0.39271255060728744	-604.0	-0.937246963562753	270.0	-33.95014528215324	2907.0	-16.503029804829367	1181.0	2081.0	-45.92228056657676	
0.8476149298881999	2501.0	1473.0	7.380540607867603	-5.602949183122079	2017.0	0.0	46257.0	3411.651611328125	585.0	0.16	-0.3502024291497976	-583.0	-0.965587044534413	284.0	-26.27313044808075	2690.0	-14.520886560452006	1030.0	1579.0	-42.57270618031989	
0.20357492789130277	2525.0	1484.0	7.2622546938921815	-5.90091192792758	2071.0	0.0	46897.0	3431.182861328125	585.0	0.16	-0.3502024291497976	-583.0	-0.965587044534413	284.0	-16.378651169903655	2574.0	-12.627317356824832	880.0	932.0	-40.773810383941125	
-0.680336191945772	2553.0	1510.0	6.966380805422797	-6.253017914485699	2145.0	0.0	47537.0	3450.714111328125	585.0	0.16	-0.3502024291497976	-583.0	-0.965587044534413	284.0	-21.394708671050623	2353.0	-9.7535979338832	704.0	1260.0	-37.35394230126611	
0.5193567016501409	2546.0	1530.0	6.697574926918853	-6.162059753722231	2044.0	0.0	48177.0	3470.245361328125	572.0	0.1275	-0.3360323886639676	-576.0	-0.9696356275303644	286.0	-27.465973390426672	2203.0	-7.518912935188123	573.0	1657.0	-35.029922902560415	
0.9347109938296381	2538.0	1540.0	6.566337478201907	-6.064145417606099	2009.0	0.0	48817.0	3489.776611328125	572.0	0.1275	-0.3360323886639676	-576.0	-0.9696356275303644	286.0	-20.461844318703168	2046.0	-5.408366917090578	416.0	1199.0	-32.59973350805383	
-0.3309220565627781	2572.0	1573.0	6.193508629436472	-6.493896879302199	2115.0	0.0	49457.0	3509.307861328125	572.0	0.1275	-0.3360323886639676	-576.0	-0.9696356275303644	286.0	-14.77290105520722	1740.0	-0.5456939074064032	82.0	827.0	-27.85569477857077	
-0.037021080830118465	2571.0	1603.0	5.8217014407976775	-6.486345820546564	2090.0	0.0	50097.0	3528.839111328125	572.0	0.1275	-0.3360323886639676	-576.0	-0.9696356275303644	286.0	-23.306315950451143	1578.0	4.692580440574218	-238.0	1385.0	-25.317505682474728	
0.8324602370111397	2570.0	1598.0	5.865071320161582	-6.464735417009789	2017.0	0.0	50737.0	3548.370361328125	563.0	0.105	-0.3340080971659919	-575.0	-1.0303643724696356	316.0	-20.87475149105368	1405.0	7.78335284514978	-447.0	1226.0	-22.632002285573364	
0.9988628601322918	2581.0	1600.0	5.8386669656101375	-6.596129598351534	2003.0	0.0	51377.0	3567.901611328125	563.0	0.105	-0.3340080971659919	-575.0	-1.0303643724696356	316.0	-8.288729163480655	1017.0	11.434746410528422	-721.0	403.0	-16.641828690567113	
-0.32300874224881854	2600.0	1606.0	5.7943638703562375	-6.839150038931026	2114.0	0.0	52017.0	3587.432861328125	563.0	0.105	-0.3340080971659919	-575.0	-1.0303643724696356	316.0	2.5692001835142992	554.0	13.005830768321966	-856.0	-307.0	-9.521621913277347	
-0.536288227040662	2590.0	1598.0	5.894986819743324	-6.718788447080359	2132.0	0.0	52657.0	3606.964111328125	559.0	0.095	-0.33805668016194335	-577.0	-1.0	301.0	-4.251414589386757	334.0	14.321523347867265	-926.0	139.0	-6.132678582694414	
0.03708823831707714	2582.0	1581.0	6.089776212660095	-6.612773352399771	2084.0	0.0	53297.0	3626.495361328125	559.0	0.095	-0.33805668016194335	-577.0	-1.0	301.0	-6.973543355253097	135.0	14.845905755440315	-955.0	317.0	-3.073882510651827	
0.03856431405690001	2593.0	1569.0	6.237383786642382	-6.742336560644655	2084.0	0.0	53937.0	3646.026611328125	559.0	0.095	-0.33805668016194335	-577.0	-1.0	301.0	-2.27863587704542	-55.0	15.167301508753782	-990.0	10.0	-0.15521665807496032	
-0.5788888722370157	2599.0	1557.0	6.396827062012715	-6.817611383626694	2136.0	0.0	54577.0	3665.557861328125	554.0	0.0825	-0.3643724696356275	-590.0	-1.0060728744939271	304.0	0.22939287352806242	-254.0	15.328691426070394	-1009.0	-154.0	2.899949489065062	
-0.8980441683235973	2611.0	1539.0	6.624154596211697	-6.960834699156592	2163.0	0.0	55217.0	3685.089111328125	554.0	0.0825	-0.3643724696356275	-590.0	-1.0060728744939271	304.0	-4.710200336442882	-396.0	13.474214582567168	-877.0	169.0	5.060321400083766	
-0.20456855992216832	2585.0	1513.0	6.924096388735548	-6.634648095173908	2105.0	0.0	55857.0	3704.620361328125	554.0	0.0825	-0.3643724696356275	-590.0	-1.0060728744939271	304.0	-8.01345771524698	-513.0	9.973913374035243	-642.0	385.0	6.820622975999062	
-0.3821252783213043	2588.0	1505.0	7.025567405964813	-6.670538820326566	2120.0	0.0	56497.0	3724.151611328125	554.0	0.0825	-0.3643724696356275	-590.0	-1.0060728744939271	304.0	-5.199571799969415	-538.0	5.443269450968061	-355.0	201.0	7.158928628221512	
