Device	Device	Device	Device	Device	Device	Device	Device	Device	Device	Device	Device	Device	Device	Device	Device	Device	Device	Device	Device	Device	
Low Noise Accelerometer X	Low Noise Accelerometer X	Low Noise Accelerometer Z	Low Noise Accelerometer Z	Low Noise Accelerometer Y	Low Noise Accelerometer Y	Event_Marker	Timestamp	Timestamp	Magnetometer Z	Magnetometer Z	Magnetometer X	Magnetometer X	Magnetometer Y	Magnetometer Y	Gyroscope Y	Gyroscope Y	Gyroscope Z	Gyroscope Z	Gyroscope X	Gyroscope X	
UNCAL	CAL	CAL	UNCAL	CAL	UNCAL	CAL	UNCAL	CAL	UNCAL	CAL	CAL	UNCAL	UNCAL	CAL	UNCAL	CAL	UNCAL	CAL	CAL	UNCAL	
no units	m/(s^2)	m/(s^2)	no units	m/(s^2)	no units	no units	no units	ms	no units	local_flux	local_flux	no units	no units	local_flux	no units	deg/s	no units	deg/s	deg/s	no units	
1889.0	0.14887084307151355	10.125179545246594	1243.0	1.8184501306609482	2078.0	0.0	5875.0	179.290771484375	808.0	0.7175	-0.611336032388664	-712.0	-174.0	-0.038461538461538464	-105.0	2.6303716164551156	-5.0	-0.18671078310126676	0.4584674019127345	-311.0	
1888.0	0.02996784100414908	10.139641243272052	1242.0	1.829598527371868	2088.0	0.0	6515.0	198.822021484375	808.0	0.7175	-0.611336032388664	-712.0	-174.0	-0.038461538461538464	-47.0	-0.948157210582658	-61.0	0.8266347734943665	-0.4213791946925537	-77.0	
1890.0	0.1362382633810305	10.052397766674481	1249.0	1.8048199765215167	2079.0	0.0	7155.0	218.353271484375	804.0	0.7075	-0.6174089068825911	-715.0	-169.0	-0.048582995951417005	19.0	-4.847836060559719	-153.0	2.407758071778383	-1.4183038831459573	178.0	
1894.0	0.4334366238856115	10.010329055227814	1252.0	1.7587578148132916	2054.0	0.0	7795.0	237.884521484375	804.0	0.7075	-0.6174089068825911	-715.0	-169.0	-0.048582995951417005	36.0	-5.061936075852578	-205.0	3.2187264797801	-1.6710504212540633	192.0	
1898.0	0.4806852142480194	9.973283329563847	1255.0	1.710296615119299	2050.0	0.0	8435.0	257.415771484375	804.0	0.7075	-0.6174089068825911	-715.0	-169.0	-0.048582995951417005	-7.0	0.29056430646887904	-221.0	3.2441417771411034	-1.0109834709810828	-158.0	
1894.0	0.29060818380436976	10.013199332817928	1252.0	1.7573869359642815	2066.0	0.0	9075.0	276.947021484375	809.0	0.72	-0.6052631578947368	-709.0	-188.0	-0.010121457489878543	-73.0	2.7221287658663407	-245.0	3.5058996369997435	0.004370029053747622	-317.0	
1894.0	0.1946578097301575	9.941971449206225	1258.0	1.7550028745513055	2074.0	0.0	9715.0	296.478271484375	809.0	0.72	-0.6052631578947368	-709.0	-188.0	-0.010121457489878543	-66.0	2.5233216088086867	-319.0	4.653097734802572	-0.09156937557509845	-304.0	
1898.0	0.2176140507323244	9.856643168470535	1265.0	1.7053331002622758	2072.0	0.0	10355.0	316.009521484375	809.0	0.72	-0.6052631578947368	-709.0	-188.0	-0.010121457489878543	-51.0	0.3211500229392874	-402.0	6.020076230373827	-0.30806684549125946	-160.0	
1900.0	0.3851029558565092	9.938867014222348	1258.0	1.6845560806863855	2058.0	0.0	10995.0	335.540771484375	809.0	0.72	-0.6052631578947368	-709.0	-188.0	-0.010121457489878543	-90.0	1.437528674109191	-413.0	6.138629618094247	0.29155355105281605	-233.0	
1900.0	0.3614201181796441	9.951535627488218	1257.0	1.6845726245749342	2060.0	0.0	11635.0	355.072021484375	809.0	0.72	-0.6052631578947368	-709.0	-190.0	-0.006072874493927126	-172.0	6.315950451139319	-397.0	5.684839667251873	1.5452633115106347	-552.0	
1897.0	0.14778335673214277	10.016430911309515	1252.0	1.719878740950138	2078.0	0.0	12275.0	374.603271484375	809.0	0.72	-0.6052631578947368	-709.0	-190.0	-0.006072874493927126	-206.0	7.325279094662793	-402.0	5.71615750970686	2.0672889343114313	-618.0	
1895.0	0.05280579267865552	10.042484029770314	1250.0	1.7435464132209881	2086.0	0.0	12915.0	394.134521484375	809.0	0.72	-0.6052631578947368	-709.0	-190.0	-0.006072874493927126	-185.0	5.306621807615844	-445.0	6.461488311722582	1.7525080855109656	-486.0	
1892.0	0.26765435147487937	10.098768480821265	1245.0	1.7829651661432224	2068.0	0.0	13555.0	413.665771484375	805.0	0.71	-0.5951417004048583	-704.0	-193.0	0.0	-136.0	2.5692001835142992	-493.0	7.3167663923408375	1.0091811670690276	-307.0	
1888.0	0.36396561521376425	10.20608533090023	1236.0	1.8342673868665276	2060.0	0.0	14195.0	433.197021484375	805.0	0.71	-0.5951417004048583	-704.0	-193.0	0.0	-153.0	5.887750420553602	-468.0	6.7969115839985434	1.2648388411737281	-524.0	
1888.0	0.2578195038462344	10.305759908432966	1228.0	1.835199417303507	2069.0	0.0	14835.0	452.728271484375	805.0	0.71	-0.5951417004048583	-704.0	-193.0	0.0	-183.0	9.680379262884234	-469.0	6.655999425308537	1.7237642293305753	-772.0	
1884.0	0.05510868937576349	10.272773699481112	1231.0	1.8807053560641027	2086.0	0.0	15475.0	472.259521484375	805.0	0.71	-0.5951417004048583	-704.0	-193.0	0.0	-203.0	9.680379262884234	-520.0	7.437347086934884	2.0384673791093366	-772.0	
1889.0	0.041505708337231904	10.102951786104143	1245.0	1.8169319241307564	2087.0	0.0	16115.0	491.790771484375	806.0	0.7125	-0.6052631578947368	-709.0	-200.0	0.01417004048582996	-139.0	6.270071876433706	-651.0	9.598438346715218	1.0780313375871462	-549.0	
1898.0	0.01722419800403499	10.055753133736834	1249.0	1.7073114010403192	2089.0	0.0	16755.0	511.322021484375	806.0	0.7125	-0.6052631578947368	-709.0	-200.0	0.01417004048582996	-111.0	1.91160727940052	-862.0	13.02238550599494	0.6826252667524461	-264.0	
1898.0	0.2454415678561459	10.258442499900305	1232.0	1.7136473620621095	2070.0	0.0	17395.0	530.853271484375	806.0	0.7125	-0.6052631578947368	-709.0	-200.0	0.01417004048582996	-220.0	-2.4009787429270535	-1150.0	17.607792597810146	2.401028056406213	18.0	
1890.0	0.43647936495713824	10.31460316238049	1227.0	1.8130664954513978	2054.0	0.0	18035.0	550.384521484375	804.0	0.7075	-0.6093117408906883	-711.0	-200.0	0.01417004048582996	-407.0	1.6210429729316411	-1427.0	21.678693395741302	5.311155508454882	-245.0	
1885.0	0.32947391555119093	10.328343936071477	1226.0	1.8725122202865798	2063.0	0.0	18675.0	569.915771484375	804.0	0.7075	-0.6093117408906883	-711.0	-200.0	0.01417004048582996	-566.0	8.19697201406943	-1666.0	25.06727713017001	7.7848142474410285	-675.0	
1875.0	-0.17007196108651182	10.373756272301199	1223.0	1.9889069359556406	2105.0	0.0	19315.0	589.447021484375	804.0	0.7075	-0.6093117408906883	-711.0	-200.0	0.01417004048582996	-651.0	12.38721517051537	-1864.0	27.932023397363864	9.117742821053586	-949.0	
1870.0	-0.3233459648161126	10.522546375531597	1211.0	2.0505909618383744	2118.0	0.0	19955.0	608.978271484375	799.0	0.6950000000000001	-0.611336032388664	-712.0	-208.0	0.03036437246963563	-608.0	6.4841718917265645	-2064.0	31.25086114967057	8.49111840127728	-563.0	
1861.0	-0.15501699103492214	10.68877708698398	1197.0	2.164032600744993	2104.0	0.0	20595.0	628.509521484375	799.0	0.6950000000000001	-0.611336032388664	-712.0	-208.0	0.03036437246963563	-575.0	2.003364428811745	-2135.0	32.5271691678124	7.9975135207405765	-270.0	
1856.0	-0.012560279645397146	10.64873394022219	1200.0	2.224897268779074	2092.0	0.0	21235.0	648.040771484375	799.0	0.6950000000000001	-0.611336032388664	-712.0	-208.0	0.03036437246963563	-483.0	3.63970025997859	-2141.0	32.56812205755095	6.586230553090471	-377.0	
1862.0	0.12978777710717324	10.597825329764941	1204.0	2.153013420510949	2080.0	0.0	21875.0	667.572021484375	799.0	0.6950000000000001	-0.611336032388664	-712.0	-208.0	0.03036437246963563	-368.0	8.258143447010246	-2061.0	31.17059032866646	4.807639615117262	-679.0	
1859.0	0.04610186704074195	10.562567656455148	1207.0	2.1876159862573417	2087.0	0.0	22515.0	687.103271484375	799.0	0.6950000000000001	-0.6012145748987854	-707.0	-218.0	0.05060728744939271	-252.0	13.014222358158742	-1981.0	29.767707150798778	3.013650678996096	-990.0	
1857.0	-0.001510021659015079	10.563283548384206	1207.0	2.211250570751094	2091.0	0.0	23155.0	706.634521484375	799.0	0.6950000000000001	-0.6012145748987854	-707.0	-218.0	0.05060728744939271	-116.0	15.843401131671511	-1977.0	29.613894883320917	0.9252627788163303	-1175.0	
1859.0	-0.050092311706820686	10.466959305508407	1215.0	2.1847418774509313	2095.0	0.0	23795.0	726.165771484375	799.0	0.6950000000000001	-0.6012145748987854	-707.0	-218.0	0.05060728744939271	1.0	17.49502982107356	-1940.0	28.996701292246833	-0.8762137450950247	-1283.0	
1869.0	-0.05239641274026689	10.236549202163786	1234.0	2.059628706662861	2095.0	0.0	24435.0	745.697021484375	796.0	0.6875	-0.6295546558704453	-721.0	-225.0	0.06477732793522267	125.0	18.137329866952136	-1847.0	27.559631010890712	-2.793300421516074	-1325.0	
1876.0	-0.016924677038939184	10.212294200867985	1236.0	1.9751609745963679	2092.0	0.0	25075.0	765.228271484375	796.0	0.6875	-0.6295546558704453	-721.0	-225.0	0.06477732793522267	217.0	19.896008564000613	-1763.0	26.211426702083024	-4.2184749611516414	-1440.0	
1873.0	-0.25436617849998083	10.277667864287634	1231.0	2.0102386111634036	2112.0	0.0	25715.0	784.759521484375	796.0	0.6875	-0.6295546558704453	-721.0	-225.0	0.06477732793522267	225.0	23.015751643982263	-1680.0	24.8112778950198	-4.355232318487274	-1644.0	
1875.0	-0.5050449539895285	10.209790315332869	1237.0	1.982277886887244	2133.0	0.0	26355.0	804.290771484375	796.0	0.6875	-0.6295546558704453	-721.0	-225.0	0.06477732793522267	259.0	21.471172962226643	-1693.0	25.07822070795472	-4.874275334734171	-1543.0	
1884.0	-0.3645218192780712	9.97638950076431	1256.0	1.8705813670032283	2121.0	0.0	26995.0	823.822021484375	790.0	0.6725	-0.6417004048582996	-727.0	-232.0	0.07894736842105263	360.0	13.916500994035786	-1689.0	25.33435090661805	-6.421506882218153	-1049.0	
1885.0	-0.11591177050298704	9.837394378272725	1267.0	1.8582393722700632	2100.0	0.0	27635.0	843.353271484375	790.0	0.6725	-0.6417004048582996	-727.0	-232.0	0.07894736842105263	402.0	13.258908089922008	-1655.0	24.844151863740542	-7.070877186288175	-1006.0	
1893.0	-0.06938977681527728	9.72768898513894	1276.0	1.7601249421755898	2096.0	0.0	28275.0	862.884521484375	790.0	0.6725	-0.6417004048582996	-727.0	-232.0	0.07894736842105263	381.0	17.34210123872152	-1583.0	23.570207270974972	-6.761382475395207	-1273.0	
1895.0	-0.37921469532865004	9.697578086182613	1279.0	1.7323280894691608	2122.0	0.0	28915.0	882.415771484375	783.0	0.655	-0.6477732793522267	-730.0	-240.0	0.0951417004048583	352.0	19.207829943416428	-1502.0	22.245298553730297	-6.329641536482032	-1395.0	
1893.0	-0.5341917187626888	9.676066218969218	1281.0	1.7544444674327213	2135.0	0.0	29555.0	901.947021484375	783.0	0.655	-0.6477732793522267	-730.0	-240.0	0.0951417004048583	290.0	13.717693836978132	-1509.0	22.563034386730003	-5.37510619134829	-1036.0	
1895.0	-0.5107502770864977	9.639258005635957	1284.0	1.7298463320406494	2133.0	0.0	30195.0	921.478271484375	783.0	0.655	-0.6477732793522267	-730.0	-240.0	0.0951417004048583	282.0	4.970178926441353	-1538.0	23.357713174238896	-5.244403534208201	-464.0	
1898.0	-0.2609187962719851	9.62240608708721	1285.0	1.6958630301645665	2112.0	0.0	30835.0	941.009521484375	788.0	0.6675	-0.659919028340081	-736.0	-256.0	0.12753036437246965	272.0	-2.768007340571953	-1498.0	23.05044694778478	-5.094031359891495	42.0	
1895.0	0.0017830472246696816	9.702114246276492	1278.0	1.7362287900965716	2090.0	0.0	31475.0	960.540771484375	788.0	0.6675	-0.659919028340081	-736.0	-256.0	0.12753036437246965	206.0	-1.0857929346994954	-1325.0	20.312175782383918	-4.1086781501092595	-68.0	
1905.0	-0.03208348438213057	9.88688965702504	1263.0	1.619103705284631	2093.0	0.0	32115.0	980.072021484375	788.0	0.6675	-0.659919028340081	-736.0	-256.0	0.12753036437246965	105.0	10.84263648875975	-1047.0	15.543752329325375	-2.6065695351692293	-848.0	
1894.0	-0.9009697425760715	9.903025742392845	1263.0	1.7432676848919757	2166.0	0.0	32755.0	999.603271484375	788.0	0.6675	-0.659919028340081	-736.0	-256.0	0.12753036437246965	-102.0	17.831472702248053	-937.0	13.540588738646028	0.5497069461558327	-1305.0	
1901.0	-0.6143292133658189	9.995650091989532	1255.0	1.6636492277784214	2142.0	0.0	33395.0	1019.134521484375	786.0	0.6625	-0.645748987854251	-729.0	-269.0	0.15384615384615385	-44.0	7.998164857011776	-936.0	13.92739992297397	-0.3364049941721323	-662.0	
1893.0	-0.24499967083662488	10.023842440147035	1252.0	1.7642919123355383	2111.0	0.0	34035.0	1038.665771484375	786.0	0.6625	-0.645748987854251	-729.0	-269.0	0.15384615384615385	-29.0	3.700871692919407	-878.0	13.209494677293309	-0.5737513015008127	-381.0	
1886.0	0.4013769492748508	10.375790165580318	1222.0	1.8621319824429088	2057.0	0.0	34675.0	1058.197021484375	786.0	0.6625	-0.645748987854251	-729.0	-269.0	0.15384615384615385	-76.0	8.04404343171739	-815.0	12.059589211227099	0.1359403757703959	-665.0	
1861.0	-0.05991993331743617	10.674673334923051	1198.0	2.164701496280949	2096.0	0.0	35315.0	1077.728271484375	782.0	0.6525	-0.6538461538461539	-733.0	-269.0	0.15384615384615385	-305.0	22.037008716929197	-850.0	12.003116090521136	3.6492624022739393	-1580.0	
1851.0	-0.773342763066976	10.760961788540502	1192.0	2.279774964766646	2156.0	0.0	35955.0	1097.259521484375	782.0	0.6525	-0.6538461538461539	-733.0	-269.0	0.15384615384615385	-411.0	24.545037467502677	-1078.0	15.39334351080998	5.309679944238068	-1744.0	
1845.0	-1.4657597892011518	10.566878222741963	1209.0	2.3412582798158397	2214.0	0.0	36595.0	1116.790771484375	782.0	0.6525	-0.6538461538461539	-733.0	-269.0	0.15384615384615385	-410.0	11.515522251108733	-1513.0	22.605234640071718	5.366454371872561	-892.0	
1851.0	-0.9212911012885755	10.251842252094827	1234.0	2.2681130906555165	2168.0	0.0	37235.0	1136.322021484375	782.0	0.6525	-0.6538461538461539	-733.0	-269.0	0.15384615384615385	-67.0	-15.751643982260285	-2055.0	32.08478380899149	0.1980919688249156	891.0	
1867.0	0.0299425499410461	10.137112136961754	1242.0	2.082559740527802	2088.0	0.0	37875.0	1155.853271484375	779.0	0.645	-0.6477732793522267	-730.0	-285.0	0.1862348178137652	299.0	-30.1269307233522	-2265.0	35.945842248785176	-5.379378465650863	1831.0	
1876.0	0.5530481575826006	10.06672052016482	1247.0	1.97794922932852	2044.0	0.0	38515.0	1175.384521484375	779.0	0.645	-0.6477732793522267	-730.0	-285.0	0.1862348178137652	351.0	-20.201865728704696	-2150.0	33.788075935382345	-6.198869279007386	1182.0	
1883.0	0.21893691139067792	9.988929234305887	1254.0	1.8887149417518316	2072.0	0.0	39155.0	1194.915771484375	779.0	0.645	-0.6477732793522267	-730.0	-285.0	0.1862348178137652	263.0	2.370393026456645	-1893.0	28.91893139062097	-4.897246162540009	-294.0	
1882.0	-0.38832896796428795	9.976627013095015	1256.0	1.8944444313051487	2123.0	0.0	39795.0	1214.447021484375	777.0	0.64	-0.6376518218623481	-725.0	-272.0	0.15991902834008098	168.0	16.011622572258755	-1683.0	25.12881169547792	-3.477421411969573	-1186.0	
1887.0	-0.6635402844784123	9.83644774263496	1268.0	1.8286477688753848	2146.0	0.0	40435.0	1233.978271484375	777.0	0.64	-0.6376518218623481	-725.0	-272.0	0.15991902834008098	236.0	15.246979660498548	-1607.0	24.00089353740785	-4.532125482302766	-1136.0	
1886.0	-0.16242292516365267	9.948183674110924	1258.0	1.8479418538691361	2104.0	0.0	41075.0	1253.509521484375	777.0	0.64	-0.6376518218623481	-725.0	-272.0	0.15991902834008098	280.0	9.40510781465056	-1596.0	24.072108124859945	-5.206570617385742	-754.0	
1883.0	-0.24610883523008398	9.912926000801129	1261.0	1.8825444196155288	2111.0	0.0	41715.0	1273.040771484375	778.0	0.6425	-0.6255060728744939	-719.0	-292.0	0.20040485829959515	223.0	14.66585104756079	-1551.0	23.160821968658613	-4.341047910434636	-1098.0	
1891.0	-0.31861054161007557	9.805612505659106	1270.0	1.7832875904802137	2117.0	0.0	42355.0	1292.572021484375	778.0	0.6425	-0.6255060728744939	-719.0	-292.0	0.20040485829959515	247.0	21.272365805168988	-1379.0	20.254787849660776	-4.7383758594196115	-1530.0	
1888.0	-0.7105390484857786	9.898476103803084	1263.0	1.8173701556875894	2150.0	0.0	42995.0	1312.103271484375	778.0	0.6425	-0.6255060728744939	-719.0	-292.0	0.20040485829959515	263.0	27.23658051689861	-1161.0	16.665703030175287	-5.019778446144466	-1920.0	
1883.0	-0.9244220232793069	9.938750053021694	1260.0	1.876277768779448	2168.0	0.0	43635.0	1331.634521484375	778.0	0.6425	-0.6255060728744939	-719.0	-292.0	0.20040485829959515	315.0	25.569658969261358	-1066.0	15.279184031428116	-5.831556786354433	-1811.0	
1895.0	-0.8419442975525834	9.853189292360712	1267.0	1.7308130175704834	2161.0	0.0	44275.0	1351.165771484375	770.0	0.6225	-0.6659919028340081	-739.0	-295.0	0.20647773279352227	503.0	18.290258449304176	-1030.0	15.045470093045184	-8.718656853465744	-1335.0	
1903.0	-0.6521062544369312	9.789374556306889	1272.0	1.635049561111889	2145.0	0.0	44915.0	1370.697021484375	770.0	0.6225	-0.6659919028340081	-739.0	-295.0	0.20647773279352227	655.0	12.800122342865883	-964.0	14.273247948281604	-11.058740590948364	-976.0	
1905.0	-0.5678120370234622	9.885462964320453	1264.0	1.6137178859041261	2138.0	0.0	45555.0	1390.228271484375	770.0	0.6225	-0.6659919028340081	-739.0	-295.0	0.20647773279352227	706.0	14.054136718152623	-886.0	13.031221849532269	-11.853729518500229	-1058.0	
1906.0	-1.0680760799814955	9.859058668517122	1267.0	1.5961389667873949	2180.0	0.0	46195.0	1409.759521484375	764.0	0.6075	-0.680161943319838	-746.0	-285.0	0.1862348178137652	629.0	17.510322679308764	-814.0	11.773762984851075	-10.684778865471424	-1284.0	
1918.0	-1.0691587489755134	9.750791769115336	1276.0	1.449384488856407	2180.0	0.0	46835.0	1429.290771484375	764.0	0.6075	-0.680161943319838	-746.0	-285.0	0.1862348178137652	726.0	11.974307998164859	-833.0	12.30229759659499	-12.1679084341921	-922.0	
1923.0	-1.0226403682968181	9.64072507508008	1285.0	1.3874073749270672	2176.0	0.0	47475.0	1448.822021484375	764.0	0.6075	-0.680161943319838	-746.0	-285.0	0.1862348178137652	754.0	5.964214711729623	-854.0	12.869968242992561	-12.59187727015562	-529.0	
1935.0	-0.9875283179238249	9.580501540950841	1290.0	1.2419757114952001	2173.0	0.0	48115.0	1468.353271484375	764.0	0.6075	-0.680161943319838	-746.0	-285.0	0.1862348178137652	737.0	1.9574858541061326	-867.0	13.227562311171033	-12.327445107285714	-267.0	
1938.0	-1.0115732496017011	9.556960754115627	1292.0	1.205119868128464	2175.0	0.0	48755.0	1487.884521484375	770.0	0.6225	-0.6578947368421053	-735.0	-288.0	0.19230769230769232	667.0	-0.015292858235204161	-836.0	12.818923469559763	-11.257417639633083	-138.0	
1943.0	-1.0114453255833347	9.569753155952265	1291.0	1.1451360315499588	2175.0	0.0	49395.0	1507.415771484375	770.0	0.6225	-0.6578947368421053	-735.0	-288.0	0.19230769230769232	577.0	0.030585716470408322	-764.0	11.695868677053816	-9.8876446583269	-141.0	
1943.0	-0.8326659708084321	9.590545776299658	1289.0	1.1473396775046558	2160.0	0.0	50035.0	1526.947021484375	770.0	0.6225	-0.6578947368421053	-735.0	-288.0	0.19230769230769232	501.0	2.293928735280624	-624.0	9.440383853333431	-8.744018748546612	-289.0	
1938.0	-0.8786967421404263	9.74937340500499	1276.0	1.210296886220864	2164.0	0.0	50675.0	1546.478271484375	772.0	0.6275000000000001	-0.6659919028340081	-739.0	-285.0	0.1862348178137652	369.0	7.677014834072489	-430.0	6.220971348554841	-6.750741030721909	-641.0	
1930.0	-1.3060945760447804	9.866732871712415	1267.0	1.3047556393846438	2200.0	0.0	51315.0	1566.009521484375	772.0	0.6275000000000001	-0.6659919028340081	-739.0	-285.0	0.1862348178137652	230.0	14.191772442269462	-260.0	3.3243595627069706	-4.646823920101027	-1067.0	
1927.0	-1.3540733760909014	9.830757629005092	1270.0	1.3397009248432892	2204.0	0.0	51955.0	1585.540771484375	772.0	0.6275000000000001	-0.6659919028340081	-739.0	-285.0	0.1862348178137652	235.0	11.928429423459246	-188.0	2.308240199873908	-4.733707532019981	-919.0	
1928.0	-1.081049075618901	9.75223529525275	1276.0	1.3288125284018777	2181.0	0.0	52595.0	1605.072021484375	765.0	0.61	-0.6659919028340081	-739.0	-307.0	0.23076923076923078	354.0	5.016057501146965	-159.0	2.1569249261881147	-6.561214240073704	-467.0	
1934.0	-0.7350198030478112	9.831353028552213	1269.0	1.2615660191670721	2152.0	0.0	53235.0	1624.603271484375	765.0	0.61	-0.6659919028340081	-739.0	-307.0	0.23076923076923078	520.0	2.355100168221441	-80.0	1.0737457184002324	-9.119230319400316	-293.0	
1930.0	-0.7341713040364378	9.916202929689549	1262.0	1.3114642732642698	2152.0	0.0	53875.0	1644.134521484375	765.0	0.61	-0.6659919028340081	-739.0	-307.0	0.23076923076923078	498.0	6.453586175256156	62.0	-1.2776137139824533	-8.805165273245397	-561.0	
1933.0	-0.8047285947113176	10.00333100505871	1255.0	1.276356683551651	2158.0	0.0	54515.0	1663.665771484375	765.0	0.61	-0.6659919028340081	-739.0	-307.0	0.23076923076923078	538.0	11.683743691695978	215.0	-3.833910670853513	-9.444507589139102	-903.0	
1934.0	-1.1373842388811675	10.071099921407063	1250.0	1.2623373126658357	2186.0	0.0	55155.0	1683.197021484375	762.0	0.6025	-0.6781376518218624	-745.0	-294.0	0.20445344129554657	555.0	16.684508334607738	320.0	-5.646287589558862	-9.723487580514279	-1230.0	
1936.0	-1.1608208632120058	10.10838986927562	1247.0	1.2387523598377295	2188.0	0.0	55795.0	1702.728271484375	762.0	0.6025	-0.6781376518218624	-745.0	-294.0	0.20445344129554657	600.0	16.623336901666924	313.0	-5.529271673993121	-10.412819185974241	-1226.0	
1958.0	-1.1844772054894295	10.12370802248561	1246.0	0.9737619185152999	2190.0	0.0	56435.0	1722.259521484375	762.0	0.6025	-0.6781376518218624	-745.0	-294.0	0.20445344129554657	711.0	15.996329714023553	274.0	-4.887315498737702	-12.109637310273554	-1185.0	
1960.0	-0.875988395334131	10.020208085634525	1254.0	0.9506804223376624	2164.0	0.0	57075.0	1741.790771484375	762.0	0.6025	-0.6781376518218624	-745.0	-290.0	0.19635627530364372	760.0	19.452515675179693	316.0	-5.664020922810111	-12.869284063762398	-1411.0	
1966.0	-1.0786871664412194	9.988426213020906	1257.0	0.8757286405478131	2181.0	0.0	57715.0	1761.322021484375	762.0	0.6025	-0.6781376518218624	-745.0	-290.0	0.19635627530364372	763.0	29.07172350512311	479.0	-8.55534633717694	-12.94423076888044	-2040.0	
1963.0	-1.8879300375739287	10.01652005213094	1256.0	0.9043426669319398	2249.0	0.0	58355.0	1780.853271484375	762.0	0.6025	-0.6781376518218624	-745.0	-290.0	0.19635627530364372	667.0	42.37651016975073	670.0	-12.039929586743197	-11.50600617019611	-2910.0	
1969.0	-2.186091573408529	9.962271230575693	1261.0	0.8279869185159828	2274.0	0.0	58995.0	1800.384521484375	762.0	0.6025	-0.6781376518218624	-745.0	-290.0	0.19635627530364372	725.0	39.593209970943576	713.0	-12.581080365237188	-12.401397730152297	-2728.0	
1970.0	-2.2943088201631987	9.854832269394434	1270.0	0.8127077740537265	2283.0	0.0	59635.0	1819.915771484375	747.0	0.5650000000000001	-0.7186234817813765	-765.0	-278.0	0.17206477732793524	806.0	29.255237803945562	623.0	-10.770911064093475	-13.626199213448976	-2052.0	
1971.0	-1.8791874936300077	9.700298256046862	1282.0	0.8017201142810227	2248.0	0.0	60275.0	1839.447021484375	747.0	0.5650000000000001	-0.7186234817813765	-765.0	-278.0	0.17206477732793524	863.0	14.29882244991589	510.0	-8.425948466525988	-14.477385155986422	-1074.0	
1974.0	-1.723843558849605	9.758501257896638	1277.0	0.7682930353525691	2235.0	0.0	60915.0	1858.978271484375	747.0	0.5650000000000001	-0.7186234817813765	-765.0	-278.0	0.17206477732793524	872.0	8.85456491818321	437.0	-7.084027185266128	-14.602066296096947	-718.0	
1971.0	-1.7350181278453387	9.831520548799455	1271.0	0.8057862537939213	2236.0	0.0	61555.0	1878.509521484375	744.0	0.5575	-0.7267206477732794	-769.0	-279.0	0.17408906882591094	750.0	8.869857776418414	467.0	-7.564778561064477	-12.734846803563693	-719.0	
1974.0	-2.0684027773625635	9.826388930410342	1272.0	0.7662051966177137	2264.0	0.0	62195.0	1898.040771484375	744.0	0.5575	-0.7267206477732794	-769.0	-279.0	0.17408906882591094	699.0	9.328643523474538	520.0	-8.406130733288851	-11.960691658721565	-749.0	
1973.0	-2.378231308884951	9.795916730552545	1275.0	0.7745456600764182	2290.0	0.0	62835.0	1917.572021484375	744.0	0.5575	-0.7267206477732794	-769.0	-279.0	0.17408906882591094	656.0	7.38645052760361	513.0	-8.22738327397943	-11.2990913868291	-622.0	
1972.0	-2.117233689429072	9.705202485664211	1282.0	0.7873895441442946	2268.0	0.0	63475.0	1937.103271484375	745.0	0.56	-0.7408906882591093	-776.0	-270.0	0.15587044534412955	621.0	-1.498700107050008	391.0	-6.000936098647155	-10.739769987041406	-41.0	
1977.0	-1.569474842762604	9.71918239040626	1280.0	0.7329057668503787	2222.0	0.0	64115.0	1956.634521484375	745.0	0.56	-0.7408906882591093	-776.0	-270.0	0.15587044534412955	789.0	-11.408472243462304	321.0	-4.502158936426148	-13.302655469984181	607.0	
1979.0	-1.3423521852678935	9.81240052082971	1272.0	0.7129449704916261	2203.0	0.0	64755.0	1976.165771484375	745.0	0.56	-0.7408906882591093	-776.0	-270.0	0.15587044534412955	806.0	-10.353265025233217	343.0	-4.88013034125826	-13.567291406220624	538.0	
1987.0	-1.4500733923214948	9.754565529755292	1277.0	0.614325516430927	2212.0	0.0	65395.0	1995.697021484375	745.0	0.56	-0.7408906882591093	-776.0	-270.0	0.15587044534412955	805.0	-3.6855788346842027	461.0	-6.961888426313157	-13.57276450341305	102.0	
1997.0	-1.6299378247630916	9.625265142738465	1288.0	0.48945893665533113	2227.0	0.0	499.0	2015.228271484375	747.0	0.5650000000000001	-0.7368421052631579	-774.0	-256.0	0.12753036437246965	817.0	2.27863587704542	505.0	-7.875343282188405	-13.7660328558693	-288.0	
2007.0	-1.6542181307599504	9.578186924004978	1292.0	0.36779264150984947	2229.0	0.0	1139.0	2034.759521484375	747.0	0.5650000000000001	-0.7368421052631579	-774.0	-256.0	0.12753036437246965	813.0	4.3278788805627775	554.0	-8.711573354022802	-13.713017221955143	-422.0	
2009.0	-1.7841665734683438	9.678580748403714	1284.0	0.3444046480285716	2240.0	0.0	1779.0	2054.290771484375	747.0	0.5650000000000001	-0.7368421052631579	-774.0	-256.0	0.12753036437246965	759.0	2.370393026456645	514.0	-8.026338509126957	-12.87756275596744	-294.0	
2015.0	-1.8553297628175849	9.70511895633675	1282.0	0.27193462366723387	2246.0	0.0	2419.0	2073.822021484375	746.0	0.5625	-0.7368421052631579	-774.0	-245.0	0.10526315789473684	693.0	0.5964214711729623	387.0	-6.012162815331407	-11.844685077593242	-178.0	
2026.0	-1.8449988754878717	9.547731498831892	1295.0	0.1363600629085061	2245.0	0.0	3059.0	2093.353271484375	746.0	0.5625	-0.7368421052631579	-774.0	-245.0	0.10526315789473684	656.0	-2.9056430646887907	240.0	-3.616806642404054	-11.252985620513348	51.0	
2028.0	-1.5351691396291458	9.578324132323512	1292.0	0.11597382739475713	2219.0	0.0	3699.0	2112.884521484375	746.0	0.5625	-0.7368421052631579	-774.0	-245.0	0.10526315789473684	616.0	-9.068664933476068	129.0	-1.669188696699031	-10.619730094731299	454.0	
2026.0	-1.4278064135675408	9.600311024198318	1290.0	0.14158357803503793	2210.0	0.0	4339.0	2132.415771484375	746.0	0.5625	-0.7368421052631579	-774.0	-245.0	0.10526315789473684	559.0	-8.579293469949535	129.0	-1.6975070790869848	-9.745377710042058	422.0	
2032.0	-1.6642618573081367	9.76429045966253	1277.0	0.07020945568041018	2230.0	0.0	4979.0	2151.947021484375	749.0	0.5700000000000001	-0.7591093117408907	-785.0	-226.0	0.06680161943319839	563.0	-5.352500382321456	98.0	-1.3491501435109448	-9.803272075318798	211.0	
2019.0	-1.7463750803611726	9.886301487692243	1267.0	0.22845505003457048	2237.0	0.0	5619.0	2171.478271484375	749.0	0.5700000000000001	-0.7591093117408907	-785.0	-226.0	0.06680161943319839	398.0	-1.5751643982260286	50.0	-0.7872702224330019	-7.265813472517411	-36.0	
2029.0	-1.5800955639130339	9.847586465839456	1270.0	0.10886161705115276	2223.0	0.0	6259.0	2191.009521484375	749.0	0.5700000000000001	-0.7591093117408907	-785.0	-226.0	0.06680161943319839	418.0	-6.147729010552073	64.0	-0.8166472878888069	-7.572996916334467	263.0	
2041.0	-1.1879124133369363	9.78018723773493	1275.0	-0.03314284925818883	2190.0	0.0	6899.0	2210.540771484375	754.0	0.5825	-0.742914979757085	-777.0	-230.0	0.07489878542510121	630.0	-3.0126930723352197	13.0	-0.12509288237867267	-10.819111907801844	58.0	
2052.0	-1.317118602998235	9.954806366843194	1261.0	-0.16347264905456424	2201.0	0.0	7539.0	2230.072021484375	754.0	0.5825	-0.742914979757085	-777.0	-230.0	0.07489878542510121	488.0	7.034714788193914	41.0	-0.9793959020664413	-8.648738258544986	-599.0	
2052.0	-1.3635090596585635	10.077665462715085	1251.0	-0.1614793717037297	2205.0	0.0	8179.0	2249.603271484375	754.0	0.5825	-0.742914979757085	-777.0	-230.0	0.07489878542510121	360.0	9.63450068817862	34.0	-0.9953509394509825	-6.684803900678844	-769.0	
2050.0	-1.8383872452352936	10.208894524089677	1241.0	-0.1395071867898365	2245.0	0.0	8819.0	2269.134521484375	749.0	0.5700000000000001	-0.757085020242915	-784.0	-231.0	0.07692307692307693	175.0	11.148493653463834	-98.0	0.9459647683911718	-3.8266612668473146	-868.0	
2032.0	-2.161357643848953	10.054711805580864	1254.0	0.07104692473336874	2272.0	0.0	9459.0	2288.665771484375	749.0	0.5700000000000001	-0.757085020242915	-784.0	-231.0	0.07692307692307693	178.0	1.6975072641076618	-319.0	4.723563802109707	-3.834918727484504	-250.0	
2048.0	-1.7249734613273275	9.6455110101244	1287.0	-0.12554433368789367	2235.0	0.0	10099.0	2308.197021484375	749.0	0.5700000000000001	-0.757085020242915	-784.0	-231.0	0.07692307692307693	351.0	-6.163021868787277	-385.0	6.0796237445557555	-6.475953800915652	264.0	
2055.0	-1.27304067772572	9.600694132189913	1290.0	-0.20625869280815773	2197.0	0.0	10739.0	2327.728271484375	749.0	0.5700000000000001	-0.757085020242915	-784.0	-231.0	0.07692307692307693	185.0	0.09175714941122497	-278.0	4.158252247432836	-3.9479832286381473	-145.0	
2052.0	-1.7484076769854893	9.683041825260604	1284.0	-0.17322083062608856	2237.0	0.0	11379.0	2347.259521484375	751.0	0.5750000000000001	-0.7449392712550608	-778.0	-244.0	0.10323886639676114	20.0	9.343936381709742	-204.0	2.6247136164938487	-1.4314788113569274	-750.0	
2055.0	-1.9740614847584064	9.7367086670165	1280.0	-0.21054861018195287	2256.0	0.0	12019.0	2366.790771484375	751.0	0.5750000000000001	-0.7449392712550608	-778.0	-244.0	0.10323886639676114	47.0	5.505428964673498	-11.0	-0.18609603003623695	-1.8738879665916008	-499.0	
2045.0	-2.0447563341423587	9.810080871478434	1274.0	-0.08930618687571035	2262.0	0.0	12659.0	2386.322021484375	751.0	0.5750000000000001	-0.7449392712550608	-778.0	-244.0	0.10323886639676114	2.0	-0.13763572411683744	48.0	-0.8747622777084428	-1.190272864452702	-130.0	
2043.0	-2.1025639601354333	9.981699224551932	1260.0	-0.062355510532002445	2267.0	0.0	13299.0	2405.853271484375	750.0	0.5725	-0.7530364372469636	-782.0	-235.0	0.08502024291497975	39.0	-3.63970025997859	84.0	-1.2827224011604517	-1.7620983610378438	99.0	
2044.0	-2.3744887309046803	10.17017452857959	1245.0	-0.07335344493022608	2290.0	0.0	13939.0	2425.384521484375	750.0	0.5725	-0.7530364372469636	-782.0	-235.0	0.08502024291497975	-44.0	-7.294693378192385	51.0	-0.641708486061684	-0.4820960782624889	338.0	
2036.0	-1.8614774319375182	10.28082823481961	1235.0	0.030375284352920667	2247.0	0.0	14579.0	2444.915771484375	750.0	0.5725	-0.7530364372469636	-782.0	-235.0	0.08502024291497975	-60.0	-10.200336442881175	125.0	-1.6661218569965732	-0.24682847344183934	528.0	
2029.0	-1.8122916518880279	10.437501477863886	1222.0	0.1183379564118914	2243.0	0.0	15219.0	2464.447021484375	750.0	0.5725	-0.7530364372469636	-782.0	-235.0	0.08502024291497975	-244.0	-6.545343324667381	283.0	-4.270690298608253	2.5505108352370267	289.0	
2021.0	-1.8243255589221792	10.424586964924954	1223.0	0.21434486925144594	2244.0	0.0	15859.0	2483.978271484375	751.0	0.5750000000000001	-0.742914979757085	-777.0	-245.0	0.10526315789473684	-250.0	-7.233521945251568	429.0	-6.489670261986931	2.620387937551989	334.0	
2015.0	-1.8370884713037048	10.338771917248556	1230.0	0.28479009580060877	2245.0	0.0	16499.0	2503.509521484375	751.0	0.5750000000000001	-0.742914979757085	-777.0	-245.0	0.10526315789473684	-263.0	-7.661721975837285	516.0	-7.812660397601961	2.8066363237514627	362.0	
2017.0	-1.9548907393319779	10.463307019183153	1220.0	0.2620063896168493	2255.0	0.0	17139.0	2523.040771484375	751.0	0.5750000000000001	-0.742914979757085	-777.0	-245.0	0.10526315789473684	-133.0	-5.505428964673498	714.0	-10.924338400680458	0.7807366681644399	221.0	
2010.0	-2.322775518866144	10.579590970528521	1211.0	0.3449905702460054	2286.0	0.0	17779.0	2542.572021484375	754.0	0.5825	-0.7368421052631579	-774.0	-236.0	0.08704453441295547	-146.0	-4.786664627618903	950.0	-14.584928434844505	0.9436090553784233	174.0	
2008.0	-2.3949235615994917	10.507643840050818	1217.0	0.3669265327512865	2292.0	0.0	18419.0	2562.103271484375	754.0	0.5825	-0.7368421052631579	-774.0	-236.0	0.08704453441295547	115.0	-7.1570576540755475	1091.0	-16.618757321304848	-3.0816394682567805	329.0	
2007.0	-2.574801241740809	10.377018683061932	1228.0	0.37456344558117993	2307.0	0.0	19059.0	2581.634521484375	754.0	0.5825	-0.7368421052631579	-774.0	-236.0	0.08704453441295547	233.0	-8.793393485242392	1307.0	-19.85743928825887	-4.924675359585059	436.0	
2002.0	-2.5170020461021023	10.204557294551668	1242.0	0.4319331736227834	2302.0	0.0	19699.0	2601.165771484375	757.0	0.59	-0.7206477732793523	-766.0	-234.0	0.08299595141700405	426.0	-16.42452974460927	1541.0	-23.12169879751324	-7.91880330069571	935.0	
2015.0	-2.0413791988056	10.147794405154249	1246.0	0.2789276382837037	2262.0	0.0	20339.0	2620.697021484375	757.0	0.59	-0.7206477732793523	-766.0	-234.0	0.08299595141700405	641.0	-18.88667992047714	1923.0	-28.865666827799146	-11.275306967495423	1096.0	
2012.0	-1.8282372727228293	10.033415584859938	1255.0	0.31491605945189816	2244.0	0.0	20979.0	2640.228271484375	757.0	0.59	-0.7206477732793523	-766.0	-234.0	0.08299595141700405	615.0	-14.084722434623032	2374.0	-35.9984156651396	-10.947677880757581	782.0	
2018.0	-1.9126437577822675	9.926100412249443	1264.0	0.23963653452258787	2251.0	0.0	21619.0	2659.759521484375	757.0	0.59	-0.7206477732793523	-766.0	-234.0	0.08299595141700405	612.0	-4.878421777030128	2904.0	-44.518867889667696	-10.986848952028486	180.0	
2022.0	-1.9731260091641667	9.830256226440468	1272.0	0.18892205720825206	2256.0	0.0	22259.0	2679.290771484375	758.0	0.5925	-0.7348178137651822	-773.0	-216.0	0.0465587044534413	633.0	-1.1163786511699039	3427.0	-52.71022430423602	-11.390996672994794	-66.0	
2025.0	-1.805879704376994	9.888220038491067	1267.0	0.15560921818388274	2242.0	0.0	22899.0	2698.822021484375	758.0	0.5925	-0.7348178137651822	-773.0	-216.0	0.0465587044534413	708.0	-2.844471631747974	3795.0	-58.28970186411492	-12.59762772295295	47.0	
2039.0	-2.0307888504301395	10.016353052224135	1257.0	-0.012751911797168086	2261.0	0.0	23539.0	2718.353271484375	758.0	0.5925	-0.7348178137651822	-773.0	-216.0	0.0465587044534413	796.0	-2.09512157822297	3990.0	-61.3054096823884	-13.978099363050676	-2.0	
2042.0	-2.0183952580676543	10.065236097996506	1253.0	-0.04779489327134881	2260.0	0.0	24179.0	2737.884521484375	757.0	0.59	-0.728744939271255	-770.0	-175.0	-0.03643724696356275	870.0	-9.068664933476068	4128.0	-63.13768014932516	-15.131913858421287	454.0	
2060.0	-1.018696401781549	10.035121726607008	1254.0	-0.25526766201579576	2176.0	0.0	24819.0	2757.415771484375	757.0	0.59	-0.728744939271255	-770.0	-175.0	-0.03643724696356275	1060.0	-17.403272671662336	4287.0	-65.22071059048429	-18.06819605787661	999.0	
2068.0	-0.8156150629556995	10.105160371096714	1248.0	-0.3482216179064178	2159.0	0.0	25459.0	2776.947021484375	757.0	0.59	-0.728744939271255	-770.0	-175.0	-0.03643724696356275	914.0	-6.055971861140848	4488.0	-68.78848081786545	-15.863579146064186	257.0	
2072.0	-1.137949454486542	10.014578360869617	1256.0	-0.40144937311060547	2186.0	0.0	26099.0	2796.478271484375	757.0	0.59	-0.728744939271255	-770.0	-175.0	-0.03643724696356275	859.0	3.135035938216853	4585.0	-70.65645194056378	-15.038312256094299	-344.0	
2071.0	-0.4370517541268688	9.866253158741689	1267.0	-0.3853587073784831	2127.0	0.0	26739.0	2816.009521484375	759.0	0.595	-0.728744939271255	-770.0	-137.0	-0.11336032388663968	1007.0	-2.09512157822297	4671.0	-71.74730012336558	-17.320204319324805	-2.0	
2085.0	-0.17420753457578889	9.960198923373493	1259.0	-0.5495260486855169	2105.0	0.0	27379.0	2835.540771484375	759.0	0.595	-0.728744939271255	-770.0	-137.0	-0.11336032388663968	1113.0	0.13763572411683744	4627.0	-71.14358668319494	-18.94068245268434	-148.0	
2086.0	-0.004037982381088184	10.310487476176895	1230.0	-0.5528667748785862	2091.0	0.0	28019.0	2855.072021484375	759.0	0.595	-0.728744939271255	-770.0	-137.0	-0.11336032388663968	1106.0	4.756078911148494	4633.0	-71.42166421008831	-18.836051842346397	-450.0	
2109.0	-0.33593571713144565	10.454047334474483	1219.0	-0.8304229887950778	2119.0	0.0	28659.0	2874.603271484375	754.0	0.5825	-0.7388663967611336	-775.0	-92.0	-0.20445344129554657	1208.0	12.081358005811287	4647.0	-71.91432621872968	-20.406115795561547	-929.0	
2112.0	-0.6359294010251882	10.216583707004983	1239.0	-0.8743167764966582	2144.0	0.0	29299.0	2894.134521484375	754.0	0.5825	-0.7388663967611336	-775.0	-92.0	-0.20445344129554657	1129.0	10.76617219758373	4519.0	-69.9051139924604	-19.17380946430699	-843.0	
2141.0	-0.4834798095801962	9.98535237531372	1258.0	-1.2268144975774793	2131.0	0.0	29939.0	2913.665771484375	754.0	0.5825	-0.7388663967611336	-775.0	-92.0	-0.20445344129554657	1164.0	7.095886221134731	4403.0	-67.9687847464114	-19.691503099880872	-603.0	
2153.0	-0.38048870693016246	9.570176926031378	1292.0	-1.378666408789638	2122.0	0.0	30579.0	2933.197021484375	747.0	0.5650000000000001	-0.7368421052631579	-774.0	-55.0	-0.2793522267206478	953.0	11.484936534638326	4190.0	-64.90061142434278	-16.42313531479583	-890.0	
2169.0	-0.9185141345869108	9.339062731785111	1312.0	-1.5814400312884802	2167.0	0.0	31219.0	2952.728271484375	747.0	0.5650000000000001	-0.7368421052631579	-774.0	-55.0	-0.2793522267206478	738.0	20.859458632818477	4162.0	-64.87788225227813	-13.12384403657833	-1503.0	
2161.0	-1.1211078640660597	9.317785021965479	1314.0	-1.4875059806109896	2184.0	0.0	31859.0	2972.259521484375	747.0	0.5650000000000001	-0.7368421052631579	-774.0	-55.0	-0.2793522267206478	434.0	21.884080134577154	3975.0	-62.08931265817343	-8.431235308567311	-1570.0	
2158.0	-1.1574280987787606	9.257190122123944	1319.0	-1.4529365026416943	2187.0	0.0	32499.0	2991.790771484375	747.0	0.5650000000000001	-0.7368421052631579	-774.0	-55.0	-0.2793522267206478	399.0	22.144058724575626	3949.0	-61.70518231308376	-7.890337077082043	-1587.0	
2157.0	-1.42135378298752	9.055097891724177	1336.0	-1.447569411320693	2209.0	0.0	33139.0	3011.322021484375	737.0	0.54	-0.7469635627530364	-779.0	-43.0	-0.30364372469635625	496.0	23.612173115155226	3919.0	-61.28759703154311	-9.374576139104752	-1683.0	
2162.0	-1.5413466800669318	8.960570088544907	1344.0	-1.5109008602104939	2219.0	0.0	33779.0	3030.853271484375	737.0	0.54	-0.7469635627530364	-779.0	-43.0	-0.30364372469635625	547.0	20.186572870469494	3894.0	-60.758244048268686	-10.151851275836377	-1459.0	
2163.0	-1.6462725637313715	9.182267436386656	1326.0	-1.5195643648613877	2228.0	0.0	34419.0	3050.384521484375	737.0	0.54	-0.7469635627530364	-779.0	-43.0	-0.30364372469635625	506.0	17.15858693989907	3837.0	-59.76672681463621	-9.512812273516932	-1261.0	
2173.0	-1.7156024006851318	9.39214088386777	1309.0	-1.6365421219921463	2234.0	0.0	35059.0	3069.915771484375	727.0	0.515	-0.7489878542510121	-780.0	0.0	-0.39068825910931176	605.0	16.485701177550087	3816.0	-59.4016296284588	-11.028265183809523	-1217.0	
2174.0	-1.5865036613244499	9.206776724697873	1324.0	-1.651006610553022	2223.0	0.0	35699.0	3089.447021484375	727.0	0.515	-0.7489878542510121	-780.0	0.0	-0.39068825910931176	612.0	13.732986695213336	3728.0	-57.93695550086077	-11.121029828140417	-1037.0	
2173.0	-1.2511661657477458	9.407192949034934	1307.0	-1.6315967183394293	2195.0	0.0	36339.0	3108.978271484375	727.0	0.515	-0.7489878542510121	-780.0	0.0	-0.39068825910931176	509.0	11.57669368404955	3728.0	-57.86651564256792	-9.539843612770623	-896.0	
2161.0	-1.0495717416887635	9.328540116837942	1313.0	-1.4865755174897675	2178.0	0.0	36979.0	3128.509521484375	727.0	0.515	-0.7489878542510121	-780.0	0.0	-0.39068825910931176	474.0	16.9139012081358	3804.0	-59.254286650954676	-9.016664394820118	-1245.0	
2171.0	-1.58687298134349	9.169844722793846	1327.0	-1.6156043654780399	2223.0	0.0	37619.0	3148.040771484375	719.0	0.495	-0.7186234817813765	-765.0	10.0	-0.4109311740890688	521.0	23.398073099862366	3899.0	-60.96758393363091	-9.754988099578753	-1669.0	
2189.0	-2.1946035876547305	9.111069805955546	1333.0	-1.8397246397574363	2274.0	0.0	38259.0	3167.572021484375	719.0	0.495	-0.7186234817813765	-765.0	10.0	-0.4109311740890688	598.0	22.465208747514914	3889.0	-60.7646519114746	-10.934484021032807	-1608.0	
2191.0	-1.885749070489406	9.044140570107018	1338.0	-1.8620710648449224	2248.0	0.0	38899.0	3187.103271484375	719.0	0.495	-0.7186234817813765	-765.0	10.0	-0.4109311740890688	549.0	11.622572258755163	3755.0	-58.27749261428497	-10.15773272881279	-899.0	
2200.0	-1.458715739258739	8.89033083603086	1350.0	-1.969310661153898	2212.0	0.0	39539.0	3206.634521484375	711.0	0.47500000000000003	-0.7226720647773279	-767.0	45.0	-0.4817813765182186	620.0	5.857164704083194	3710.0	-57.34387389075776	-11.237854881304388	-522.0	
2219.0	-1.7204230946805805	8.910071484322907	1349.0	-2.200448584392878	2234.0	0.0	40179.0	3226.165771484375	711.0	0.47500000000000003	-0.7226720647773279	-767.0	45.0	-0.4817813765182186	568.0	7.75347912524851	3741.0	-57.904499251998864	-10.445547984694302	-646.0	
2219.0	-1.3027430234135486	9.011411944359406	1340.0	-2.1942449744794774	2199.0	0.0	40819.0	3245.697021484375	711.0	0.47500000000000003	-0.7226720647773279	-767.0	45.0	-0.4817813765182186	466.0	5.91833613702401	3673.0	-56.80086234532633	-8.869374282498837	-526.0	
2231.0	-1.4552651394053486	9.235390821369922	1322.0	-2.335868931352197	2212.0	0.0	41459.0	3265.228271484375	707.0	0.465	-0.6862348178137652	-749.0	65.0	-0.5222672064777328	397.0	10.506193607585258	3739.0	-58.010071843319025	-7.822697005068146	-826.0	
2239.0	-1.6804253161498737	9.33842076596501	1314.0	-2.432445476396415	2231.0	0.0	42099.0	3284.759521484375	707.0	0.465	-0.6862348178137652	-749.0	65.0	-0.5222672064777328	287.0	10.368557883468421	3778.0	-58.62129193087622	-6.140916003549978	-817.0	
2232.0	-1.9300178096363885	9.379171417313502	1311.0	-2.3497890389067204	2252.0	0.0	42739.0	3304.290771484375	707.0	0.465	-0.6862348178137652	-749.0	65.0	-0.5222672064777328	244.0	6.010093286435235	3791.0	-58.65351748791442	-5.481425461820989	-532.0	
2237.0	-1.8113537948970218	9.340810986488302	1314.0	-2.4096105712312523	2242.0	0.0	43379.0	3323.822021484375	707.0	0.465	-0.6862348178137652	-749.0	65.0	-0.5222672064777328	438.0	-3.593821685272978	3709.0	-56.978415692376345	-8.44150427354184	96.0	
2265.0	-0.9657641936521704	9.375961587163927	1310.0	-2.7378010607956527	2171.0	0.0	44019.0	3343.353271484375	699.0	0.445	-0.6720647773279352	-742.0	88.0	-0.5688259109311741	715.0	-12.693072335219453	3612.0	-55.08005314107628	-12.672942621329438	691.0	
2269.0	-1.012271735303821	9.487112183903596	1301.0	-2.7842358953617135	2175.0	0.0	44659.0	3362.884521484375	699.0	0.445	-0.6720647773279352	-742.0	88.0	-0.5688259109311741	945.0	-7.998164857011776	3533.0	-54.01746572463438	-16.19154798853375	384.0	
2275.0	-0.21224576976201326	9.727803976179626	1280.0	-2.8437109564872802	2108.0	0.0	45299.0	3382.415771484375	699.0	0.445	-0.6720647773279352	-742.0	88.0	-0.5688259109311741	1160.0	-10.368557883468421	3454.0	-52.67459598878656	-19.477183277672125	539.0	
2261.0	0.07436946838513633	9.817899219466014	1272.0	-2.6703682004449005	2084.0	0.0	45939.0	3401.947021484375	697.0	0.44	-0.645748987854251	-729.0	122.0	-0.6376518218623481	706.0	-5.627771830555131	3302.0	-50.59599741608062	-12.490001711156358	229.0	
2260.0	0.1935138664531747	9.827577121507947	1271.0	-2.6569350056522976	2074.0	0.0	46579.0	3421.478271484375	697.0	0.44	-0.645748987854251	-729.0	122.0	-0.6376518218623481	388.0	-2.9515216393944033	3187.0	-48.98304555519548	-7.594326389263786	54.0	
2269.0	0.7642289541218098	9.756228745514306	1276.0	-2.761088557235243	2026.0	0.0	47219.0	3441.009521484375	697.0	0.44	-0.645748987854251	-729.0	122.0	-0.6376518218623481	392.0	-3.5326502523321612	3064.0	-47.06736158689968	-7.636547484213327	92.0	
2269.0	1.1106167076848958	9.871194578013384	1266.0	-2.7553253630496304	1997.0	0.0	47859.0	3460.540771484375	697.0	0.44	-0.645748987854251	-729.0	122.0	-0.6376518218623481	268.0	5.321914665851048	2939.0	-45.517945174405966	-5.718337346480903	-487.0	
2288.0	0.23144893995110916	10.049655899872821	1253.0	-2.9894634769403816	2071.0	0.0	48499.0	3480.072021484375	695.0	0.435	-0.5951417004048583	-704.0	141.0	-0.6761133603238867	184.0	21.60880868634348	2665.0	-41.96792910867343	-4.393900558541085	-1552.0	
2280.0	-0.05507089125880647	9.96910135030983	1260.0	-2.897554224075066	2095.0	0.0	49139.0	3499.603271484375	695.0	0.435	-0.5951417004048583	-704.0	141.0	-0.6761133603238867	-28.0	28.55176632512617	2418.0	-38.479111126835775	-1.1059818432002282	-2006.0	
2270.0	-0.031400096945323766	9.955228400705721	1261.0	-2.77711304741317	2093.0	0.0	49779.0	3519.134521484375	695.0	0.435	-0.5951417004048583	-704.0	141.0	-0.6761133603238867	-106.0	24.315644593974618	2210.0	-35.12246285163488	0.1244543648855233	-1729.0	
2257.0	-0.5552419359522823	9.951996880962248	1262.0	-2.6257895901740125	2137.0	0.0	50419.0	3538.665771484375	684.0	0.40750000000000003	-0.5991902834008097	-706.0	161.0	-0.7165991902834008	-173.0	24.43798745985625	2007.0	-32.01535155783871	1.1836058829178537	-1737.0	
2283.0	-1.2575723559436018	9.957050119925546	1263.0	-2.9459648416428528	2196.0	0.0	51059.0	3558.197021484375	684.0	0.40750000000000003	-0.5991902834008097	-706.0	161.0	-0.7165991902834008	333.0	21.715858693989908	1753.0	-27.92214142417143	-6.539770746756676	-1559.0	
2287.0	-0.7348384769937639	9.849485633956933	1271.0	-2.991081563657064	2152.0	0.0	51699.0	3577.728271484375	684.0	0.40750000000000003	-0.5991902834008097	-706.0	161.0	-0.7165991902834008	612.0	12.234286588163329	1496.0	-23.54726695458891	-10.7771329426777	-939.0	
2278.0	-0.3279744937304699	10.059693484095867	1253.0	-2.8743750318818932	2118.0	0.0	52339.0	3597.259521484375	677.0	0.39	-0.5951417004048583	-704.0	174.0	-0.742914979757085	740.0	8.258143447010246	1404.0	-21.95357276187926	-12.72528990899059	-679.0	
2292.0	-1.3515614536039668	10.081949877698555	1253.0	-3.0528404724037554	2204.0	0.0	52979.0	3616.790771484375	677.0	0.39	-0.5951417004048583	-704.0	174.0	-0.742914979757085	731.0	16.60804404343172	1299.0	-20.67394161947696	-12.574393244643444	-1225.0	
2297.0	-1.3539934786557792	9.838747372517297	1273.0	-3.11796980661332	2204.0	0.0	53619.0	3636.322021484375	677.0	0.39	-0.5951417004048583	-704.0	174.0	-0.742914979757085	831.0	16.653922618137333	1324.0	-21.044951399948683	-14.112551708260652	-1228.0	
2299.0	-0.6874583496039749	9.825593611031074	1273.0	-3.1356639160946953	2148.0	0.0	54259.0	3655.853271484375	677.0	0.39	-0.5951417004048583	-704.0	174.0	-0.742914979757085	1082.0	9.11454350818168	1494.0	-23.319616425479794	-17.986763756705315	-735.0	
2307.0	-1.140835896200611	9.725934189462691	1282.0	-3.2385764221607043	2186.0	0.0	54899.0	3675.384521484375	670.0	0.3725	-0.5870445344129555	-700.0	172.0	-0.7388663967611336	1039.0	15.032879645205691	1606.0	-25.2855632793445	-17.34661042794459	-1122.0	
2323.0	-1.5483009607929135	9.455618206422931	1305.0	-3.4408284768047714	2220.0	0.0	55539.0	3694.915771484375	670.0	0.3725	-0.5870445344129555	-700.0	172.0	-0.7388663967611336	1090.0	19.039608502829182	1774.0	-28.021950920863855	-18.156542970924153	-1384.0	
2320.0	-1.1325749399216996	9.361553626877658	1312.0	-3.4024079298737115	2185.0	0.0	56179.0	3714.447021484375	670.0	0.3725	-0.5870445344129555	-700.0	172.0	-0.7388663967611336	1166.0	12.93775806698272	1939.0	-30.30405795113664	-19.345544799244376	-985.0	
2307.0	-1.168175803977732	9.372895792702998	1311.0	-3.2459105891736693	2188.0	0.0	56819.0	3733.978271484375	656.0	0.3375	-0.5850202429149798	-699.0	202.0	-0.7995951417004049	1189.0	15.017586786970487	2154.0	-33.69056672804629	-19.73233301115034	-1121.0	
2317.0	-1.121773303954021	9.251241033169343	1321.0	-3.3683615870749484	2184.0	0.0	57459.0	3753.509521484375	656.0	0.3375	-0.5850202429149798	-699.0	202.0	-0.7995951417004049	1200.0	12.861293775806699	2314.0	-36.063549637672295	-19.924852160485976	-980.0	
2339.0	-2.3385923029886637	8.997912558276507	1344.0	-3.650656587527007	2286.0	0.0	58099.0	3773.040771484375	656.0	0.3375	-0.5850202429149798	-699.0	202.0	-0.7995951417004049	1378.0	16.638629759902127	2523.0	-39.401886079400946	-22.689553616049498	-1227.0	
2368.0	-1.314222142632571	9.05397621293335	1338.0	-3.988689203191755	2200.0	0.0	58739.0	3792.572021484375	656.0	0.3375	-0.5850202429149798	-699.0	202.0	-0.7995951417004049	1901.0	10.429729316409238	2842.0	-43.9797580191823	-30.760497288646636	-821.0	
2348.0	-0.12449683802902252	8.978887625669175	1342.0	-3.737329866469316	2100.0	0.0	59379.0	3812.103271484375	641.0	0.3	-0.5384615384615384	-676.0	204.0	-0.8036437246963563	1603.0	5.398378957027069	3056.0	-47.11571823143141	-26.219200760647908	-492.0	
2360.0	0.0648584130852819	8.86679368948057	1351.0	-3.8822565059349574	2084.0	0.0	60019.0	3831.634521484375	641.0	0.3	-0.5384615384615384	-676.0	204.0	-0.8036437246963563	1370.0	13.885915277565378	3141.0	-48.79829522868354	-22.660761838277324	-1047.0	
2386.0	-1.400686515379429	8.740872271580919	1364.0	-4.21268339562579	2207.0	0.0	60659.0	3851.165771484375	641.0	0.3	-0.5384615384615384	-676.0	204.0	-0.8036437246963563	1176.0	34.301881021562934	3105.0	-49.090911935217214	-19.68685817566643	-2382.0	
2382.0	-0.6275248916314234	8.676082265429095	1368.0	-4.158054808427009	2142.0	0.0	61299.0	3870.697021484375	630.0	0.2725	-0.520242914979757	-667.0	224.0	-0.8441295546558705	895.0	29.346994953356784	2873.0	-45.367525088982354	-15.337824399270982	-2058.0	
2360.0	-0.09231044373623373	8.626098483519486	1371.0	-3.888642098622394	2097.0	0.0	61939.0	3890.228271484375	630.0	0.2725	-0.520242914979757	-667.0	224.0	-0.8441295546558705	690.0	22.648723046337363	2725.0	-42.85472884887628	-12.167077286954315	-1620.0	
2392.0	-0.7241946363623043	8.532917316150515	1380.0	-4.2823667325707335	2150.0	0.0	62579.0	3909.759521484375	630.0	0.2725	-0.520242914979757	-667.0	224.0	-0.8441295546558705	640.0	29.14818779629913	2572.0	-40.769104163799916	-11.378996857197308	-2045.0	
2384.0	-1.143103365686794	8.308711050368236	1399.0	-4.194654403010949	2185.0	0.0	63219.0	3929.290771484375	618.0	0.2425	-0.48785425101214575	-651.0	228.0	-0.8522267206477733	479.0	32.31380945098639	2315.0	-36.9675758381193	-8.87051970498239	-2252.0	
2393.0	-0.4403650869136106	8.344443689591325	1395.0	-4.295346102378515	2126.0	0.0	63859.0	3948.822021484375	618.0	0.2425	-0.48785425101214575	-651.0	228.0	-0.8522267206477733	504.0	21.960544425753174	2019.0	-31.99696050783153	-9.204425643132636	-1575.0	
2384.0	-0.9164707262114603	8.35292737885396	1395.0	-4.191503750046481	2166.0	0.0	64499.0	3968.353271484375	618.0	0.2425	-0.48785425101214575	-651.0	228.0	-0.8522267206477733	448.0	26.150787582199115	1775.0	-28.420252087891896	-8.309367474078245	-1849.0	
2405.0	-1.429953978152926	8.195078375183574	1409.0	-4.452807610832075	2209.0	0.0	65139.0	3987.884521484375	618.0	0.2425	-0.48785425101214575	-651.0	228.0	-0.8522267206477733	569.0	28.108273436305247	1479.0	-23.92728832330933	-10.121120359065534	-1977.0	
2406.0	-1.1331249376673855	8.116077661832879	1415.0	-4.463467527465318	2184.0	0.0	243.0	4007.415771484375	607.0	0.215	-0.4676113360323887	-641.0	234.0	-0.8643724696356275	536.0	20.415965743997557	1104.0	-17.856923399921435	-9.55404874911353	-1474.0	
2402.0	-1.060618413942041	8.223872891510196	1406.0	-4.412393786550179	2178.0	0.0	883.0	4026.947021484375	607.0	0.215	-0.4676113360323887	-641.0	234.0	-0.8643724696356275	589.0	13.534179538155682	815.0	-13.128522287756741	-10.320022371872504	-1024.0	
2412.0	-1.491285932882537	8.014263854603438	1424.0	-4.541374570188563	2214.0	0.0	1523.0	4046.478271484375	607.0	0.215	-0.4676113360323887	-641.0	234.0	-0.8643724696356275	562.0	17.984401284600093	599.0	-9.988422419075096	-9.874320314416316	-1315.0	
2412.0	-1.3722622328148355	8.011871956611676	1424.0	-4.540232171147721	2204.0	0.0	2163.0	4066.009521484375	600.0	0.1975	-0.4979757085020243	-656.0	250.0	-0.8967611336032388	607.0	7.784064841718918	359.0	-5.882174836123119	-10.523759603202416	-648.0	
2413.0	-0.988337629844973	8.309094158359832	1399.0	-4.542496673854145	2172.0	0.0	2803.0	4085.540771484375	600.0	0.1975	-0.4979757085020243	-656.0	250.0	-0.8967611336032388	437.0	4.603150328796453	151.0	-2.5818461426586925	-7.882194094386538	-440.0	
2413.0	-1.2503116723305916	8.302166100274189	1400.0	-4.545254975440713	2194.0	0.0	3443.0	4105.072021484375	600.0	0.1975	-0.4979757085020243	-656.0	250.0	-0.8967611336032388	344.0	8.120507722893409	37.0	-0.9833942805451255	-6.4391725955597865	-670.0	
2416.0	-1.6557200535718126	8.23751845234254	1406.0	-4.586746590525011	2228.0	0.0	4083.0	4124.603271484375	600.0	0.1975	-0.4979757085020243	-656.0	250.0	-0.8967611336032388	353.0	9.512157822296988	-37.0	0.10049874717942486	-6.566434018205665	-761.0	
2412.0	-2.0950154401375842	8.355598843384437	1397.0	-4.540585165485494	2265.0	0.0	4723.0	4144.134521484375	596.0	0.1875	-0.4777327935222672	-646.0	256.0	-0.9089068825910931	304.0	10.490900749350054	-137.0	1.5919059808601483	-5.799640246620737	-825.0	
2408.0	-1.9858265876985275	8.560198373004376	1380.0	-4.487208515284368	2256.0	0.0	5363.0	4163.665771484375	596.0	0.1875	-0.4777327935222672	-646.0	256.0	-0.9089068825910931	378.0	0.474078605291329	-259.0	3.8803393051410904	-6.912247704079172	-170.0	
2421.0	-1.4375704969946528	8.62390268148709	1374.0	-4.637078374231772	2210.0	0.0	6003.0	4183.197021484375	596.0	0.1875	-0.4777327935222672	-646.0	256.0	-0.9089068825910931	483.0	-7.218229087016364	-234.0	3.8195931731679527	-8.524025949502018	333.0	
2421.0	-1.1748650404889833	8.703972141577843	1367.0	-4.632849930464899	2188.0	0.0	6643.0	4202.728271484375	594.0	0.1825	-0.48785425101214575	-651.0	265.0	-0.9271255060728745	560.0	-11.148493653463834	-198.0	3.4348965180557887	-9.709398157728758	590.0	
2411.0	-1.0661710234146573	8.859088134724765	1354.0	-4.508178742720374	2179.0	0.0	7283.0	4222.259521484375	594.0	0.1825	-0.48785425101214575	-651.0	265.0	-0.9271255060728745	437.0	-5.153693225263802	-170.0	2.745596747231341	-7.828919665487638	198.0	
2413.0	-1.889138777922573	8.70516982679031	1368.0	-4.5435831719663105	2248.0	0.0	7923.0	4241.790771484375	594.0	0.1825	-0.48785425101214575	-651.0	265.0	-0.9271255060728745	427.0	3.150328796452057	-178.0	2.534980470702843	-7.677580991671674	-345.0	
2407.0	-1.9259502349909896	8.595452691377227	1377.0	-4.473856472618751	2251.0	0.0	8563.0	4261.322021484375	594.0	0.1825	-0.4959514170040486	-655.0	267.0	-0.9311740890688259	499.0	6.071264719376052	-173.0	2.3522980858342852	-8.784210638905353	-536.0	
2409.0	-1.5790724634085265	8.759420325814027	1363.0	-4.491204727756359	2222.0	0.0	9203.0	4280.853271484375	594.0	0.1825	-0.4959514170040486	-655.0	267.0	-0.9311740890688259	573.0	-4.29729316409237	-201.0	3.2090126164010124	-9.911135284300927	142.0	
2417.0	-1.6887441078489307	8.506541596059305	1384.0	-4.593744560964532	2231.0	0.0	9843.0	4300.384521484375	594.0	0.1825	-0.4959514170040486	-655.0	267.0	-0.9311740890688259	707.0	-9.756843554060255	-290.0	4.81681561054824	-11.951218064548195	499.0	
