Device	Device	Device	Device	Device	Device	Device	Device	Device	Device	Device	Device	Device	Device	Device	Device	Device	Device	Device	Device	Device	
Low Noise Accelerometer X	Low Noise Accelerometer X	Low Noise Accelerometer Z	Low Noise Accelerometer Z	Low Noise Accelerometer Y	Low Noise Accelerometer Y	Event_Marker	Timestamp	Timestamp	Magnetometer Z	Magnetometer Z	Magnetometer X	Magnetometer X	Magnetometer Y	Magnetometer Y	Gyroscope Y	Gyroscope Y	Gyroscope Z	Gyroscope Z	Gyroscope X	Gyroscope X	
UNCAL	CAL	CAL	UNCAL	UNCAL	CAL	CAL	UNCAL	CAL	CAL	UNCAL	CAL	UNCAL	CAL	UNCAL	CAL	UNCAL	CAL	UNCAL	UNCAL	CAL	
no units	m/(s^2)	m/(s^2)	no units	no units	m/(s^2)	no units	no units	ms	local_flux	no units	local_flux	no units	local_flux	no units	deg/s	no units	deg/s	no units	no units	deg/s	
1835.0	1.1118006584275535	9.989589652279172	1252.0	1997.0	2.475970040593714	0.0	25379.0	774.505615234375	0.5625	746.0	0.6518218623481782	-88.0	0.402834008097166	-392.0	0.24468573176326658	447.0	-7.681574505057238	494.0	-155.0	-8.086636214591774	
1844.0	1.0514463310640207	9.906537868306833	1259.0	2002.0	2.365271726700873	0.0	26019.0	794.036865234375	0.5625	746.0	0.6518218623481782	-88.0	0.402834008097166	-392.0	0.9328643523474538	533.0	-5.8655993741580605	375.0	-200.0	-9.388102057881525	
1855.0	1.0626305347504603	9.834482046474603	1265.0	2001.0	2.2314123318191657	0.0	26659.0	813.568115234375	0.56	745.0	0.6477732793522267	-90.0	0.42105263157894735	-401.0	0.09175714941122497	472.0	-5.2107085058826295	334.0	-145.0	-8.445539646053149	
1850.0	0.9574536203946408	10.031076325178374	1249.0	2010.0	2.2945334121051038	0.0	27299.0	833.099365234375	0.56	745.0	0.6477732793522267	-90.0	0.42105263157894735	-401.0	-0.18351429882244993	288.0	-4.320467837748616	275.0	-127.0	-5.613252246276827	
1840.0	0.7321498632593522	10.119748230697116	1242.0	2029.0	2.4145357403549697	0.0	27939.0	852.630615234375	0.56	745.0	0.6477732793522267	-90.0	0.42105263157894735	-401.0	-3.9608502829178778	266.0	-2.265556814178361	151.0	120.0	-5.2551244955623755	
1845.0	0.6131321848733419	10.122742296857998	1242.0	2039.0	2.353164481038905	0.0	28579.0	872.161865234375	0.56	745.0	0.6437246963562753	-92.0	0.402834008097166	-392.0	-11.928429423459246	359.0	0.14377938707146398	16.0	641.0	-6.658068113755494	
1863.0	0.6952514296080692	10.001333436997403	1252.0	2032.0	2.1346900264095225	0.0	29219.0	891.693115234375	0.56	745.0	0.6437246963562753	-92.0	0.402834008097166	-392.0	-22.00642300045879	470.0	2.3019098179498023	-97.0	1300.0	-8.339724495498576	
1875.0	0.9556551937529689	9.851233661011182	1264.0	2010.0	1.9897137552782351	0.0	29859.0	911.224365234375	0.56	745.0	0.6437246963562753	-92.0	0.402834008097166	-392.0	-28.001223428658818	437.0	3.567122309502193	-164.0	1692.0	-7.82070440986493	
1868.0	1.3948154302823448	9.719638266329708	1274.0	1973.0	2.0758107991474897	0.0	30499.0	930.755615234375	0.56	745.0	0.6437246963562753	-92.0	0.402834008097166	-392.0	-29.54580211041444	356.0	4.539314138913613	-224.0	1793.0	-6.568079315262699	
1870.0	1.6679628374273585	9.653426599878706	1279.0	1950.0	2.053121654347751	0.0	31139.0	950.286865234375	0.5475	740.0	0.6761133603238867	-76.0	0.4048582995951417	-393.0	-26.074323291023095	444.0	3.1066102469394155	-139.0	1566.0	-7.9327209160974315	
1886.0	1.9408833006077573	9.564520536966201	1286.0	1927.0	1.8613016533839557	0.0	31779.0	969.818115234375	0.5475	740.0	0.6761133603238867	-76.0	0.4048582995951417	-393.0	-20.981801498700108	521.0	0.822967143642556	-3.0	1233.0	-9.137082588806019	
1888.0	2.0961041287151465	9.610412871514631	1282.0	1914.0	1.8396753228138296	0.0	32419.0	989.349365234375	0.5475	740.0	0.6761133603238867	-76.0	0.4048582995951417	-393.0	-11.928429423459246	354.0	-1.656530925600249	133.0	641.0	-6.599348798591587	
1871.0	2.0384003400136734	9.792414953748294	1267.0	1919.0	2.047557603679922	0.0	33059.0	1008.880615234375	0.5425	738.0	0.6923076923076923	-68.0	0.3866396761133603	-384.0	-4.358464597033186	250.0	-3.5440884121613543	235.0	146.0	-5.022398073012208	
1859.0	1.8489231865626938	9.89231865626938	1259.0	1935.0	2.1922392194488456	0.0	33699.0	1028.411865234375	0.5425	738.0	0.6923076923076923	-68.0	0.3866396761133603	-384.0	1.1622572258755162	269.0	-3.8850257305291174	243.0	-215.0	-5.317352635700259	
1857.0	1.7296532731489653	9.870089219658457	1261.0	1945.0	2.214698317124659	0.0	34339.0	1047.943115234375	0.5425	738.0	0.6923076923076923	-68.0	0.3866396761133603	-384.0	2.385685884691849	451.0	-3.8598916833743386	240.0	-295.0	-8.109797321007443	
1871.0	1.6333540527734631	9.76397670591773	1270.0	1953.0	2.0429383758509085	0.0	34979.0	1067.474365234375	0.5425	738.0	0.6923076923076923	-68.0	0.3866396761133603	-384.0	1.146964367640312	590.0	-3.4660261503802565	219.0	-214.0	-10.238741894156867	
1872.0	1.5975262447528156	9.75262447528156	1271.0	1956.0	2.0303048603868943	0.0	35619.0	1087.005615234375	0.5325	734.0	0.6963562753036437	-66.0	0.39878542510121456	-390.0	-0.10705000764642914	614.0	-3.0122898019212223	193.0	-132.0	-10.602472138467272	
1883.0	1.920000603665407	9.857203223683534	1262.0	1929.0	1.903091058462132	0.0	36259.0	1106.536865234375	0.5325	734.0	0.6963562753036437	-66.0	0.39878542510121456	-390.0	-2.0645358617525615	696.0	-1.7986250890391549	120.0	-4.0	-11.848583151304693	
1881.0	2.1012155965011363	10.121559650113657	1240.0	1914.0	1.9342867224612605	0.0	36899.0	1126.068115234375	0.5325	734.0	0.6963562753036437	-66.0	0.39878542510121456	-390.0	1.9269001376357242	540.0	-0.4748919061305303	22.0	-265.0	-9.441606368808124	
1889.0	1.9970295572111156	10.417241435397285	1216.0	1923.0	1.842772955605358	0.0	37539.0	1145.599365234375	0.5425	738.0	0.6842105263157895	-72.0	0.3967611336032389	-389.0	7.20293622878116	444.0	1.7295108294346346	-136.0	-610.0	-7.94649191027248	
1870.0	1.5694965732703656	10.521085898465131	1208.0	1959.0	2.0694901776779098	0.0	38179.0	1165.130615234375	0.5425	738.0	0.6842105263157895	-72.0	0.3967611336032389	-389.0	10.597950756996484	303.0	4.755897406841225	-343.0	-832.0	-5.752655848702802	
1875.0	1.1757491660352404	10.432059460666915	1216.0	1992.0	2.0035312109941725	0.0	38819.0	1184.661865234375	0.5425	738.0	0.6842105263157895	-72.0	0.3967611336032389	-389.0	6.897079064077077	452.0	8.541245508323394	-578.0	-590.0	-8.001130432748592	
1889.0	1.2700097681047355	10.334310143806887	1224.0	1984.0	1.8338441318824863	0.0	39459.0	1204.193115234375	0.5525	742.0	0.6943319838056681	-67.0	0.3643724696356275	-373.0	-1.5445786817556202	599.0	10.931686017875068	-710.0	-38.0	-10.232865125397435	
1898.0	1.6415540264118331	10.583974069754731	1203.0	1953.0	1.734119118044755	0.0	40099.0	1223.724365234375	0.5525	742.0	0.6943319838056681	-67.0	0.3643724696356275	-373.0	-2.6303716164551156	549.0	12.936172901998303	-838.0	33.0	-9.44559607364996	
1892.0	1.894422226616181	10.87079409018954	1179.0	1932.0	1.8146733570820008	0.0	40739.0	1243.255615234375	0.5525	742.0	0.6943319838056681	-67.0	0.3643724696356275	-373.0	1.5751643982260286	430.0	14.287781253501434	-938.0	-242.0	-7.606086434818063	
1896.0	1.9897679063523703	10.881552539998943	1178.0	1924.0	1.7676492117912135	0.0	41379.0	1262.786865234375	0.5525	742.0	0.6943319838056681	-67.0	0.3643724696356275	-373.0	8.089922006423	446.0	16.16759068060153	-1077.0	-668.0	-7.83280007907706	
1893.0	1.9168872452626324	10.736343573882303	1190.0	1930.0	1.8001608041712363	0.0	42019.0	1282.318115234375	0.5575	744.0	0.6943319838056681	-67.0	0.33805668016194335	-360.0	15.537543966967428	391.0	17.676200843556348	-1195.0	-1155.0	-6.973767376250642	
1896.0	1.7119906190863758	10.484776194351875	1211.0	1947.0	1.7569359120056123	0.0	42659.0	1301.849365234375	0.5575	744.0	0.6943319838056681	-67.0	0.33805668016194335	-360.0	18.45847988989142	383.0	20.357437021360187	-1377.0	-1346.0	-6.824199145207605	
1916.0	1.7455275737732978	10.26704309161548	1229.0	1944.0	1.5119527640760668	0.0	43299.0	1321.380615234375	0.5575	744.0	0.6943319838056681	-67.0	0.33805668016194335	-360.0	21.012387215170516	410.0	24.935169626651422	-1681.0	-1513.0	-7.192722877924065	
1920.0	1.8753613401630453	10.155181635352168	1238.0	1933.0	1.4628211015303605	0.0	43939.0	1340.911865234375	0.5675	748.0	0.6842105263157895	-72.0	0.291497975708502	-337.0	22.4193301728093	190.0	30.19763041012551	-2029.0	-1605.0	-3.7643118653018446	
1906.0	1.3273478497961828	10.115737360570668	1242.0	1979.0	1.6252267799262425	0.0	44579.0	1360.443115234375	0.5675	748.0	0.6842105263157895	-72.0	0.291497975708502	-337.0	25.477901819850132	-218.0	37.24163462634697	-2499.0	-1805.0	2.5666775093753307	
1908.0	0.24508790420950272	10.223076135235985	1235.0	2070.0	1.5924545704215136	0.0	45219.0	1379.974365234375	0.5675	748.0	0.6842105263157895	-72.0	0.291497975708502	-337.0	18.33613702400979	-476.0	44.747387348689834	-2971.0	-1338.0	6.6006118203949855	
1917.0	0.2938053442937041	10.332915381751363	1226.0	2066.0	1.4867047948129037	0.0	45859.0	1399.505615234375	0.5675	748.0	0.6842105263157895	-72.0	0.291497975708502	-337.0	-2.1257072946933784	-561.0	50.151570308583864	-3270.0	0.0	7.958934760934543	
1910.0	0.6060622878588895	10.606228785888948	1203.0	2040.0	1.5796309817288978	0.0	46499.0	1419.036865234375	0.5875	756.0	0.6842105263157895	-72.0	0.2813765182186235	-332.0	-14.574093898149565	-846.0	53.91258140341617	-3485.0	814.0	12.369722714448462	
1891.0	0.6413808084787478	10.566652276446213	1206.0	2037.0	1.808108299396844	0.0	47139.0	1438.568115234375	0.5875	756.0	0.6842105263157895	-72.0	0.2813765182186235	-332.0	-19.88071570576541	-1068.0	55.182794171542824	-3556.0	1161.0	15.788900214233461	
1882.0	1.0079053929280744	10.314348816616958	1226.0	2006.0	1.9151612109845113	0.0	47779.0	1458.099365234375	0.5875	756.0	0.6842105263157895	-72.0	0.2813765182186235	-332.0	-23.826273130448083	-1026.0	56.30064879706078	-3618.0	1419.0	15.155610446847392	
1891.0	1.5057434325159862	10.098152775408149	1243.0	1964.0	1.8073819356164553	0.0	48419.0	1477.630615234375	0.5625	746.0	0.7186234817813765	-55.0	0.24898785425101214	-316.0	-27.328337666309835	-1075.0	57.34066126445846	-3677.0	1648.0	15.91789027076949	
1875.0	1.983647498455508	10.269511750312704	1228.0	1924.0	2.0083592401112913	0.0	49059.0	1497.161865234375	0.5625	746.0	0.7186234817813765	-55.0	0.24898785425101214	-316.0	-32.74200948157211	-1272.0	54.5892451088837	-3486.0	2002.0	18.91323938986435	
1881.0	2.248066813692659	10.520967083551664	1207.0	1902.0	1.9437433833019357	0.0	49699.0	1516.693115234375	0.5625	746.0	0.7186234817813765	-55.0	0.24898785425101214	-316.0	-31.182137941581285	-1121.0	48.41312072501622	-3087.0	1900.0	16.534461113648813	
1872.0	2.3427873253730755	10.469208727783766	1211.0	1894.0	2.052089156243141	0.0	50339.0	1536.224365234375	0.5275	732.0	0.7591093117408907	-35.0	0.24291497975708504	-313.0	-26.27313044808075	-1094.0	44.22193784410737	-2827.0	1579.0	16.07824822607035	
1865.0	2.4846321164065484	10.367973545416735	1219.0	1882.0	2.1358202499037255	0.0	50979.0	1555.755615234375	0.5275	732.0	0.7591093117408907	-35.0	0.24291497975708504	-313.0	-21.792322985165928	-1103.0	39.16565727364114	-2510.0	1286.0	16.165785773288814	
1870.0	1.6026437342204969	10.264373422049706	1229.0	1956.0	2.0646873997591024	0.0	51619.0	1575.286865234375	0.5275	732.0	0.7591093117408907	-35.0	0.24291497975708504	-313.0	-25.14145893867564	-1208.0	34.05405754308598	-2170.0	1505.0	17.725840560086375	
1867.0	2.363050875941344	10.114611403658248	1240.0	1892.0	2.1054408091217347	0.0	52259.0	1594.818115234375	0.5275	732.0	0.7591093117408907	-35.0	0.24291497975708504	-313.0	-50.63465361676098	-769.0	34.694998301733875	-2141.0	3172.0	10.996021641756023	
1890.0	3.3009277594784616	9.854680709750895	1260.0	1813.0	1.8325125303440193	0.0	52899.0	1614.349365234375	0.4875	716.0	0.7935222672064778	-18.0	0.19635627530364372	-290.0	-46.21501758678698	-526.0	28.787747349124317	-1766.0	2883.0	7.208239603305575	
1902.0	3.0890156957894863	10.092045769424809	1241.0	1831.0	1.6905623976475956	0.0	53539.0	1633.880615234375	0.4875	716.0	0.7935222672064778	-18.0	0.19635627530364372	-290.0	-25.646123260437378	-862.0	22.1611356892347	-1392.0	1538.0	12.297719995836648	
1872.0	2.8538578216441413	10.385782164414074	1217.0	1851.0	2.0555313299384577	0.0	54179.0	1653.411865234375	0.4875	716.0	0.7935222672064778	-18.0	0.19635627530364372	-290.0	-18.15262272518734	-1397.0	19.564518502563075	-1248.0	1048.0	20.481052581066752	
1851.0	2.971393402608637	10.234578356101787	1229.0	1841.0	2.306694657774628	0.0	54819.0	1672.943115234375	0.46	705.0	0.8319838056680162	1.0	0.22064777327935223	-302.0	-18.56552989753785	-1331.0	16.545778743459554	-1050.0	1075.0	19.438129262039478	
1865.0	3.086167381601442	9.807214350620399	1264.0	1831.0	2.1306204186597477	0.0	55459.0	1692.474365234375	0.46	705.0	0.8319838056680162	1.0	0.22064777327935223	-302.0	-23.138094509863897	-1079.0	14.214129276843096	-884.0	1374.0	15.548002885525836	
1867.0	3.1681454546180823	9.671688318951105	1275.0	1824.0	2.104633293214359	0.0	56099.0	1712.005615234375	0.46	705.0	0.8319838056680162	1.0	0.22064777327935223	-302.0	-19.33017280929806	-939.0	11.330160532439413	-705.0	1125.0	13.370935485944312	
1845.0	3.3092407665864303	9.495505230071604	1289.0	1812.0	2.3675808255203084	0.0	56739.0	1731.536865234375	0.46	705.0	0.8319838056680162	1.0	0.22064777327935223	-302.0	-16.653922618137333	-809.0	10.489412233023927	-656.0	950.0	11.36774512739392	
1870.0	3.1893938585704587	9.415576333236329	1296.0	1822.0	2.0635789592263345	0.0	57379.0	1751.068115234375	0.4275	692.0	0.8461538461538461	8.0	0.2125506072874494	-298.0	-16.959779782841416	-372.0	8.215445230525942	-503.0	970.0	4.639466098768357	
1872.0	3.44056506075206	9.532696551396462	1286.0	1801.0	2.044336690069185	0.0	58019.0	1770.599365234375	0.4275	692.0	0.8461538461538461	8.0	0.2125506072874494	-298.0	-16.852729775194984	-82.0	6.917536370738161	-416.0	963.0	0.17658674931425594	
1853.0	3.6783457738236858	9.50124404903525	1288.0	1781.0	2.275001109803279	0.0	58659.0	1790.130615234375	0.4275	692.0	0.8461538461538461	8.0	0.2125506072874494	-298.0	-13.442422388744458	28.0	6.075121551201043	-369.0	740.0	-1.5197306012748548	
1881.0	4.056085874704246	9.180016041853182	1314.0	1749.0	1.9350045530780822	0.0	59299.0	1809.661865234375	0.41250000000000003	686.0	0.8582995951417004	14.0	0.18421052631578946	-284.0	-6.942957638782689	539.0	2.3252465189282447	-137.0	315.0	-9.39826050089941	
1903.0	3.7239431309442	9.299074999181908	1305.0	1777.0	1.6690040638232007	0.0	59939.0	1829.193115234375	0.41250000000000003	686.0	0.8582995951417004	14.0	0.18421052631578946	-284.0	9.63450068817862	604.0	-2.0345638999641933	104.0	-769.0	-10.439250042866453	
1876.0	2.6174778125801454	9.366828877062135	1301.0	1870.0	1.9845956930164417	0.0	60579.0	1848.724365234375	0.41250000000000003	686.0	0.8582995951417004	14.0	0.18421052631578946	-284.0	22.526380180455728	188.0	-3.2600040408200437	146.0	-1612.0	-4.06819924249505	
1889.0	2.5192269504815012	9.065552191007281	1326.0	1878.0	1.8209611446502618	0.0	61219.0	1868.255615234375	0.435	695.0	0.8623481781376519	16.0	0.21052631578947367	-297.0	20.03364428811745	627.0	-4.861730770944831	261.0	-1449.0	-10.820444835713133	
1905.0	2.8259040862954077	8.780884820016945	1349.0	1852.0	1.6255634842512448	0.0	61859.0	1887.786865234375	0.435	695.0	0.8623481781376519	16.0	0.21052631578947367	-297.0	18.794922771065913	937.0	-7.225537451820408	421.0	-1368.0	-15.600872836540608	
1899.0	3.040139520399241	8.775856801828832	1349.0	1834.0	1.699894434855027	0.0	62499.0	1907.318115234375	0.435	695.0	0.8623481781376519	16.0	0.21052631578947367	-297.0	25.14145893867564	878.0	-9.64172536896155	561.0	-1783.0	-14.71971017988265	
1909.0	2.3165450400831484	9.035456389267194	1329.0	1895.0	1.5773685540897897	0.0	63139.0	1926.849365234375	0.435	695.0	0.8623481781376519	16.0	0.21052631578947367	-297.0	39.97553142682368	866.0	-12.405550316786625	702.0	-2753.0	-14.563214625463402	
1888.0	1.4461839104857226	8.904105334286537	1341.0	1968.0	1.8190499698869735	0.0	63779.0	1946.380615234375	0.465	707.0	0.8218623481781376	-4.0	0.20242914979757085	-293.0	46.031503287964526	697.0	-13.688821467895318	768.0	-3149.0	-11.98282959875138	
1869.0	1.4434791766884418	8.633631954558474	1363.0	1968.0	2.0425291176050417	0.0	64419.0	1965.911865234375	0.465	707.0	0.8218623481781376	-4.0	0.20242914979757085	-293.0	34.99005964214712	817.0	-12.936562838724836	749.0	-2427.0	-13.816645051434664	
1876.0	1.8838752972933048	8.625624967425718	1363.0	1931.0	1.962435589670845	0.0	65059.0	1985.443115234375	0.465	707.0	0.8218623481781376	-4.0	0.20242914979757085	-293.0	18.504358464597036	1228.0	-11.737339170726344	718.0	-1349.0	-20.111235598244015	
1886.0	2.1367627668790643	8.914371926001706	1339.0	1910.0	1.8502574758273789	0.0	163.0	2004.974365234375	0.4975	720.0	0.7955465587044535	-17.0	0.1417004048582996	-263.0	12.57072946933782	1475.0	-11.046841466161617	691.0	-961.0	-23.894418084755223	
1899.0	1.676243063087682	9.290972975434851	1309.0	1949.0	1.6965577937540317	0.0	803.0	2024.505615234375	0.4975	720.0	0.7955465587044535	-17.0	0.1417004048582996	-263.0	14.344701024621504	1475.0	-11.7791637981856	734.0	-1077.0	-23.901741308075458	
1893.0	1.8085028328475508	9.421711856183679	1298.0	1938.0	1.772784325693113	0.0	1443.0	2044.036865234375	0.4975	720.0	0.7955465587044535	-17.0	0.1417004048582996	-263.0	5.10781465055819	1342.0	-10.061248147307422	645.0	-473.0	-21.843745825036063	
1898.0	2.2369941747729674	9.413703191582451	1298.0	1902.0	1.7166681019649208	0.0	2083.0	2063.568115234375	0.4975	720.0	0.7955465587044535	-17.0	0.1417004048582996	-263.0	-2.1562930111637866	1497.0	-9.685408479596074	641.0	2.0	-24.218382395368312	
1912.0	2.344863779562685	9.48637795626851	1292.0	1893.0	1.5505255945113585	0.0	2723.0	2083.099365234375	0.5025000000000001	722.0	0.8016194331983806	-14.0	0.1680161943319838	-276.0	-0.48937146352653316	1552.0	-10.266584219998311	675.0	-107.0	-25.068140753969203	
1930.0	2.2629097932728097	9.624312660614278	1281.0	1900.0	1.335597278855857	0.0	3363.0	2102.630615234375	0.5025000000000001	722.0	0.8016194331983806	-14.0	0.1680161943319838	-276.0	1.5598715399908245	1536.0	-10.47404630239436	683.0	-241.0	-24.824703636263166	
1931.0	2.0486683374872854	9.628738510633275	1281.0	1918.0	1.3214951885272974	0.0	4003.0	2122.161865234375	0.5025000000000001	722.0	0.8016194331983806	-14.0	0.1680161943319838	-276.0	4.434928888209207	1467.0	-11.107187189156496	716.0	-429.0	-23.772265672720167	
1936.0	2.2848932242542515	9.441703377806085	1296.0	1898.0	1.2598757708830013	0.0	4643.0	2141.693115234375	0.505	723.0	0.7651821862348178	-32.0	0.13765182186234817	-261.0	2.584493041749503	1528.0	-10.931533692307616	710.0	-308.0	-24.7065226408973	
1953.0	2.5810101201011526	9.291488200591456	1308.0	1873.0	1.0550133591887443	0.0	5283.0	2161.224365234375	0.505	723.0	0.7651821862348178	-32.0	0.13765182186234817	-261.0	4.098486007034715	1649.0	-12.834588395281616	831.0	-407.0	-26.582235710560155	
1963.0	2.17914533697788	9.581200364454618	1285.0	1907.0	0.9363070269239314	0.0	5923.0	2180.755615234375	0.505	723.0	0.7651821862348178	-32.0	0.13765182186234817	-261.0	10.047407860529134	1607.0	-15.032315788186457	958.0	-796.0	-25.959744670847954	
1966.0	1.6194937549953472	9.568423118582334	1287.0	1954.0	0.8943103878734073	0.0	6563.0	2200.286865234375	0.53	733.0	0.771255060728745	-29.0	0.15384615384615385	-269.0	15.858693989906715	1466.0	-13.917494286723626	869.0	-1176.0	-23.785024260037716	
1980.0	1.9264122868099272	9.307895347659388	1308.0	1928.0	0.7234943189779135	0.0	7203.0	2219.818115234375	0.53	733.0	0.771255060728745	-29.0	0.15384615384615385	-269.0	10.964979354641384	1792.0	-13.34875233220245	848.0	-856.0	-28.781638513041223	
1977.0	2.211943651626721	9.289603257910167	1309.0	1904.0	0.7621283691443501	0.0	7843.0	2239.349365234375	0.53	733.0	0.771255060728745	-29.0	0.15384615384615385	-269.0	7.0653005046643225	1748.0	-14.153135743528601	910.0	-601.0	-28.11452506619699	
1988.0	1.9765913505978925	9.563896964551168	1287.0	1924.0	0.632730599784954	0.0	8483.0	2258.880615234375	0.53	733.0	0.771255060728745	-29.0	0.15384615384615385	-269.0	8.548707753479126	1708.0	-14.433933231582655	924.0	-698.0	-27.503553694752533	
1992.0	1.8340115325353543	9.591629444011616	1285.0	1936.0	0.5836666801092003	0.0	9123.0	2278.411865234375	0.5375	736.0	0.7510121457489879	-39.0	0.13360323886639677	-259.0	11.484936534638326	1634.0	-14.316633048597744	908.0	-890.0	-26.36688890222144	
1987.0	2.04763865929215	9.52577069111973	1290.0	1918.0	0.6447267401743522	0.0	9763.0	2297.943115234375	0.5375	736.0	0.7510121457489879	-39.0	0.13360323886639677	-259.0	10.292093592292401	1588.0	-14.260601147691949	907.0	-812.0	-25.66048233493864	
1993.0	2.118572496004099	9.47629721945754	1294.0	1912.0	0.5721574524817219	0.0	10403.0	2317.474365234375	0.5375	736.0	0.7510121457489879	-39.0	0.13360323886639677	-259.0	8.976907784064842	1564.0	-15.196046775504378	971.0	-726.0	-25.301569183421766	
2001.0	1.9260718708630047	9.27385375296713	1311.0	1928.0	0.4697980347318281	0.0	11043.0	2337.005615234375	0.555	743.0	0.7408906882591093	-44.0	0.16396761133603238	-274.0	11.041443645817404	1585.0	-16.075194895603186	1023.0	-861.0	-25.632594821443377	
2018.0	2.0804574476587407	9.236220956350284	1314.0	1915.0	0.26576995745901477	0.0	11683.0	2356.536865234375	0.555	743.0	0.7408906882591093	-44.0	0.16396761133603238	-274.0	10.84263648875975	1559.0	-16.025090438863305	1020.0	-848.0	-25.233137201764727	
2018.0	1.9379947145875247	9.275661934942955	1311.0	1927.0	0.26513414970015603	0.0	12323.0	2376.068115234375	0.555	743.0	0.7408906882591093	-44.0	0.16396761133603238	-274.0	13.534179538155682	1555.0	-16.164116535345393	1022.0	-1024.0	-25.17314952809705	
2036.0	1.6764080571660203	9.307472383268696	1309.0	1949.0	0.046287022212937734	0.0	12963.0	2395.599365234375	0.555	743.0	0.7408906882591093	-44.0	0.16396761133603238	-274.0	17.082122648723047	1451.0	-16.27583460431128	1019.0	-1256.0	-23.57844040834172	
2037.0	1.4144352190167404	9.300664758816879	1310.0	1971.0	0.031482948571324276	0.0	13603.0	2415.130615234375	0.5750000000000001	751.0	0.7267206477732794	-51.0	0.13765182186234817	-261.0	17.816179844012847	1309.0	-16.926828666017933	1058.0	-1304.0	-21.40603366950505	
2044.0	1.4246393866644254	9.130605333109205	1324.0	1970.0	-0.05615354766394276	0.0	14243.0	2434.661865234375	0.5750000000000001	751.0	0.7267206477732794	-51.0	0.13765182186234817	-261.0	12.861293775806699	1274.0	-16.48793170011003	1042.0	-980.0	-20.864587771811596	
2049.0	1.5434253037404675	9.104435135951523	1326.0	1960.0	-0.11573005629175764	0.0	14883.0	2454.193115234375	0.5750000000000001	751.0	0.7267206477732794	-51.0	0.13765182186234817	-261.0	7.7381862670133055	1250.0	-15.625339632997116	999.0	-645.0	-20.48769424334547	
2051.0	1.7348408512148679	9.1983708357725	1318.0	1944.0	-0.13603357236276273	0.0	15523.0	2473.724365234375	0.5925	758.0	0.7246963562753036	-52.0	0.15384615384615385	-269.0	7.447621960544426	1111.0	-15.419714971102325	985.0	-626.0	-18.35275476824716	
2062.0	1.5433190577761893	9.093810539523712	1327.0	1960.0	-0.272570116704053	0.0	16163.0	2493.255615234375	0.5925	758.0	0.7246963562753036	-52.0	0.15384615384615385	-269.0	10.383850741703625	1037.0	-15.825358955783402	1003.0	-818.0	-17.221319417392728	
2065.0	1.3051533683131262	9.08676540274119	1328.0	1980.0	-0.3112372546475871	0.0	16803.0	2512.786865234375	0.5925	758.0	0.7246963562753036	-52.0	0.15384615384615385	-269.0	11.790793699342409	793.0	-16.488154143433132	1040.0	-910.0	-13.483893356686748	
2070.0	1.5081091917932856	9.144252512661906	1323.0	1963.0	-0.36829891806979276	0.0	17443.0	2532.318115234375	0.6025	762.0	0.7064777327935223	-61.0	0.13765182186234817	-261.0	8.992200642300046	726.0	-16.20193286071321	1028.0	-727.0	-12.45295073876518	
2076.0	1.50799451547464	9.13278488079733	1324.0	1963.0	-0.4408185740967768	0.0	18083.0	2551.849365234375	0.6025	762.0	0.7064777327935223	-61.0	0.13765182186234817	-261.0	10.735586481113321	581.0	-15.909390827653652	1003.0	-841.0	-10.225075188006475	
2073.0	1.5419913797724831	8.961042739153065	1338.0	1960.0	-0.4077688699734307	0.0	18723.0	2571.380615234375	0.6025	762.0	0.7064777327935223	-61.0	0.13765182186234817	-261.0	13.549472396390886	526.0	-16.014992921182586	1002.0	-1025.0	-9.382184607744895	
2066.0	1.425519198420593	9.218586508725958	1317.0	1970.0	-0.3194453669979014	0.0	19363.0	2590.911865234375	0.6025	762.0	0.7064777327935223	-61.0	0.13765182186234817	-261.0	16.806851200489373	267.0	-15.846637646083265	980.0	-1238.0	-5.40627978753955	
2070.0	1.0346962429293343	9.422005245314368	1301.0	2003.0	-0.367477992905383	0.0	20003.0	2610.443115234375	0.6025	762.0	0.6943319838056681	-67.0	0.16396761133603238	-274.0	18.993729928123567	174.0	-15.394667402162751	944.0	-1381.0	-3.974723104894729	
2067.0	0.9744493658664177	9.349698491403666	1307.0	2008.0	-0.33338201844097337	0.0	20643.0	2629.974365234375	0.6025	762.0	0.6943319838056681	-67.0	0.16396761133603238	-274.0	16.959779782841416	178.0	-13.91305912931681	853.0	-1248.0	-4.02128495679877	
2079.0	1.1069746183537252	9.506985644896357	1294.0	1997.0	-0.4734893360992585	0.0	21283.0	2649.505615234375	0.6025	762.0	0.6943319838056681	-67.0	0.16396761133603238	-274.0	12.631900902278637	283.0	-12.293445081372877	760.0	-965.0	-5.6162596004224445	
2066.0	1.1907631613754202	9.55250661373249	1290.0	1990.0	-0.3151145252682225	0.0	21923.0	2669.036865234375	0.6225	770.0	0.6781376518218624	-75.0	0.16194331983805668	-273.0	10.552072182290871	198.0	-11.48502763895724	712.0	-829.0	-4.303894315057672	
2094.0	1.2391377768400225	9.628063398287962	1284.0	1986.0	-0.6504690410128284	0.0	22563.0	2688.568115234375	0.6225	770.0	0.6781376518218624	-75.0	0.16194331983805668	-273.0	9.756843554060255	329.0	-11.140888905298286	693.0	-777.0	-6.310580286935444	
2076.0	1.1220428361050359	9.823331229551199	1268.0	1996.0	-0.4308671639153955	0.0	23203.0	2708.099365234375	0.6225	770.0	0.6781376518218624	-75.0	0.16194331983805668	-273.0	10.03211500229393	240.0	-11.365503127763347	706.0	-795.0	-4.9471673835869785	
2059.0	1.0882656897537784	10.017045165854027	1252.0	1999.0	-0.22251137954441783	0.0	23843.0	2727.630615234375	0.6225	770.0	0.6781376518218624	-75.0	0.16194331983805668	-273.0	9.252179232298518	181.0	-10.74351343478443	667.0	-744.0	-4.03562295082782	
2058.0	1.13538635609782	9.967207038353424	1256.0	1995.0	-0.2109887426599051	0.0	24483.0	2747.161865234375	0.63	773.0	0.6740890688259109	-77.0	0.145748987854251	-265.0	8.166386297599022	261.0	-9.411212703105802	584.0	-673.0	-5.249858636161027	
2083.0	1.2186111522169916	9.956353316937262	1257.0	1988.0	-0.511578388404145	0.0	25123.0	2766.693115234375	0.63	773.0	0.6740890688259109	-77.0	0.145748987854251	-265.0	5.444257531732681	531.0	-7.569034287109245	474.0	-495.0	-9.374447439694784	
2084.0	1.2306366288967752	9.968424794439429	1256.0	1987.0	-0.5232648968583882	0.0	25763.0	2786.224365234375	0.63	773.0	0.6740890688259109	-77.0	0.145748987854251	-265.0	3.5785288270377738	455.0	-5.952621450421811	373.0	-373.0	-8.192102553310418	
2103.0	1.2311471206339024	10.019473968152155	1252.0	1987.0	-0.7511544711173649	0.0	26403.0	2805.755615234375	0.625	771.0	0.6639676113360324	-82.0	0.1396761133603239	-262.0	3.6244074017433863	447.0	-5.478881810638268	342.0	-376.0	-8.064609287647583	
2094.0	1.1832829969064274	9.994966357309407	1254.0	1991.0	-0.6436895296317355	0.0	27043.0	2825.286865234375	0.625	771.0	0.6639676113360324	-82.0	0.1396761133603239	-262.0	5.5818932558495185	360.0	-5.847374576234687	360.0	-504.0	-6.73332413704668	
2092.0	1.5037912620598184	9.90293572979137	1261.0	1964.0	-0.6182286739883937	0.0	27683.0	2844.818115234375	0.625	771.0	0.6639676113360324	-82.0	0.1396761133603239	-262.0	5.704236121731152	213.0	-6.520811791286943	402.0	-512.0	-4.484419411452842	
2110.0	1.3636663514395193	10.176158953475726	1239.0	1976.0	-0.8310329285004274	0.0	28323.0	2864.349365234375	0.6425	778.0	0.6497975708502024	-89.0	0.11538461538461539	-250.0	12.815415201101088	132.0	-7.494409577376838	446.0	-977.0	-3.251252213005624	
2101.0	0.9945601398659254	10.170299700878257	1240.0	2007.0	-0.7264074407283538	0.0	28963.0	2883.880615234375	0.6425	778.0	0.6497975708502024	-89.0	0.11538461538461539	-250.0	14.054136718152623	80.0	-7.275079022690428	428.0	-1058.0	-2.4511457572362643	
2108.0	1.146739431238126	9.912038361907836	1261.0	1994.0	-0.8143882239916306	0.0	29603.0	2903.411865234375	0.6425	778.0	0.6497975708502024	-89.0	0.11538461538461539	-250.0	12.096650864046492	177.0	-8.104747405626727	488.0	-930.0	-3.9478573559037438	
2106.0	1.0884441958983508	10.034895780311258	1251.0	1999.0	-0.7884176424347913	0.0	30243.0	2922.943115234375	0.6425	778.0	0.6497975708502024	-89.0	0.11538461538461539	-250.0	16.79155834225417	-17.0	-8.891376548874588	525.0	-1237.0	-0.9788938176599904	
2106.0	0.3169843875184448	10.269867323273054	1233.0	2064.0	-0.7914328096593545	0.0	30883.0	2942.474365234375	0.655	783.0	0.6295546558704453	-99.0	0.12753036437246965	-256.0	14.130601009328645	62.0	-8.003792427640423	475.0	-1063.0	-2.182232185439516	
2100.0	0.09010071735173156	10.200547925649348	1239.0	2083.0	-0.7227988776869898	0.0	31523.0	2962.005615234375	0.655	783.0	0.6295546558704453	-99.0	0.12753036437246965	-256.0	5.153693225263802	133.0	-6.603350901752425	408.0	-476.0	-3.2576861099075045	
2088.0	0.3627436544413093	10.083889253654739	1248.0	2060.0	-0.577827308502974	0.0	32163.0	2981.536865234375	0.655	783.0	0.6295546558704453	-99.0	0.12753036437246965	-256.0	-3.0891573635112404	345.0	-6.118097107147362	400.0	63.0	-6.505864107483934	
2081.0	0.6357583202226038	10.004403450831807	1254.0	2037.0	-0.4923495285040294	0.0	32803.0	3001.068115234375	0.6575	784.0	0.6133603238866396	-107.0	0.12955465587044535	-257.0	-7.38645052760361	395.0	-7.41509933147172	496.0	344.0	-7.286058312633424	
2081.0	0.9093909280416419	9.986711851783236	1255.0	2014.0	-0.48996703440681044	0.0	33443.0	3020.599365234375	0.6575	784.0	0.6133603238866396	-107.0	0.12955465587044535	-257.0	-5.8112861293775815	486.0	-8.663832966921705	574.0	241.0	-8.694893661877288	
2082.0	1.1588542931734525	9.933048364964282	1259.0	1993.0	-0.5005938632629556	0.0	34083.0	3040.130615234375	0.6575	784.0	0.6133603238866396	-107.0	0.12955465587044535	-257.0	-0.5046643217617374	570.0	-9.478416969944691	614.0	-106.0	-9.991976129190009	
2081.0	1.1246088068569058	10.079928304738214	1247.0	1996.0	-0.4859505265595583	0.0	34723.0	3059.661865234375	0.6575	784.0	0.6133603238866396	-107.0	0.12955465587044535	-257.0	6.897079064077077	469.0	-10.94350679124984	689.0	-590.0	-8.456834177932448	
2080.0	0.9372172408291252	10.38839074957918	1222.0	2012.0	-0.46960700055193233	0.0	35363.0	3079.193115234375	0.6525	782.0	0.6234817813765182	-102.0	0.145748987854251	-265.0	11.117907936993426	456.0	-11.729546080504603	729.0	-866.0	-8.265216283269371	
2083.0	0.5684911883016158	10.420547401590152	1220.0	2043.0	-0.5087957063502411	0.0	36003.0	3098.724365234375	0.6525	782.0	0.6234817813765182	-102.0	0.145748987854251	-265.0	14.803486771677628	483.0	-12.918700232054634	797.0	-1107.0	-8.691408883554242	
2094.0	0.48299360389379203	10.20412229414111	1238.0	2050.0	-0.6465093048252278	0.0	36643.0	3118.255615234375	0.6525	782.0	0.6234817813765182	-102.0	0.145748987854251	-265.0	13.503593821685275	551.0	-14.409728299724131	898.0	-1022.0	-9.749744052983432	
2091.0	0.32960010650019256	10.340963030971636	1227.0	2063.0	-0.6091618467493003	0.0	37283.0	3137.786865234375	0.6675	788.0	0.6012145748987854	-113.0	0.15182186234817813	-268.0	11.010857929346995	502.0	-15.794095117280873	994.0	-859.0	-9.011708021910879	
2089.0	0.5790598586229884	10.286938243251212	1231.0	2042.0	-0.5836513594403121	0.0	37923.0	3157.318115234375	0.6675	788.0	0.6012145748987854	-113.0	0.15182186234817813	-268.0	7.631136259366876	635.0	-17.22272685917523	1097.0	-638.0	-11.066810665860435	
2093.0	0.828161129753788	10.197065356331175	1238.0	2021.0	-0.6311505755517423	0.0	38563.0	3176.849365234375	0.6675	788.0	0.6012145748987854	-113.0	0.15182186234817813	-268.0	9.068664933476068	776.0	-19.13503541726984	1219.0	-732.0	-13.249505947236994	
2081.0	1.0545355125197122	10.21545601387598	1236.0	2002.0	-0.48394070532017486	0.0	39203.0	3196.380615234375	0.68	793.0	0.6052631578947368	-111.0	0.1659919028340081	-275.0	13.763572411683745	744.0	-21.373357220665074	1352.0	-1039.0	-12.780865688210948	
2088.0	0.6627409513440666	10.32171418202571	1228.0	2035.0	-0.570070836966527	0.0	39843.0	3215.911865234375	0.68	793.0	0.6052631578947368	-111.0	0.1659919028340081	-275.0	17.372686955191927	860.0	-22.899554230176637	1443.0	-1275.0	-14.576087762648553	
2090.0	0.6054257520430457	10.542575204304578	1210.0	2040.0	-0.5903231540561287	0.0	40483.0	3235.443115234375	0.68	793.0	0.6052631578947368	-111.0	0.1659919028340081	-275.0	15.889279706377124	1013.0	-22.939794847243704	1451.0	-1178.0	-16.924196168512335	
2078.0	0.5818503646667971	10.565988847632084	1208.0	2042.0	-0.44551232181032885	0.0	41123.0	3254.974365234375	0.68	793.0	0.6052631578947368	-111.0	0.1659919028340081	-275.0	15.308151093439365	1138.0	-22.75894694298088	1442.0	-1140.0	-18.84044814673532	
2095.0	0.6991879057387959	10.394981050070061	1222.0	2032.0	-0.652578379459283	0.0	41763.0	3274.505615234375	0.6925	798.0	0.5708502024291499	-128.0	0.14777327935222673	-266.0	12.004893714635266	1525.0	-21.52156431016954	1374.0	-924.0	-24.766389496101546	
2097.0	0.8404340241159366	10.233878602069847	1235.0	2020.0	-0.6784843527776846	0.0	42403.0	3294.036865234375	0.6925	798.0	0.5708502024291499	-128.0	0.14777327935222673	-266.0	12.922465208747516	1565.0	-20.36781158761444	1297.0	-984.0	-25.36863131520099	
2114.0	0.16140989576441253	10.188608624060302	1240.0	2077.0	-0.8909992707298243	0.0	43043.0	3313.568115234375	0.6925	798.0	0.5708502024291499	-128.0	0.14777327935222673	-266.0	8.793393485242392	1706.0	-17.73549865532838	1138.0	-714.0	-27.50588038167374	
2133.0	0.3613350215364277	9.94302596316658	1260.0	2060.0	-1.122827335340581	0.0	43683.0	3333.099365234375	0.705	803.0	0.5668016194331984	-130.0	0.14979757085020243	-267.0	0.6270071876433706	1936.0	-14.943434773602567	980.0	-180.0	-31.00719098422521	
2144.0	0.5372019679308463	9.672577745465581	1282.0	2045.0	-1.2590077507125845	0.0	44323.0	3352.630615234375	0.705	803.0	0.5668016194331984	-130.0	0.14979757085020243	-267.0	-4.541978895855636	2018.0	-13.18604370429118	880.0	158.0	-32.24786473349834	
2166.0	0.6083988786975579	9.649411679279607	1284.0	2039.0	-1.5238193438924923	0.0	44963.0	3372.161865234375	0.705	803.0	0.5668016194331984	-130.0	0.14979757085020243	-267.0	-4.389050313503594	1984.0	-12.089965660128781	808.0	148.0	-31.71519150868047	
2176.0	0.5227781876167208	9.42067590452922	1303.0	2046.0	-1.6497321940091518	0.0	45603.0	3391.693115234375	0.705	803.0	0.5668016194331984	-130.0	0.14979757085020243	-267.0	-2.9821073558648115	1901.0	-11.220749039560628	747.0	56.0	-30.43290719885042	
2197.0	0.64170527641085	9.408622879180236	1304.0	2036.0	-1.901796031820961	0.0	46243.0	3411.224365234375	0.7075	804.0	0.562753036437247	-132.0	0.13765182186234817	-261.0	-3.2879645205688948	1860.0	-12.12226852352633	806.0	76.0	-29.812798563706956	
2198.0	0.749193517818145	9.443161305624029	1301.0	2027.0	-1.9120785736490973	0.0	46883.0	3430.755615234375	0.7075	804.0	0.562753036437247	-132.0	0.13765182186234817	-261.0	1.1928429423459246	1657.0	-12.763288990596244	834.0	-217.0	-26.7042785857783	
2188.0	0.8216928155254603	9.550233933498406	1292.0	2021.0	-1.788730200403693	0.0	47523.0	3450.286865234375	0.7075	804.0	0.562753036437247	-132.0	0.13765182186234817	-261.0	5.6736504052607435	1452.0	-13.866037641064588	892.0	-510.0	-23.569686922367378	
2190.0	0.4776236150318793	9.667123407949834	1283.0	2050.0	-1.8139294884617692	0.0	48163.0	3469.818115234375	0.7075	804.0	0.562753036437247	-132.0	0.09716599190283401	-241.0	8.946322067594433	1340.0	-14.506298267505574	924.0	-724.0	-21.8575073589218	
2203.0	0.42868886567376874	9.53555323404354	1294.0	2054.0	-1.9736767454575719	0.0	48803.0	3489.349365234375	0.7075	804.0	0.562753036437247	-132.0	0.09716599190283401	-241.0	8.808686343477596	1411.0	-13.890052173246369	885.0	-715.0	-22.940803237706074	
2199.0	0.23666139784331605	9.380425498617319	1307.0	2070.0	-1.930506803760064	0.0	49443.0	3508.880615234375	0.7075	804.0	0.562753036437247	-132.0	0.09716599190283401	-241.0	4.893714635265331	1286.0	-12.122292303690072	779.0	-459.0	-21.005065181744897	
2224.0	0.3919099256864846	9.429087806743695	1303.0	2057.0	-2.229185891596213	0.0	50083.0	3528.411865234375	0.7275	812.0	0.548582995951417	-139.0	0.0708502024291498	-228.0	0.6423000458785748	1377.0	-10.292554583085565	672.0	-181.0	-22.383115817428216	
2236.0	0.33399725806547015	9.590201997023206	1290.0	2062.0	-2.371121047719845	0.0	50723.0	3547.943115234375	0.7275	812.0	0.548582995951417	-139.0	0.0708502024291498	-228.0	0.33644288117449156	1271.0	-9.896686564972363	646.0	-161.0	-20.752641869485846	
2240.0	0.7867797450147893	9.63035545385988	1286.0	2024.0	-2.4139829247979554	0.0	51363.0	3567.474365234375	0.7275	812.0	0.548582995951417	-139.0	0.0708502024291498	-228.0	-0.5046643217617374	1289.0	-9.998710307385293	655.0	-106.0	-21.02986281275622	
2227.0	0.5598876444937083	9.560193020799407	1292.0	2043.0	-2.261028588440279	0.0	52003.0	3587.005615234375	0.7275	812.0	0.548582995951417	-139.0	0.0708502024291498	-228.0	4.129071723505123	1079.0	-9.77022079617033	626.0	-409.0	-17.805236349437845	
2263.0	0.0959823750111997	9.59823750111997	1290.0	2082.0	-2.6986416912877296	0.0	52643.0	3606.536865234375	0.72	809.0	0.5465587044534413	-140.0	0.038461538461538464	-212.0	2.3245144517510323	1201.0	-8.833388229830605	571.0	-291.0	-19.667895030065683	
2261.0	0.23832079707306417	9.546365421592133	1294.0	2070.0	-2.674159363115499	0.0	53283.0	3626.068115234375	0.72	809.0	0.5465587044534413	-140.0	0.038461538461538464	-212.0	-1.3457715246979662	1177.0	-8.874842308060217	583.0	-51.0	-19.300041963052983	
2262.0	0.8443676530612781	9.436765306127818	1302.0	2019.0	-2.6823390896359873	0.0	53923.0	3645.599365234375	0.72	809.0	0.5465587044534413	-140.0	0.038461538461538464	-212.0	-3.6549931182137945	1239.0	-10.403325397929976	689.0	100.0	-20.266684780755426	
2281.0	0.9396094955058658	9.437140026777058	1302.0	2011.0	-2.910294839449159	0.0	54563.0	3665.130615234375	0.73	813.0	0.5364372469635628	-145.0	0.03441295546558704	-210.0	1.8351429882244994	1211.0	-11.811519642315938	766.0	-259.0	-19.851121180771784	
2270.0	0.1912097654197285	9.597167018163326	1290.0	2074.0	-2.7820481764403677	0.0	55203.0	3684.661865234375	0.73	813.0	0.5364372469635628	-145.0	0.03441295546558704	-210.0	9.374522098180151	936.0	-12.139877052148238	765.0	-752.0	-15.634671748885761	
2268.0	0.27245160707096483	9.388017849953624	1307.0	2067.0	-2.7613223558458806	0.0	55843.0	3704.193115234375	0.73	813.0	0.5364372469635628	-145.0	0.03441295546558704	-210.0	5.0007646429117605	1099.0	-12.139884480334171	778.0	-466.0	-18.13582265944198	
2261.0	0.8545621860182574	9.265742411349555	1316.0	2018.0	-2.6736094094308984	0.0	56483.0	3723.724365234375	0.73	813.0	0.5364372469635628	-145.0	0.03441295546558704	-210.0	2.492735892338278	1133.0	-12.97258011827568	839.0	-302.0	-18.665862060197643	
2273.0	0.6263592682022053	9.064498248791967	1333.0	2037.0	-2.8244946351132225	0.0	57123.0	3743.255615234375	0.7375	816.0	0.5182186234817814	-154.0	0.02834008097165992	-207.0	6.132436152316869	1094.0	-12.355101780895883	789.0	-540.0	-18.06125241415697	
2289.0	0.43533110579191897	9.009301055382371	1338.0	2053.0	-3.020279944942867	0.0	57763.0	3762.786865234375	0.7375	816.0	0.5182186234817814	-154.0	0.02834008097165992	-207.0	5.0007646429117605	1042.0	-10.133756844875757	647.0	-466.0	-17.24112581457428	
2284.0	0.13910675964440128	9.148771202535366	1327.0	2078.0	-2.960211821605861	0.0	58403.0	3782.318115234375	0.7375	816.0	0.5182186234817814	-154.0	0.02834008097165992	-207.0	3.63970025997859	789.0	-8.087883547751321	515.0	-377.0	-13.338512716097432	
2296.0	0.6731431316083392	8.980979827500573	1340.0	2033.0	-3.102805598639929	0.0	59043.0	3801.849365234375	0.74	817.0	0.5101214574898786	-158.0	0.04251012145748988	-214.0	-1.819850129989295	882.0	-7.4553559441064525	489.0	-20.0	-14.7592244202666	
2297.0	1.031068752504508	9.059256202831742	1333.0	2003.0	-3.1097090076954284	0.0	59683.0	3821.380615234375	0.74	817.0	0.5101214574898786	-158.0	0.04251012145748988	-214.0	1.4069429576387829	705.0	-8.149896660582353	524.0	-231.0	-12.05019621994325	
2303.0	0.5231749430050272	9.460351443359865	1301.0	2046.0	-3.179055197606367	0.0	60323.0	3840.911865234375	0.74	817.0	0.5101214574898786	-158.0	0.04251012145748988	-214.0	10.888515063465363	502.0	-8.96016629068286	550.0	-851.0	-8.943368733644897	
2284.0	0.03357015996024744	9.309396948405697	1314.0	2087.0	-2.9580546726852956	0.0	60963.0	3860.443115234375	0.7425	818.0	0.5080971659919028	-159.0	0.03441295546558704	-210.0	15.430493959320998	381.0	-10.144757741224728	614.0	-1148.0	-7.098532125517204	
2287.0	0.1388665679800656	9.124752036101798	1329.0	2078.0	-2.9968391851644283	0.0	61603.0	3879.974365234375	0.7425	818.0	0.5080971659919028	-159.0	0.03441295546558704	-210.0	9.343936381709742	517.0	-11.095529525065015	693.0	-750.0	-9.194889620860595	
2300.0	0.03517415971843668	9.46979692422462	1301.0	2087.0	-3.147601717508685	0.0	62243.0	3899.505615234375	0.7425	818.0	0.5080971659919028	-159.0	0.03441295546558704	-210.0	5.551307539379111	589.0	-9.763858594987136	617.0	-502.0	-10.286375734944809	
2289.0	-0.21320412774667946	9.631968177713008	1288.0	2108.0	-3.01431195483164	0.0	62883.0	3919.036865234375	0.7425	818.0	0.5080971659919028	-159.0	0.03441295546558704	-210.0	3.9302645664474696	516.0	-7.464639933827523	471.0	-396.0	-9.143236241290094	
2287.0	-0.02545046771788781	9.359715132973125	1310.0	2092.0	-2.9937830935839815	0.0	63523.0	3938.568115234375	0.755	823.0	0.5161943319838057	-155.0	0.022267206477732795	-204.0	-2.7985930570423614	737.0	-6.838609696446686	450.0	44.0	-12.52810682736189	
2297.0	0.4109264887857086	8.949791735713719	1343.0	2055.0	-3.1180997196749765	0.0	64163.0	3958.099365234375	0.755	823.0	0.5161943319838057	-155.0	0.022267206477732795	-204.0	-7.493500535250039	889.0	-6.7197951569207035	456.0	351.0	-14.859280198001615	
2321.0	0.5521991025622905	8.791338827657627	1356.0	2043.0	-3.4090126782043564	0.0	64803.0	3977.630615234375	0.755	823.0	0.5161943319838057	-155.0	0.022267206477732795	-204.0	-6.682979048784218	871.0	-6.0167003864450725	408.0	298.0	-14.576048544450611	
2329.0	0.38837931090174377	9.076026328269617	1333.0	2057.0	-3.501342668277397	0.0	65443.0	3997.161865234375	0.7425	818.0	0.5040485829959515	-161.0	-0.016194331983805668	-185.0	-3.410307386450528	636.0	-5.230046024114456	346.0	84.0	-10.962228341167954	
2321.0	0.5319295303123308	9.145333983614027	1327.0	2045.0	-3.4021354708077283	0.0	547.0	4016.693115234375	0.7425	818.0	0.5040485829959515	-161.0	-0.016194331983805668	-185.0	-0.3976143141153082	426.0	-6.413269515621502	413.0	-113.0	-7.751719007876793	
2312.0	0.8287465274344891	9.065128933925093	1333.0	2020.0	-3.292337666890526	0.0	1187.0	4036.224365234375	0.7425	818.0	0.5040485829959515	-161.0	-0.016194331983805668	-185.0	1.4834072488148036	270.0	-8.188935334505272	522.0	-236.0	-5.375736215398145	
