Device	Device	Device	Device	Device	Device	Device	Device	Device	Device	Device	Device	Device	Device	Device	Device	Device	Device	Device	Device	Device	
Low Noise Accelerometer X	Low Noise Accelerometer X	Low Noise Accelerometer Z	Low Noise Accelerometer Z	Low Noise Accelerometer Y	Low Noise Accelerometer Y	Event_Marker	Timestamp	Timestamp	Magnetometer Z	Magnetometer Z	Magnetometer X	Magnetometer X	Magnetometer Y	Magnetometer Y	Gyroscope Y	Gyroscope Y	Gyroscope Z	Gyroscope Z	Gyroscope X	Gyroscope X	
UNCAL	CAL	CAL	UNCAL	UNCAL	CAL	CAL	CAL	UNCAL	CAL	UNCAL	CAL	UNCAL	CAL	UNCAL	UNCAL	CAL	CAL	UNCAL	UNCAL	CAL	
no units	m/(s^2)	m/(s^2)	no units	no units	m/(s^2)	no units	ms	no units	local_flux	no units	local_flux	no units	local_flux	no units	no units	deg/s	deg/s	no units	no units	deg/s	
2284.0	8.354857191456436	4.533338193262676	1692.0	1384.0	-2.970362977473194	0.0	1254.45556640625	41106.0	0.8225	850.0	0.4898785425101215	-168.0	-0.058704453441295545	-164.0	1219.0	5.2301575164398235	-10.331104573356168	661.0	-481.0	-19.95907289934719	
2288.0	8.22539876676742	4.682733819599136	1680.0	1395.0	-3.0168624202776924	0.0	1273.98681640625	41746.0	0.8225	850.0	0.4898785425101215	-168.0	-0.058704453441295545	-164.0	1196.0	8.365193454656676	-11.367484288357142	720.0	-686.0	-19.616513572360326	
2284.0	8.132491133764734	4.915780043140109	1661.0	1403.0	-2.9649378010525624	0.0	1293.51806640625	42386.0	0.8250000000000001	851.0	0.4716599190283401	-177.0	-0.0708502024291498	-158.0	1180.0	8.502829178773514	-11.175494798153904	707.0	-695.0	-19.3690819389283	
2283.0	8.14000381531486	4.476572007676431	1697.0	1402.0	-2.9615986421752507	0.0	1313.04931640625	43026.0	0.8250000000000001	851.0	0.4716599190283401	-177.0	-0.0708502024291498	-158.0	1233.0	4.358464597033186	-11.047747159963667	710.0	-424.0	-20.181062096427016	
2286.0	8.532054224527238	4.395898643199972	1703.0	1369.0	-2.9954361836859085	0.0	1332.58056640625	43666.0	0.8250000000000001	851.0	0.4716599190283401	-177.0	-0.0708502024291498	-158.0	1194.0	5.321914665851048	-11.630589938032786	745.0	-487.0	-19.588455661540834	
2282.0	8.285634804803292	4.753956670805425	1674.0	1390.0	-2.942546446246702	0.0	1352.11181640625	44306.0	0.84	857.0	0.4736842105263158	-176.0	-0.10526315789473684	-141.0	1080.0	10.445022174644443	-10.930142061455223	685.0	-822.0	-17.832180045748817	
2293.0	8.035576380024166	4.748114192892668	1675.0	1411.0	-3.077694000534676	0.0	1371.64306640625	44946.0	0.84	857.0	0.4736842105263158	-176.0	-0.10526315789473684	-141.0	1116.0	8.105214864658205	-9.154538186884528	576.0	-669.0	-18.36682541869561	
2289.0	8.15191341133966	4.477055419680197	1697.0	1401.0	-3.033759034601433	0.0	1391.17431640625	45586.0	0.84	857.0	0.4736842105263158	-176.0	-0.10526315789473684	-141.0	1013.0	3.517357394096957	-8.202429224002099	525.0	-369.0	-16.77682251227992	
2287.0	8.295348954431601	4.534895443160028	1692.0	1389.0	-3.0070714931587483	0.0	1410.70556640625	46226.0	0.84	857.0	0.4736842105263158	-176.0	-0.10526315789473684	-141.0	931.0	4.480807462914819	-9.222529373081148	588.0	-432.0	-15.528775853804467	
2293.0	8.131648656435052	4.83153231017189	1668.0	1403.0	-3.0750649154249827	0.0	1430.23681640625	46866.0	0.8300000000000001	853.0	0.4716599190283401	-177.0	-0.07692307692307693	-155.0	931.0	5.6736504052607435	-8.993385525233604	570.0	-510.0	-15.526484415325992	
2294.0	7.986870983303347	4.639479282715527	1684.0	1415.0	-3.0924019454765115	0.0	1449.76806640625	47506.0	0.8300000000000001	853.0	0.4716599190283401	-177.0	-0.07692307692307693	-155.0	956.0	1.7280929805780703	-6.4015909629916505	412.0	-252.0	-15.884178561156695	
2300.0	8.210950899726528	4.428423305986301	1701.0	1396.0	-3.16667142247337	0.0	1469.29931640625	48146.0	0.8300000000000001	853.0	0.4716599190283401	-177.0	-0.07692307692307693	-155.0	973.0	-1.2998929499923537	-5.970261118835629	392.0	-54.0	-16.140721484903256	
2292.0	8.36676919615391	4.53406247253409	1692.0	1383.0	-3.066614914009466	0.0	1488.83056640625	48786.0	0.835	855.0	0.46963562753036436	-178.0	-0.08906882591093118	-149.0	876.0	0.36702859764489987	-6.067194685417629	393.0	-163.0	-14.653275905730963	
2292.0	8.237793563466242	4.73173729900533	1676.0	1394.0	-3.0639511738069176	0.0	1508.36181640625	49426.0	0.835	855.0	0.46963562753036436	-178.0	-0.08906882591093118	-149.0	923.0	3.226793087628078	-5.605276340794982	356.0	-350.0	-15.369847454216606	
2295.0	8.237065762455208	4.658957197901688	1682.0	1394.0	-3.1015586321523534	0.0	1527.89306640625	50066.0	0.835	855.0	0.46963562753036436	-178.0	-0.08906882591093118	-149.0	930.0	0.0764642911760208	-3.278760136176759	213.0	-144.0	-15.453993677777298	
2300.0	8.245560888716764	4.317993633581102	1710.0	1393.0	-3.1685339160315715	0.0	1547.42431640625	50706.0	0.835	855.0	0.46963562753036436	-178.0	-0.08906882591093118	-149.0	922.0	-3.0891573635112404	-2.645811910306536	180.0	63.0	-15.324908326253595	
2300.0	8.399560284784723	4.241742764186698	1716.0	1380.0	-3.1685189394587803	0.0	1566.95556640625	51346.0	0.835	855.0	0.4817813765182186	-172.0	-0.13360323886639677	-127.0	905.0	-0.5964214711729623	-4.255429337188382	278.0	-100.0	-15.08014827833429	
2303.0	8.331928650190049	4.62143644757631	1685.0	1386.0	-3.1977459604501877	0.0	1586.48681640625	51986.0	0.835	855.0	0.4817813765182186	-172.0	-0.13360323886639677	-127.0	816.0	5.260743232910231	-5.641520324182975	352.0	-483.0	-13.72835014263112	
2303.0	7.900517673866119	4.337481672326204	1709.0	1422.0	-3.207739165718429	0.0	1606.01806640625	52626.0	0.835	855.0	0.4817813765182186	-172.0	-0.13360323886639677	-127.0	803.0	7.906407707600551	-6.933645637643394	429.0	-656.0	-13.5417931082101	
2288.0	8.2578145136975	4.352879941178599	1707.0	1392.0	-3.023135340376802	0.0	1625.54931640625	53266.0	0.8300000000000001	853.0	0.4574898785425101	-184.0	-0.15384615384615385	-117.0	760.0	3.349135953509711	-7.650051690165146	487.0	-358.0	-12.889144371435949	
2299.0	8.199778739403474	4.501683464156766	1695.0	1397.0	-3.1532697481421073	0.0	1645.08056640625	53906.0	0.8300000000000001	853.0	0.4574898785425101	-184.0	-0.15384615384615385	-117.0	721.0	6.331243309374523	-8.867338275187779	558.0	-553.0	-12.302882374619303	
2288.0	8.212643080403923	4.597641373725681	1687.0	1396.0	-3.0186918260587965	0.0	1664.61181640625	54546.0	0.8300000000000001	853.0	0.4574898785425101	-184.0	-0.15384615384615385	-117.0	638.0	7.56996482642606	-8.314388396902434	518.0	-634.0	-11.023760732212082	
2285.0	8.188712825044693	4.585568218755043	1688.0	1398.0	-2.9830280133985485	0.0	1684.14306640625	55186.0	0.8375	856.0	0.4493927125506073	-188.0	-0.1680161943319838	-110.0	638.0	5.0925217923229855	-6.877178743527184	431.0	-472.0	-11.009388635678329	
2285.0	8.250175112465348	4.779416008439463	1672.0	1393.0	-2.9785364347306533	0.0	1703.67431640625	55826.0	0.8375	856.0	0.4493927125506073	-188.0	-0.1680161943319838	-110.0	551.0	4.220828872916348	-5.579063881582364	348.0	-415.0	-9.661437408802016	
2278.0	8.098849137449873	5.123008983082516	1644.0	1406.0	-2.8888404855903573	0.0	1723.20556640625	56466.0	0.8375	856.0	0.4493927125506073	-188.0	-0.1680161943319838	-110.0	522.0	3.899678849977061	-4.8477752122075985	301.0	-394.0	-9.209134496022644	
2284.0	8.01432075005376	5.003503576804503	1654.0	1413.0	-2.9643650342163843	0.0	1742.73681640625	57106.0	0.8375	856.0	0.4493927125506073	-188.0	-0.1680161943319838	-110.0	715.0	2.936228781159199	-4.364349978628813	274.0	-331.0	-12.165785589704964	
2278.0	8.17899626674371	4.804388579132792	1670.0	1399.0	-2.894411422376413	0.0	1762.26806640625	57746.0	0.8525	862.0	0.44534412955465585	-190.0	-0.17206477732793524	-108.0	862.0	-1.6669215476372536	-4.157688240673307	274.0	-30.0	-14.41935807006977	
2277.0	8.071264220663066	4.745469685353961	1675.0	1408.0	-2.884618927941712	0.0	1781.79931640625	58386.0	0.8525	862.0	0.44534412955465585	-190.0	-0.17206477732793524	-108.0	892.0	0.45878574705612485	-3.8843487969578763	251.0	-169.0	-14.876959185376363	
2287.0	8.155689975103915	4.854711796105633	1666.0	1401.0	-3.0020717558931134	0.0	1801.33056640625	59026.0	0.8525	862.0	0.44534412955465585	-190.0	-0.17206477732793524	-108.0	942.0	2.355100168221441	-3.95252231462366	251.0	-293.0	-15.644865103459265	
2290.0	7.955425637721314	5.06637329594092	1649.0	1418.0	-3.0359857475834864	0.0	1820.86181640625	59666.0	0.8325	854.0	0.4311740890688259	-197.0	-0.1680161943319838	-110.0	901.0	6.75944333996024	-5.473090875913379	338.0	-581.0	-15.030946959089043	
2277.0	7.6792174244597	4.8265043507318905	1669.0	1441.0	-2.8869187025961867	0.0	1840.39306640625	60306.0	0.8325	854.0	0.4311740890688259	-197.0	-0.1680161943319838	-110.0	866.0	3.9455574246826735	-6.134952266682891	388.0	-397.0	-14.500508644962364	
2272.0	8.260720900396294	4.643518611057872	1683.0	1392.0	-2.824522418774879	0.0	1859.92431640625	60946.0	0.8325	854.0	0.4311740890688259	-197.0	-0.1680161943319838	-110.0	959.0	-3.4256002446857323	-6.90251625564229	458.0	85.0	-15.935221265057576	
2278.0	8.296800943444659	4.680094344465842	1680.0	1389.0	-2.8957192603027426	0.0	1879.45556640625	61586.0	0.8325	854.0	0.4311740890688259	-197.0	-0.1680161943319838	-110.0	989.0	3.37972166998012	-9.031165037312542	579.0	-360.0	-16.416842262618026	
2283.0	8.144392299435166	4.915420419707109	1661.0	1402.0	-2.952777789093434	0.0	1898.98681640625	62226.0	0.835	855.0	0.44534412955465585	-190.0	-0.1700404858299595	-109.0	1022.0	12.188408013457716	-10.239733892107052	635.0	-936.0	-16.93529591188409	
2287.0	7.727448459533539	4.887703096211016	1664.0	1437.0	-3.0056943450467095	0.0	1918.51806640625	62866.0	0.835	855.0	0.44534412955465585	-190.0	-0.1700404858299595	-109.0	1059.0	14.788193913442424	-10.814840073963145	666.0	-1106.0	-17.50879286905327	
2272.0	7.952600205923697	4.783830116179161	1672.0	1418.0	-2.8247973956171797	0.0	1938.04931640625	63506.0	0.835	855.0	0.44534412955465585	-190.0	-0.1700404858299595	-109.0	1084.0	6.28536473466891	-10.609351574710683	675.0	-550.0	-17.890350075513876	
2281.0	8.047586200331551	4.758620033155126	1674.0	1410.0	-2.932785472273341	0.0	1957.58056640625	64146.0	0.845	859.0	0.4271255060728745	-199.0	-0.2388663967611336	-75.0	1181.0	6.744150481725035	-11.73561039815165	748.0	-580.0	-19.3900275785864	
2284.0	8.024882194357103	4.86917181666262	1665.0	1412.0	-2.966946054976189	0.0	1977.11181640625	64786.0	0.845	859.0	0.4271255060728745	-199.0	-0.2388663967611336	-75.0	1167.0	10.077993576999543	-11.778814535952266	742.0	-798.0	-19.175636848750656	
2290.0	8.00010946166819	4.772850928723763	1673.0	1414.0	-3.0414093566883604	0.0	1996.64306640625	65426.0	0.845	859.0	0.4271255060728745	-199.0	-0.2388663967611336	-75.0	1264.0	11.179079369934241	-12.100204408344984	761.0	-870.0	-20.667265662312698	
2277.0	8.022313814932556	4.612333874207959	1686.0	1412.0	-2.8877711482219373	0.0	2016.17431640625	530.0	0.8325	854.0	0.4331983805668016	-196.0	-0.19635627530364372	-96.0	1212.0	9.206300657592905	-11.521716026993722	728.0	-741.0	-19.863567628276694	
2288.0	8.155325472430226	4.818261528736901	1669.0	1401.0	-3.014852599038309	0.0	2035.70556640625	1170.0	0.8325	854.0	0.4331983805668016	-196.0	-0.19635627530364372	-96.0	1297.0	6.560636182902585	-11.971944822754244	765.0	-568.0	-21.172351027174916	
2281.0	8.142561355712362	4.732326047426679	1676.0	1402.0	-2.9323616004341018	0.0	2055.23681640625	1810.0	0.8325	854.0	0.4331983805668016	-196.0	-0.19635627530364372	-96.0	1247.0	7.692307692307693	-11.80954868018675	751.0	-642.0	-20.40350288284299	
2283.0	8.27275842043946	4.656794424898274	1682.0	1391.0	-2.9566666477795676	0.0	2074.76806640625	2450.0	0.8325	854.0	0.4331983805668016	-196.0	-0.19635627530364372	-96.0	1268.0	7.325279094662793	-10.91494646850106	694.0	-618.0	-20.716791017546758	
2283.0	8.092028628277754	4.440958065870579	1700.0	1406.0	-2.962790672881739	0.0	2094.29931640625	3090.0	0.8300000000000001	853.0	0.40890688259109315	-208.0	-0.22267206477732793	-83.0	1233.0	9.40510781465056	-11.157308439231711	704.0	-754.0	-20.182157709219695	
2291.0	8.332279905164016	4.656561944972983	1682.0	1386.0	-3.0524616246995024	0.0	2113.83056640625	3730.0	0.8300000000000001	853.0	0.40890688259109315	-208.0	-0.22267206477732793	-83.0	1237.0	8.135800581128613	-12.444049349429953	791.0	-671.0	-20.256403052954177	
2291.0	8.191645707142927	4.878856428578437	1664.0	1398.0	-3.0494220770076046	0.0	2133.36181640625	4370.0	0.8300000000000001	853.0	0.40890688259109315	-208.0	-0.22267206477732793	-83.0	1161.0	14.069429576387828	-13.87734615126891	868.0	-1059.0	-19.10455526295507	
2284.0	8.082809314014176	4.709502829988994	1678.0	1407.0	-2.9695601635130906	0.0	2152.89306640625	5010.0	0.8325	854.0	0.39878542510121456	-213.0	-0.291497975708502	-49.0	1166.0	16.271601162257227	-14.072322035125902	875.0	-1203.0	-19.18322744008427	
2278.0	8.057656422279178	4.575166037441697	1689.0	1409.0	-2.90020927165488	0.0	2172.42431640625	5650.0	0.8325	854.0	0.39878542510121456	-213.0	-0.291497975708502	-49.0	1229.0	13.48830096345007	-14.2435686066228	894.0	-1021.0	-20.1516423762611	
2285.0	8.166614717744606	4.756709869698659	1674.0	1400.0	-2.979826161452677	0.0	2191.95556640625	6290.0	0.8325	854.0	0.39878542510121456	-213.0	-0.291497975708502	-49.0	1282.0	11.439057959932713	-15.445455027823282	978.0	-887.0	-20.97691887435373	
2278.0	8.132118200736679	4.87848674033461	1664.0	1403.0	-2.8933982398124467	0.0	2211.48681640625	6930.0	0.8325	854.0	0.39878542510121456	-213.0	-0.291497975708502	-49.0	1200.0	13.38125095580364	-15.827949703601156	997.0	-1014.0	-19.722496161145266	
2270.0	7.903281684510487	4.613882736762955	1686.0	1422.0	-2.8045931428774673	0.0	2231.01806640625	7570.0	0.8300000000000001	853.0	0.4008097165991903	-212.0	-0.2834008097165992	-53.0	1191.0	16.05750114696437	-15.874847029505078	993.0	-1189.0	-19.584864781481183	
2269.0	8.18918116500998	4.632402215283939	1684.0	1398.0	-2.7893155657309685	0.0	2250.54931640625	8210.0	0.8300000000000001	853.0	0.4008097165991903	-212.0	-0.2834008097165992	-53.0	1277.0	10.460315032879647	-15.96078196208297	1014.0	-823.0	-20.905349725405703	
2278.0	8.072240643692805	4.8431119883279345	1667.0	1408.0	-2.8947045104230194	0.0	2270.08056640625	8850.0	0.8300000000000001	853.0	0.4008097165991903	-212.0	-0.2834008097165992	-53.0	1299.0	13.105979507569966	-16.770735208041398	1060.0	-996.0	-21.251027898344034	
2282.0	7.977392207994021	4.882077942259197	1664.0	1416.0	-2.9430664467857186	0.0	2289.61181640625	9490.0	0.8325	854.0	0.3582995951417004	-233.0	-0.31376518218623484	-38.0	1301.0	13.457715246979662	-16.32307504741708	1030.0	-1019.0	-21.277240264054043	
2283.0	8.047222901994202	4.722290199420217	1677.0	1410.0	-2.9576120874735814	0.0	2309.14306640625	10130.0	0.8325	854.0	0.3582995951417004	-233.0	-0.31376518218623484	-38.0	1317.0	11.882550848753633	-16.349904164499755	1036.0	-916.0	-21.523020293754865	
2282.0	8.190293942412456	4.7436799555313165	1675.0	1398.0	-2.9437053891760923	0.0	2328.67431640625	10770.0	0.8325	854.0	0.3582995951417004	-233.0	-0.31376518218623484	-38.0	1365.0	10.185043584645971	-16.874493769325753	1075.0	-805.0	-22.264801405393122	
2284.0	8.022809854633623	4.661937844314799	1682.0	1412.0	-2.97111145782038	0.0	2348.20556640625	11410.0	0.8375	856.0	0.37044534412955465	-227.0	-0.3259109311740891	-32.0	1459.0	12.20370087169292	-18.217408612122032	1158.0	-937.0	-23.72061201768482	
2276.0	8.143530552724071	4.829245748597711	1668.0	1402.0	-2.8701725505851425	0.0	2367.73681640625	12050.0	0.8375	856.0	0.37044534412955465	-227.0	-0.3259109311740891	-32.0	1414.0	9.95565071111791	-17.303841540273876	1104.0	-790.0	-23.020974582350725	
2279.0	8.154217512373107	4.707465523024818	1678.0	1401.0	-2.908645863813363	0.0	2387.26806640625	12690.0	0.8375	856.0	0.37044534412955465	-227.0	-0.3259109311740891	-32.0	1423.0	10.521486465820463	-17.17128473376553	1094.0	-827.0	-23.157749367208766	
2276.0	8.116068742610276	4.464017118170499	1698.0	1404.0	-2.8777517412948246	0.0	2406.79931640625	13330.0	0.8375	856.0	0.37044534412955465	-227.0	-0.3259109311740891	-32.0	1441.0	9.083957791711272	-17.895443856954515	1145.0	-733.0	-23.4411916642869	
2275.0	8.249431655081915	4.705070270096113	1678.0	1393.0	-2.859548856360511	0.0	2426.33056640625	13970.0	0.8325	854.0	0.3623481781376518	-231.0	-0.31376518218623484	-38.0	1409.0	7.2488148034867725	-17.380914607462262	1116.0	-613.0	-22.94502289473198	
2284.0	8.072369772047509	4.856024823798395	1666.0	1408.0	-2.9667341190565693	0.0	2445.86181640625	14610.0	0.8325	854.0	0.3623481781376518	-231.0	-0.31376518218623484	-38.0	1411.0	9.84860070347148	-16.500223294293438	1052.0	-783.0	-22.966904948916543	
2281.0	8.189317519382717	4.646037652557342	1683.0	1398.0	-2.9336198066947845	0.0	2465.39306640625	15250.0	0.8325	854.0	0.3623481781376518	-231.0	-0.31376518218623484	-38.0	1377.0	7.661721975837285	-15.741222218808758	1008.0	-640.0	-22.43760249378545	
2270.0	8.320352244094142	4.654272028461862	1682.0	1387.0	-2.7996146514476523	0.0	2484.92431640625	15890.0	0.8175	848.0	0.3603238866396761	-232.0	-0.3319838056680162	-29.0	1434.0	7.27940051995718	-16.6861701898329	1071.0	-615.0	-23.32168754200881	
2264.0	8.192100799408495	4.924365655135273	1660.0	1398.0	-2.7232061367345346	0.0	2504.45556640625	16530.0	0.8175	848.0	0.3603238866396761	-232.0	-0.3319838056680162	-29.0	1384.0	10.322679308762808	-16.907844909050983	1077.0	-814.0	-22.55668010629475	
2264.0	8.181417452768478	5.046507181609638	1650.0	1399.0	-2.7208701396714474	0.0	2523.98681640625	17170.0	0.8175	848.0	0.3603238866396761	-232.0	-0.3319838056680162	-29.0	1425.0	8.67105061936076	-15.174378990209965	969.0	-706.0	-23.16846927708946	
2268.0	8.227081312754109	4.850988418267925	1666.0	1395.0	-2.7725166474227634	0.0	2543.51806640625	17810.0	0.8175	848.0	0.3603238866396761	-232.0	-0.3319838056680162	-29.0	1480.0	6.713564765254627	-12.872826405882861	825.0	-578.0	-23.989400352443056	
2272.0	8.274086098443167	4.789562225268922	1671.0	1391.0	-2.8214678945101896	0.0	2563.04931640625	18450.0	0.8275	852.0	0.3684210526315789	-228.0	-0.35627530364372473	-17.0	1532.0	2.676250191160728	-12.257331023296318	796.0	-314.0	-24.781158548839688	
2273.0	8.381574339850461	4.824100651712715	1668.0	1382.0	-2.831750436338325	0.0	2582.58056640625	19090.0	0.8275	852.0	0.3684210526315789	-228.0	-0.35627530364372473	-17.0	1546.0	2.676250191160728	-12.824269310492578	833.0	-314.0	-25.0016507029254	
2278.0	8.250288584447656	4.790763206670216	1671.0	1393.0	-2.893971006648625	0.0	2602.11181640625	19730.0	0.8275	852.0	0.3684210526315789	-228.0	-0.35627530364372473	-17.0	1568.0	5.398378957027069	-13.037433100536948	840.0	-492.0	-25.34136098130459	
2279.0	8.238021711767198	4.754552129100659	1674.0	1394.0	-2.906866089697905	0.0	2621.64306640625	20370.0	0.8175	848.0	0.3481781376518219	-238.0	-0.3805668016194332	-5.0	1599.0	8.27343630524545	-13.624469616308483	871.0	-680.0	-25.82291033986418	
2269.0	8.164766913313064	4.571929426544697	1689.0	1400.0	-2.790769164022722	0.0	2641.17431640625	21010.0	0.8175	848.0	0.3481781376518219	-238.0	-0.3805668016194332	-5.0	1648.0	9.435693531120968	-14.86313265506053	949.0	-756.0	-26.587176669499815	
2267.0	8.320226728748452	4.641720493892873	1683.0	1387.0	-2.7637223589792357	0.0	2660.70556640625	21650.0	0.8175	848.0	0.3481781376518219	-238.0	-0.3805668016194332	-5.0	1677.0	6.514757608196972	-15.15713663737373	976.0	-565.0	-27.035106735408576	
2278.0	8.284410964091187	4.631572599594942	1684.0	1390.0	-2.8968135949936955	0.0	2680.23681640625	22290.0	0.805	843.0	0.3603238866396761	-232.0	-0.4008097165991903	5.0	1760.0	6.361829025844931	-15.507422517290301	1000.0	-555.0	-28.312201737832105	
2278.0	8.307971899431378	4.606713752661553	1686.0	1388.0	-2.897075162578961	0.0	2699.76806640625	22930.0	0.805	843.0	0.3603238866396761	-232.0	-0.4008097165991903	5.0	1737.0	10.76617219758373	-15.287209025745915	974.0	-843.0	-27.95707647877979	
2279.0	8.080730952609008	4.501666689472055	1695.0	1407.0	-2.9134967060820594	0.0	2719.29931640625	23570.0	0.805	843.0	0.3603238866396761	-232.0	-0.4008097165991903	5.0	1746.0	12.891879492277107	-15.786127142082034	1001.0	-982.0	-28.10016601286627	
2270.0	8.092622483588734	4.500343596968466	1695.0	1406.0	-2.804970517682575	0.0	2738.83056640625	24210.0	0.805	843.0	0.3603238866396761	-232.0	-0.4008097165991903	5.0	1707.0	12.463679461691392	-16.713207963375147	1062.0	-954.0	-27.511001958412333	
2274.0	8.129309629647798	4.597629631446383	1687.0	1403.0	-2.850850696616763	0.0	2758.36181640625	24850.0	0.79	837.0	0.37449392712550605	-225.0	-0.4433198380566802	26.0	1701.0	9.802722128765867	-17.807396333254008	1140.0	-780.0	-27.429876940162373	
2273.0	8.16452792598507	4.548030693744955	1691.0	1400.0	-2.839442299636334	0.0	2777.89306640625	25490.0	0.79	837.0	0.37449392712550605	-225.0	-0.4433198380566802	26.0	1647.0	10.888515063465363	-18.61276373043222	1189.0	-851.0	-26.60932849659541	
2269.0	8.091158451212292	4.353940359324416	1707.0	1406.0	-2.795865029988136	0.0	2797.42431640625	26130.0	0.79	837.0	0.37449392712550605	-225.0	-0.4433198380566802	26.0	1601.0	13.320079522862825	-20.08595760264967	1278.0	-1010.0	-25.918214187043837	
2269.0	8.16537642499644	4.632880594882291	1684.0	1400.0	-2.7895440455391367	0.0	2816.95556640625	26770.0	0.7875	836.0	0.3582995951417004	-233.0	-0.4736842105263158	41.0	1470.0	15.537543966967428	-21.132969934744793	1339.0	-1155.0	-23.918556951150425	
2268.0	8.21359421237056	4.692754570389358	1679.0	1396.0	-2.77581619538417	0.0	2836.48681640625	27410.0	0.7875	836.0	0.3582995951417004	-233.0	-0.4736842105263158	41.0	1500.0	16.271601162257227	-22.649655350741682	1436.0	-1203.0	-24.394058315054146	
2263.0	8.251733347442682	4.935239506173087	1659.0	1393.0	-2.710344141462352	0.0	2856.01806640625	28050.0	0.7875	836.0	0.3582995951417004	-233.0	-0.4736842105263158	41.0	1411.0	16.990365499311824	-22.430586190554237	1419.0	-1250.0	-23.026208577879153	
2266.0	8.178859912370976	4.79075314185939	1671.0	1399.0	-2.750107181412596	0.0	2875.54931640625	28690.0	0.7875	836.0	0.3582995951417004	-233.0	-0.4736842105263158	41.0	1491.0	17.357394096956725	-22.248422977237425	1407.0	-1274.0	-24.251945638395974	
2256.0	8.272969708031678	4.677923184120074	1680.0	1391.0	-2.630940754899932	0.0	2895.08056640625	29330.0	0.7775	832.0	0.34210526315789475	-241.0	-0.5	54.0	1452.0	16.745679767548555	-22.106894914415754	1399.0	-1234.0	-23.652095495100887	
2262.0	8.419218639557853	5.017102051023428	1652.0	1379.0	-2.6949838448731094	0.0	2914.61181640625	29970.0	0.7775	832.0	0.34210526315789475	-241.0	-0.5	54.0	1524.0	15.002293928735282	-22.810535781666783	1450.0	-1120.0	-24.76393472715839	
2265.0	8.289880912869172	5.178567477393583	1639.0	1390.0	-2.729192491925846	0.0	2934.14306640625	30610.0	0.7775	832.0	0.34210526315789475	-241.0	-0.5	54.0	1533.0	17.41856552989754	-22.95193824859171	1453.0	-1278.0	-24.903449104750766	
2247.0	8.289249723131709	5.115448503647162	1644.0	1390.0	-2.513593713418631	0.0	2953.67431640625	31250.0	0.78	833.0	0.33805668016194335	-243.0	-0.5263157894736842	67.0	1480.0	18.90197277871234	-21.850466346829474	1377.0	-1375.0	-24.079176751852522	
2249.0	8.46620295152916	4.95362848624942	1657.0	1375.0	-2.53915696702478	0.0	2973.20556640625	31890.0	0.78	833.0	0.33805668016194335	-243.0	-0.5263157894736842	67.0	1598.0	11.148493653463834	-20.58403015275035	1316.0	-868.0	-25.87716146157047	
2248.0	8.597127817267294	4.950876964824658	1657.0	1364.0	-2.5258545560248096	0.0	2992.73681640625	32530.0	0.78	833.0	0.33805668016194335	-243.0	-0.5263157894736842	67.0	1677.0	10.276800734057197	-19.721867319273805	1263.0	-811.0	-27.080754042227575	
2261.0	8.432460730931712	5.150834997933135	1641.0	1378.0	-2.6801285722500925	0.0	3012.26806640625	33170.0	0.7625000000000001	826.0	0.32388663967611336	-250.0	-0.5141700404858299	61.0	1709.0	14.6964367640312	-19.432304015488935	1233.0	-1100.0	-27.56888188624972	
2258.0	8.170604977773754	5.155735872613541	1641.0	1400.0	-2.6465045339748103	0.0	3031.79931640625	33810.0	0.7625000000000001	826.0	0.32388663967611336	-250.0	-0.5141700404858299	61.0	1700.0	21.3182443798746	-20.052287049698585	1256.0	-1533.0	-27.436981363668693	
2256.0	8.382772889499464	4.943955616612902	1658.0	1382.0	-2.6245220744353976	0.0	3051.33056640625	34450.0	0.7625000000000001	826.0	0.32388663967611336	-250.0	-0.5141700404858299	61.0	1738.0	19.77366569811898	-20.58452748110182	1295.0	-1432.0	-28.025394146991474	
2253.0	8.513085834881544	4.8800120595828975	1663.0	1371.0	-2.5883532378089242	0.0	3070.86181640625	35090.0	0.7625000000000001	826.0	0.32388663967611336	-250.0	-0.5141700404858299	61.0	1884.0	14.95641535402967	-20.815496641940122	1324.0	-1117.0	-30.26799845268609	
2271.0	8.597886931023123	5.026788340407716	1651.0	1364.0	-2.8014371711105297	0.0	3090.39306640625	35730.0	0.745	819.0	0.30364372469635625	-260.0	-0.5546558704453441	81.0	1947.0	15.13992965285212	-20.690124735300774	1316.0	-1129.0	-31.233447204081568	
2258.0	8.169507856743678	5.046023769605872	1650.0	1400.0	-2.6487097472452645	0.0	3109.92431640625	36370.0	0.745	819.0	0.30364372469635625	-260.0	-0.5546558704453441	81.0	1952.0	19.467808533414896	-19.801186387124893	1247.0	-1412.0	-31.301280238890435	
2262.0	8.20424456541594	4.948266065403487	1658.0	1397.0	-2.6985103053269275	0.0	3129.45556640625	37010.0	0.745	819.0	0.30364372469635625	-260.0	-0.5546558704453441	81.0	1883.0	19.51368710812051	-17.36807496229858	1088.0	-1415.0	-30.218179752231553	
2256.0	8.23921303539817	4.873684492197903	1664.0	1394.0	-2.6273630954647107	0.0	3148.98681640625	37650.0	0.74	817.0	0.3259109311740891	-249.0	-0.562753036437247	85.0	1943.0	12.111943722281696	-15.893895039418634	1012.0	-931.0	-31.124106972490246	
2255.0	8.10852956566071	4.900575613690056	1662.0	1405.0	-2.6160839149611577	0.0	3168.51806640625	38290.0	0.74	817.0	0.3259109311740891	-249.0	-0.562753036437247	85.0	1922.0	10.720293622878117	-14.07267487727641	897.0	-840.0	-30.783660614048202	
2253.0	7.990478675613733	5.000248513754322	1654.0	1415.0	-2.5911745803181736	0.0	3188.04931640625	38930.0	0.74	817.0	0.3259109311740891	-249.0	-0.562753036437247	85.0	1881.0	11.117907936993426	-12.802888760430434	813.0	-866.0	-30.14183892289662	
2267.0	7.942520349285363	4.9663206428220015	1657.0	1419.0	-2.7610074197952845	0.0	3207.58056640625	39570.0	0.74	817.0	0.3259109311740891	-249.0	-0.562753036437247	85.0	1920.0	11.010857929346995	-14.023080303126594	893.0	-859.0	-30.752475700990452	
2261.0	7.930001241577188	4.904886062480642	1662.0	1420.0	-2.6900721458526875	0.0	3227.11181640625	40210.0	0.715	807.0	0.3076923076923077	-258.0	-0.6072874493927125	107.0	1858.0	10.567365040526076	-15.02998190367768	959.0	-830.0	-29.81118673019222	
2257.0	7.834533659504324	4.881937379003719	1664.0	1428.0	-2.6432930242586172	0.0	3246.64306640625	40850.0	0.715	807.0	0.3076923076923077	-258.0	-0.6072874493927125	107.0	1906.0	9.619207829943416	-15.584542513544179	998.0	-768.0	-30.55326755188088	
2261.0	8.156268174042495	4.912531689963812	1661.0	1401.0	-2.687656563978371	0.0	3266.17431640625	41490.0	0.715	807.0	0.3076923076923077	-258.0	-0.6072874493927125	107.0	1917.0	10.76617219758373	-15.505683089911466	990.0	-843.0	-30.721268277883926	
2278.0	8.01455732870908	5.027161442336599	1652.0	1413.0	-2.891600354492683	0.0	3285.70556640625	42130.0	0.6950000000000001	799.0	0.3117408906882591	-256.0	-0.5951417004048583	101.0	1876.0	14.543508181679158	-16.370564728111496	1036.0	-1090.0	-30.100793264282807	
2265.0	7.774787639487829	4.859716329735152	1666.0	1433.0	-2.740720447612828	0.0	3305.23681640625	42770.0	0.6950000000000001	799.0	0.3117408906882591	-256.0	-0.5951417004048583	101.0	1902.0	12.601315185808229	-16.28889560943741	1036.0	-963.0	-30.49893314820731	
2267.0	7.974936096215444	4.636466764401464	1684.0	1416.0	-2.7672803398943944	0.0	3324.76806640625	43410.0	0.6950000000000001	799.0	0.3117408906882591	-256.0	-0.5951417004048583	101.0	1997.0	5.061936075852578	-15.788206267880678	1024.0	-470.0	-31.951652202313614	
2279.0	8.093364736635829	4.574568901677992	1689.0	1406.0	-2.9119123239976723	0.0	3344.29931640625	44050.0	0.675	791.0	0.3259109311740891	-249.0	-0.6174089068825911	112.0	1975.0	6.866493347606668	-16.09446745230899	1039.0	-588.0	-31.61713617367915	
2286.0	8.2726401311118	4.644965492132227	1683.0	1391.0	-2.993048987641418	0.0	3363.83056640625	44690.0	0.675	791.0	0.3259109311740891	-249.0	-0.6174089068825911	112.0	1916.0	9.145129224652088	-16.809884546431167	1079.0	-737.0	-30.718965808790998	
2293.0	8.128966805028199	4.563347169486476	1690.0	1403.0	-3.0804554367527595	0.0	3383.36181640625	45330.0	0.675	791.0	0.3259109311740891	-249.0	-0.6174089068825911	112.0	1863.0	13.70240097874293	-17.2771417471397	1097.0	-1035.0	-29.910380746917465	
2291.0	8.021355456947889	4.51649807574134	1694.0	1412.0	-3.058372146566297	0.0	3402.89306640625	45970.0	0.675	791.0	0.3259109311740891	-249.0	-0.6174089068825911	112.0	1747.0	11.561400825814346	-16.224942633350995	1033.0	-895.0	-28.119898651437087	
2297.0	8.248726736461304	4.634578408035121	1684.0	1393.0	-3.1260259837517927	0.0	3422.42431640625	46610.0	0.665	787.0	0.3259109311740891	-249.0	-0.6740890688259109	140.0	1752.0	8.151093439363818	-16.4261524681919	1055.0	-672.0	-28.19863316807612	
2297.0	8.249823857491382	4.744290511042791	1675.0	1393.0	-3.1238207704813385	0.0	3441.95556640625	47250.0	0.665	787.0	0.3259109311740891	-249.0	-0.6740890688259109	140.0	1607.0	9.925064994647501	-15.827219525186415	1010.0	-788.0	-25.967693708217954	
2293.0	8.17986764814551	4.891526719312779	1663.0	1399.0	-3.07338283732506	0.0	3461.48681640625	47890.0	0.665	787.0	0.3259109311740891	-249.0	-0.6740890688259109	140.0	1467.0	11.20966508640465	-13.977489668365388	885.0	-872.0	-23.800968697512257	
2294.0	8.00121140004362	4.883044766266728	1664.0	1414.0	-3.0873872316380844	0.0	3481.01806640625	48530.0	0.64	777.0	0.3097165991902834	-257.0	-0.6902834008097166	148.0	1462.0	11.57669368404955	-14.592784213506267	924.0	-896.0	-23.730399224673043	
2289.0	7.9291816466379315	4.822926568555073	1669.0	1420.0	-3.0290689292709527	0.0	3500.54931640625	49170.0	0.64	777.0	0.3097165991902834	-257.0	-0.6902834008097166	148.0	1427.0	9.1910077993577	-14.656543460322126	934.0	-740.0	-23.19397988910683	
2287.0	7.989544404355833	4.906821387964176	1662.0	1415.0	-3.002691019763423	0.0	3520.08056640625	49810.0	0.64	777.0	0.3097165991902834	-257.0	-0.6902834008097166	148.0	1509.0	5.65835754702554	-14.502670360939115	934.0	-509.0	-24.450688818079243	
2287.0	8.02452010035609	4.832962416561535	1668.0	1412.0	-3.0038184422314735	0.0	3539.61181640625	50450.0	0.64	777.0	0.3097165991902834	-257.0	-0.6902834008097166	148.0	1532.0	5.780700412907173	-13.61195348070339	876.0	-517.0	-24.79470477341376	
2289.0	8.012863943695347	4.857822940963395	1666.0	1413.0	-3.0275341788522123	0.0	3559.14306640625	51090.0	0.6425	778.0	0.31376518218623484	-255.0	-0.708502024291498	157.0	1499.0	7.371157669368405	-13.38839507759838	857.0	-621.0	-24.28610122866458	
2281.0	8.012976211341318	4.869049705560325	1665.0	1413.0	-2.9309229787151394	0.0	3578.67431640625	51730.0	0.6425	778.0	0.31376518218623484	-255.0	-0.708502024291498	157.0	1488.0	4.863128918794923	-13.382055947999515	863.0	-457.0	-24.11724851712922	
2281.0	8.144267988425815	4.902989318771943	1662.0	1402.0	-2.9289312686800617	0.0	3598.20556640625	52370.0	0.6425	778.0	0.31376518218623484	-255.0	-0.708502024291498	157.0	1469.0	7.799357699954122	-14.148398370059773	905.0	-649.0	-23.83336675184545	
2280.0	7.763512846209507	4.922713192379278	1661.0	1434.0	-2.9202961498589937	0.0	3617.73681640625	53010.0	0.625	771.0	0.32186234817813764	-251.0	-0.7307692307692307	168.0	1439.0	11.760207982872	-14.29603871355479	904.0	-908.0	-23.374508645536654	
2287.0	7.642912846119396	4.767475088130061	1674.0	1444.0	-3.00894426134247	0.0	3637.26806640625	53650.0	0.625	771.0	0.32186234817813764	-251.0	-0.7307692307692307	168.0	1511.0	7.080593362899527	-14.0516837893601	901.0	-602.0	-24.4768679196797	
2281.0	7.999245306284419	4.686435390346719	1680.0	1414.0	-2.93471257406998	0.0	3656.79931640625	54290.0	0.625	771.0	0.32186234817813764	-251.0	-0.7307692307692307	168.0	1492.0	2.676250191160728	-14.232199187195908	924.0	-314.0	-24.187127884153686	
2294.0	7.999260962656817	4.688001027586427	1680.0	1414.0	-3.0913076107855586	0.0	3676.33056640625	54930.0	0.605	763.0	0.31376518218623484	-255.0	-0.7044534412955465	155.0	1527.0	9.512157822296988	-16.284400573657656	1040.0	-761.0	-24.744706826052674	
2294.0	7.749311192514645	4.693024013369128	1680.0	1435.0	-3.093706648771326	0.0	3695.86181640625	55570.0	0.605	763.0	0.31376518218623484	-255.0	-0.7044534412955465	155.0	1462.0	12.218993729928124	-16.802534581944315	1066.0	-938.0	-23.752496728357425	
2296.0	7.832142581888011	4.642829617372466	1684.0	1428.0	-3.1179786083396945	0.0	3715.39306640625	56210.0	0.605	763.0	0.31376518218623484	-255.0	-0.7044534412955465	155.0	1506.0	6.897079064077077	-16.61368980474799	1068.0	-590.0	-24.425765561542953	
2284.0	8.057541745960533	4.56369840557712	1690.0	1409.0	-2.9727289276818643	0.0	3734.92431640625	56850.0	0.605	763.0	0.31376518218623484	-255.0	-0.7044534412955465	155.0	1519.0	1.819850129989295	-15.962585757254852	1039.0	-258.0	-24.618732808623648	
2299.0	8.272777689820872	4.6587213630394535	1682.0	1391.0	-3.1493990006602792	0.0	3754.45556640625	57490.0	0.585	755.0	0.3360323886639676	-244.0	-0.7408906882591093	173.0	1486.0	2.936228781159199	-15.381690468161471	998.0	-331.0	-24.106555895014594	
2296.0	8.225164596784776	4.659316821334688	1682.0	1395.0	-3.1137186441114824	0.0	3773.98681640625	58130.0	0.585	755.0	0.3360323886639676	-244.0	-0.7408906882591093	173.0	1365.0	6.453586175256156	-15.248702159171629	979.0	-561.0	-22.24854348929158	
2291.0	8.070915374361775	4.710585055224936	1678.0	1408.0	-3.053994807802486	0.0	3793.51806640625	58770.0	0.585	755.0	0.3360323886639676	-244.0	-0.7408906882591093	173.0	1281.0	5.428964673497477	-13.897868344663879	893.0	-494.0	-20.94609852386401	
2291.0	8.26098758746007	4.670187317435559	1681.0	1392.0	-3.0529020404272904	0.0	3813.04931640625	59410.0	0.5775	752.0	0.3522267206477733	-236.0	-0.7348178137651822	170.0	1225.0	2.752714482336749	-12.999624130278516	841.0	-319.0	-20.07782499686516	
2285.0	8.2509065264854	4.852557410444575	1666.0	1393.0	-2.977066292550351	0.0	3832.58056640625	60050.0	0.5775	752.0	0.3522267206477733	-236.0	-0.7348178137651822	170.0	1169.0	1.605750114696437	-12.716250821595732	825.0	-244.0	-19.21570017892334	
2282.0	8.29790288182009	4.790288182008806	1671.0	1389.0	-2.941697135252466	0.0	3852.11181640625	60690.0	0.5775	752.0	0.3522267206477733	-236.0	-0.7348178137651822	170.0	1162.0	1.5751643982260286	-11.454883234999112	743.0	-242.0	-19.0956751174505	
2274.0	8.26096711374232	4.668139945660556	1681.0	1392.0	-2.848123915491534	0.0	3871.64306640625	61330.0	0.5775	752.0	0.3522267206477733	-236.0	-0.7348178137651822	170.0	1101.0	-0.7799357699954123	-9.432078284313624	617.0	-88.0	-18.139433564798026	
2289.0	8.213619503433664	4.695283676699654	1679.0	1396.0	-3.028777408540104	0.0	3891.17431640625	61970.0	0.5650000000000001	747.0	0.3441295546558705	-240.0	-0.7388663967611336	172.0	1177.0	-2.4009787429270535	-8.309694072071895	549.0	18.0	-19.2943904806931	
2296.0	8.42896771493997	4.8015333987589175	1670.0	1378.0	-3.108836281381446	0.0	3910.70556640625	62610.0	0.5650000000000001	747.0	0.3441295546558705	-240.0	-0.7388663967611336	172.0	1109.0	-1.6975072641076618	-7.9791262636581495	525.0	-28.0	-18.24765991385647	
2275.0	8.381089139176437	4.775580584310288	1672.0	1382.0	-2.856822075235282	0.0	3930.23681640625	63250.0	0.5650000000000001	747.0	0.3441295546558705	-240.0	-0.7388663967611336	172.0	1052.0	1.7739715552836828	-8.311285542808463	537.0	-255.0	-17.376345938134858	
2273.0	8.227940650792526	4.936922222109676	1659.0	1395.0	-2.8310303418209655	0.0	3949.76806640625	63890.0	0.54	737.0	0.3684210526315789	-228.0	-0.7510121457489879	178.0	1079.0	1.4834072488148036	-7.6187702605596135	493.0	-236.0	-17.783721844081736	
2281.0	8.502801916669023	5.0420964288068815	1650.0	1372.0	-2.922563787196931	0.0	3969.29931640625	64530.0	0.54	737.0	0.3684210526315789	-228.0	-0.7510121457489879	178.0	1145.0	-2.8903502064535864	-5.895640027679107	393.0	50.0	-18.779226463189175	
2268.0	8.622297569711026	5.086899828245486	1646.0	1362.0	-2.763846256653643	0.0	3988.83056640625	65170.0	0.54	737.0	0.3684210526315789	-228.0	-0.7510121457489879	178.0	1219.0	-3.8079217005658363	-4.355658106375401	296.0	110.0	-19.899318434677383	
2283.0	8.333733098513413	4.801881279912619	1670.0	1386.0	-2.953155163898541	0.0	4008.36181640625	274.0	0.5325	734.0	0.3643724696356275	-230.0	-0.771255060728745	188.0	1451.0	-4.771371769383698	-2.451223727684058	177.0	173.0	-23.44019429957545	
2290.0	8.498180466902408	4.579951452145578	1688.0	1372.0	-3.040286636167582	0.0	4027.89306640625	914.0	0.5325	734.0	0.3643724696356275	-230.0	-0.771255060728745	188.0	1474.0	-5.887750420553602	-0.31126749768786693	41.0	246.0	-23.771717861412355	
2299.0	8.46199658656244	4.532991989577445	1692.0	1375.0	-3.1500213991621036	0.0	4047.42431640625	1554.0	0.5325	734.0	0.3643724696356275	-230.0	-0.771255060728745	188.0	1566.0	-2.2480501605750116	-2.765212770197115	192.0	8.0	-25.20794981068494	
2288.0	8.188960242727058	4.610309986991552	1686.0	1398.0	-3.0186752821702476	0.0	4066.95556640625	2194.0	0.5325	734.0	0.3643724696356275	-230.0	-0.771255060728745	188.0	1511.0	1.9574858541061326	-4.049267191058904	264.0	-267.0	-24.37684375369669	
2289.0	8.330814668451238	4.51003827369511	1694.0	1386.0	-3.031310364950019	0.0	4086.48681640625	2834.0	0.4925	718.0	0.3684210526315789	-228.0	-0.7995951417004049	202.0	1560.0	2.4315644593974617	-4.691319537319715	305.0	-298.0	-25.13514397640742	
2298.0	8.281509394737746	4.341415664250964	1708.0	1390.0	-3.1436096048157958	0.0	4106.01806640625	3474.0	0.4925	718.0	0.3684210526315789	-228.0	-0.7995951417004049	202.0	1570.0	3.1656216546872615	-5.641987243082135	365.0	-346.0	-25.29809549004629	
2288.0	8.43793479417583	4.5077651318687	1694.0	1377.0	-3.0182364337582173	0.0	4125.54931640625	4114.0	0.4925	718.0	0.3684210526315789	-228.0	-0.7995951417004049	202.0	1471.0	2.27863587704542	-5.437132349669904	353.0	-288.0	-23.7769430589578	
2314.0	8.090115525317437	4.249647769838813	1716.0	1406.0	-3.340129985735592	0.0	4145.08056640625	4754.0	0.47500000000000003	711.0	0.3502024291497976	-237.0	-0.8441295546558705	224.0	1564.0	7.600550542896468	-5.851048659257947	367.0	-636.0	-25.2081192022593	
2301.0	8.19648978498592	4.172788022401405	1722.0	1397.0	-3.1839769320635583	0.0	4164.61181640625	5394.0	0.47500000000000003	711.0	0.3502024291497976	-237.0	-0.8441295546558705	224.0	1422.0	8.85456491818321	-6.738168879935596	420.0	-718.0	-23.038073725012342	
2300.0	8.113050088265513	4.1621516836942964	1723.0	1404.0	-3.17297586303382	0.0	4184.14306640625	6034.0	0.47500000000000003	711.0	0.3502024291497976	-237.0	-0.8441295546558705	224.0	1399.0	12.968343783453129	-10.612983765532856	661.0	-987.0	-22.723898749731436	
2281.0	7.998513892264368	4.6132939883416055	1686.0	1414.0	-2.936182716250283	0.0	4203.67431640625	6674.0	0.47500000000000003	711.0	0.3502024291497976	-237.0	-0.8441295546558705	224.0	1272.0	14.100015292858236	-12.384990545688218	772.0	-1061.0	-20.79286939295113	
2298.0	8.03448528067578	4.639004258054117	1684.0	1411.0	-3.1401280740803523	0.0	4223.20556640625	7314.0	0.4675	708.0	0.3684210526315789	-228.0	-0.8502024291497976	227.0	1339.0	12.433093745220983	-11.569766455671012	724.0	-952.0	-21.812797557145323	
2302.0	8.103953880674949	4.443007115114053	1700.0	1405.0	-3.191546102023499	0.0	4242.73681640625	7954.0	0.4675	708.0	0.3684210526315789	-228.0	-0.8502024291497976	227.0	1376.0	9.40510781465056	-9.735723337595143	613.0	-754.0	-22.36220302131519	
2299.0	8.149243603296188	4.21007461533302	1719.0	1401.0	-3.159607276479655	0.0	4262.26806640625	8594.0	0.4675	708.0	0.3684210526315789	-228.0	-0.8502024291497976	227.0	1434.0	7.46291481877963	-9.464575945360375	601.0	-627.0	-23.24947159956409	
2310.0	8.342010915501058	4.439186788201118	1700.0	1385.0	-3.2856274803821717	0.0	4281.79931640625	9234.0	0.45	701.0	0.3582995951417004	-233.0	-0.8562753036437247	230.0	1451.0	6.790029056430647	-9.20434424254301	586.0	-583.0	-23.507725504724036	
2321.0	7.972319278970854	4.3747850399425285	1706.0	1416.0	-3.423142552194573	0.0	4301.33056640625	9874.0	0.45	701.0	0.3582995951417004	-233.0	-0.8562753036437247	230.0	1519.0	13.014222358158742	-10.842498558808597	677.0	-990.0	-24.567531936639185	
2313.0	7.969627792873294	4.105636430186524	1728.0	1416.0	-3.332166897081994	0.0	4320.86181640625	10514.0	0.45	701.0	0.3582995951417004	-233.0	-0.8562753036437247	230.0	1440.0	10.337972166998012	-10.886006582412808	686.0	-815.0	-23.355752807883363	
2320.0	8.157514194265804	3.846657521818575	1749.0	1400.0	-3.419804960633018	0.0	4340.39306640625	11154.0	0.435	695.0	0.36639676113360325	-229.0	-0.854251012145749	229.0	1546.0	3.991435999388286	-10.108343536137465	653.0	-400.0	-24.974491445181847	
2341.0	8.264782717726515	3.8592241536038046	1748.0	1391.0	-3.671492990955478	0.0	4359.92431640625	11794.0	0.435	695.0	0.36639676113360325	-229.0	-0.854251012145749	229.0	1512.0	5.260743232910231	-9.564479629806048	614.0	-483.0	-24.447340361742285	
2353.0	7.904312804132563	3.526518508494449	1776.0	1421.0	-3.826330116246617	0.0	4379.45556640625	12434.0	0.435	695.0	0.36639676113360325	-229.0	-0.854251012145749	229.0	1457.0	9.63450068817862	-9.793993189327159	617.0	-769.0	-23.60568889614063	
2354.0	8.188995669937984	3.423376517607892	1784.0	1397.0	-3.837594320177378	0.0	4398.98681640625	13074.0	0.435	695.0	0.36639676113360325	-229.0	-0.854251012145749	229.0	1265.0	5.2301575164398235	-9.87800620305164	632.0	-481.0	-20.660388163917894	
2361.0	8.319076854010097	3.3362568295810875	1791.0	1386.0	-3.922373251494783	0.0	4418.51806640625	13714.0	0.425	691.0	0.36639676113360325	-229.0	-0.8562753036437247	230.0	1136.0	3.884385991741857	-10.382298007769773	667.0	-393.0	-18.685992690066957	
2364.0	8.176495831611218	3.3638688754077113	1789.0	1398.0	-3.9593913991154923	0.0	4438.04931640625	14354.0	0.425	691.0	0.36639676113360325	-229.0	-0.8562753036437247	230.0	943.0	4.496100321150023	-9.528914088595767	608.0	-433.0	-15.715973504857113	
2367.0	8.26806133457414	2.996609647890207	1819.0	1390.0	-4.001965506949466	0.0	4457.58056640625	14994.0	0.425	691.0	0.36639676113360325	-229.0	-0.8562753036437247	230.0	841.0	2.5080287505734824	-6.542713931010232	418.0	-303.0	-14.120974170152515	
2375.0	8.458508889373169	2.9937460801739766	1819.0	1374.0	-4.0965038449244755	0.0	4477.11181640625	15634.0	0.41000000000000003	685.0	0.3684210526315789	-228.0	-0.8421052631578947	223.0	643.0	-2.0645358617525615	-4.344574136463066	285.0	-4.0	-11.060785007898314	
