Device	Device	Device	Device	Device	Device	Device	Device	Device	Device	Device	Device	Device	Device	Device	Device	Device	Device	Device	Device	Device	
Low Noise Accelerometer X	Low Noise Accelerometer X	Low Noise Accelerometer Z	Low Noise Accelerometer Z	Low Noise Accelerometer Y	Low Noise Accelerometer Y	Event_Marker	Timestamp	Timestamp	Magnetometer Z	Magnetometer Z	Magnetometer X	Magnetometer X	Magnetometer Y	Magnetometer Y	Gyroscope Y	Gyroscope Y	Gyroscope Z	Gyroscope Z	Gyroscope X	Gyroscope X	
CAL	UNCAL	UNCAL	CAL	CAL	UNCAL	CAL	CAL	UNCAL	CAL	UNCAL	UNCAL	CAL	UNCAL	CAL	CAL	UNCAL	UNCAL	CAL	UNCAL	CAL	
m/(s^2)	no units	no units	m/(s^2)	m/(s^2)	no units	no units	ms	no units	local_flux	no units	no units	local_flux	no units	local_flux	deg/s	no units	no units	deg/s	no units	deg/s	
9.857591216161184	2080.0	1958.0	1.2353120923088994	-0.5634648339440174	1255.0	0.0	937.5	30720.0	0.28750000000000003	636.0	-36.0	0.757085020242915	103.0	-0.5991902834008097	-2.27863587704542	-324.0	-38.0	0.48359228031908863	10.0	3.8256123536762923	
9.7018924133978	2086.0	1966.0	1.141622292160982	-0.6391847746011156	1268.0	0.0	957.03125	31360.0	0.28750000000000003	636.0	-36.0	0.757085020242915	103.0	-0.5991902834008097	-3.043278788805628	-247.0	-112.0	1.664161609747545	60.0	2.6558928052949593	
10.046443201556391	2079.0	1971.0	1.072891584210511	-0.5527765314809487	1239.0	0.0	976.5625	32000.0	0.2925	638.0	-37.0	0.7550607287449392	100.0	-0.5931174089068826	-8.946322067594433	-85.0	-85.0	1.5098361170852779	446.0	0.16854319775210186	
10.094325390328938	2103.0	1969.0	1.099205699560612	-0.8409280537922452	1235.0	0.0	996.09375	32640.0	0.2925	638.0	-37.0	0.7550607287449392	100.0	-0.5931174089068826	-6.774736198195443	-49.0	-68.0	1.1670327457220013	304.0	-0.3872862476540275	
10.202052619064233	2100.0	1964.0	1.1576428588041487	-0.8025374600067686	1226.0	0.0	1015.625	33280.0	0.2925	638.0	-37.0	0.7550607287449392	100.0	-0.5931174089068826	-5.5818932558495185	-55.0	-16.0	0.31860625964836264	226.0	-0.3037036105660145	
10.10684811104613	2112.0	1964.0	1.161001580803443	-0.9480006438999758	1234.0	0.0	1035.15625	33920.0	0.28250000000000003	634.0	-31.0	0.7672064777327935	103.0	-0.5991902834008097	-2.966814497629607	-121.0	-76.0	1.1267298708313027	55.0	0.7171135469820586	
10.225749908777157	2112.0	1965.0	1.1464194491441617	-0.9471032685558513	1224.0	0.0	1054.6875	34560.0	0.28250000000000003	634.0	-31.0	0.7672064777327935	103.0	-0.5991902834008097	-5.0466432176173734	-118.0	-198.0	3.0868217089007586	191.0	0.6906810143883786	
10.24918894178067	2112.0	1968.0	1.1093703685432528	-0.9476098598378343	1222.0	0.0	1074.21875	35200.0	0.28250000000000003	634.0	-31.0	0.7672064777327935	103.0	-0.5991902834008097	-3.7161645511546113	-143.0	-409.0	6.275102127975857	104.0	1.1061759100322521	
10.142662671367058	2100.0	1963.0	1.1710290414675488	-0.8028636358304725	1231.0	0.0	1093.75	35840.0	0.28250000000000003	634.0	-31.0	0.7672064777327935	103.0	-0.5991902834008097	-3.5785288270377738	-199.0	-526.0	8.0605483630592	95.0	1.9833214572380804	
9.938600092166114	2087.0	1977.0	1.0028663594685736	-0.6516410092383649	1248.0	0.0	1113.28125	36480.0	0.275	631.0	-29.0	0.771255060728745	108.0	-0.6093117408906883	-1.819850129989295	-216.0	-594.0	9.033488283128884	-20.0	2.253907078626901	
9.676517395043543	2098.0	1979.0	0.9850728376874736	-0.7871478271271404	1270.0	0.0	1132.8125	37120.0	0.275	631.0	-29.0	0.771255060728745	108.0	-0.6093117408906883	-2.355100168221441	-175.0	-630.0	9.614892342404405	15.0	1.6305972892365346	
9.855793993855851	2106.0	1973.0	1.0555898617755326	-0.8803302628259309	1255.0	0.0	1152.34375	37760.0	0.275	631.0	-29.0	0.771255060728745	108.0	-0.6093117408906883	-2.4009787429270535	-233.0	-582.0	8.869554272208163	18.0	2.513123960705817	
9.55885268572434	2113.0	1968.0	1.1233638105292987	-0.9662815463297609	1280.0	0.0	1171.875	38400.0	0.2775	632.0	-40.0	0.7489878542510121	111.0	-0.6153846153846154	2.5692001835142992	-268.0	-546.0	8.111691372307822	-307.0	3.042602259741185	
9.426924901557026	2091.0	1976.0	1.0258234890359657	-0.7044913896374453	1291.0	0.0	1191.40625	39040.0	0.2775	632.0	-40.0	0.7489878542510121	111.0	-0.6153846153846154	3.027985930570424	-340.0	-534.0	7.897726324079109	-337.0	4.145265432643892	
9.44903264354782	2099.0	1990.0	0.8556453071629389	-0.8040594180236726	1289.0	0.0	1210.9375	39680.0	0.2775	632.0	-40.0	0.7489878542510121	111.0	-0.6153846153846154	-1.3151858082275578	-188.0	-598.0	9.079122597790372	-53.0	1.824717879346018	
9.367195742249267	2113.0	1978.0	1.0052885106409302	-0.9705596217622791	1296.0	0.0	1230.46875	40320.0	0.2775	632.0	-40.0	0.7489878542510121	111.0	-0.6153846153846154	-5.1384003670285985	-91.0	-504.0	7.80113173320728	197.0	0.3235230558620713	
9.534188607672384	2108.0	1975.0	1.0379083862859009	-0.9079963317397268	1282.0	0.0	1250.0	40960.0	0.27	629.0	-49.0	0.7307692307692307	142.0	-0.6781376518218624	-7.1111790793699345	-51.0	-400.0	6.28657824649501	326.0	-0.30540182533004767	
9.33223690695774	2127.0	1972.0	1.0808335529171034	-1.1380730080648516	1299.0	0.0	1269.53125	41600.0	0.27	629.0	-49.0	0.7307692307692307	142.0	-0.6781376518218624	-4.282000305857165	-40.0	-332.0	5.129221800236006	141.0	-0.4857647100320117	
9.415797301678483	2127.0	1970.0	1.1035396916579072	-1.136783281342828	1292.0	0.0	1289.0625	42240.0	0.27	629.0	-49.0	0.7307692307692307	142.0	-0.6781376518218624	-0.09175714941122497	-194.0	-283.0	4.184345861383981	-133.0	1.8678370139307034	
9.69767280073136	2125.0	2001.0	0.7196610255169462	-1.1175457141329497	1268.0	0.0	1308.59375	42880.0	0.2775	632.0	-49.0	0.7307692307692307	140.0	-0.6740890688259109	5.428964673497477	-367.0	-284.0	3.9523764775622454	-494.0	4.5201129929480945	
9.066732514053898	2131.0	2002.0	0.7208704530087104	-1.1961200850763951	1321.0	0.0	1328.125	43520.0	0.2775	632.0	-49.0	0.7307692307692307	140.0	-0.6740890688259109	9.435693531120968	-411.0	-119.0	1.2475551665889806	-756.0	5.168222060795859	
9.18671698077894	2119.0	1994.0	0.8145552207512146	-1.0484682318012828	1311.0	0.0	1347.65625	44160.0	0.2775	632.0	-49.0	0.7307692307692307	140.0	-0.6740890688259109	0.7034714788193914	-332.0	-41.0	0.40923460981325765	-185.0	3.947624646236233	
9.329433153214213	2127.0	1995.0	0.8004581785641702	-1.1437085530893456	1299.0	0.0	1367.1875	44800.0	0.28750000000000003	636.0	-44.0	0.7408906882591093	131.0	-0.6558704453441295	-1.1163786511699039	-142.0	-4.0	-0.05791335997687159	-66.0	1.0275012714946	
9.281587094531812	2133.0	1997.0	0.7777570722287795	-1.2169301924293832	1303.0	0.0	1386.71875	45440.0	0.28750000000000003	636.0	-44.0	0.7408906882591093	131.0	-0.6558704453441295	-5.0466432176173734	-131.0	147.0	-2.2215181052448827	191.0	0.8370759038025459	
9.163417915157174	2134.0	1990.0	0.8656010395269975	-1.22840319764825	1313.0	0.0	1406.25	46080.0	0.28750000000000003	636.0	-44.0	0.7408906882591093	131.0	-0.6558704453441295	-8.441657745832696	-180.0	239.0	-3.5082745428653888	413.0	1.5760880386744611	
9.459006254221874	2117.0	2006.0	0.6625301840922875	-1.024689454257863	1288.0	0.0	1425.78125	46720.0	0.28750000000000003	636.0	-44.0	0.7408906882591093	131.0	-0.6558704453441295	-14.390579599327115	-185.0	261.0	-3.609484247403377	802.0	1.651798359919706	
9.589223792666722	2136.0	2012.0	0.5890459333388857	-1.253772626539085	1277.0	0.0	1445.3125	47360.0	0.2725	630.0	-45.0	0.7388663967611336	136.0	-0.6659919028340081	-15.354029668144978	-98.0	242.0	-3.2653682266592163	865.0	0.32026944187028067	
9.755593898706742	2120.0	2014.0	0.5593898706742017	-1.0599309623946294	1263.0	0.0	1464.84375	48000.0	0.2725	630.0	-45.0	0.7388663967611336	136.0	-0.6659919028340081	-14.95641535402967	-262.0	307.0	-4.306179848772095	839.0	2.8263566455816362	
9.601834694303117	2117.0	2006.0	0.6596599065021725	-1.023318575408853	1276.0	0.0	1484.375	48640.0	0.2725	630.0	-45.0	0.7388663967611336	136.0	-0.6659919028340081	-13.396543814038845	-277.0	231.0	-3.2019358920723073	737.0	3.0675663400205075	
9.755960810053105	2121.0	2011.0	0.5960810053105818	-1.0712416633595223	1263.0	0.0	1503.90625	49280.0	0.2775	632.0	-44.0	0.7408906882591093	124.0	-0.6417004048582996	-13.029515216393944	-334.0	226.0	-3.148457495078999	713.0	3.9427366925035607	
9.957434536111752	2110.0	2018.0	0.5053583730798933	-0.9385112582616219	1246.0	0.0	1523.4375	49920.0	0.2775	632.0	-44.0	0.7408906882591093	124.0	-0.6417004048582996	-10.888515063465363	-530.0	302.0	-4.433095140645319	573.0	6.937409113040379	
10.005168327148183	2112.0	2017.0	0.5168327148183547	-0.9619008190586571	1242.0	0.0	1542.96875	50560.0	0.2775	632.0	-44.0	0.7408906882591093	124.0	-0.6417004048582996	-5.612478972319927	-532.0	390.0	-5.997924892850331	228.0	6.952449782834578	
9.947349862128066	2101.0	2003.0	0.6873671651874391	-0.8265381942195488	1247.0	0.0	1562.5	51200.0	0.2775	632.0	-44.0	0.7408906882591093	124.0	-0.6417004048582996	-3.2420859458632822	-653.0	338.0	-5.311499139701321	73.0	8.815996562999182	
9.853823082751298	2089.0	1989.0	0.8584987513202285	-0.6794725170376487	1255.0	0.0	1582.03125	51840.0	0.265	627.0	-43.0	0.742914979757085	122.0	-0.6376518218623481	-4.312586022327573	-582.0	248.0	-3.8735259509335314	143.0	7.740917955159992	
10.105000306614592	2096.0	1979.0	0.9762211376494815	-0.7589436464700211	1234.0	0.0	1601.5625	52480.0	0.265	627.0	-43.0	0.742914979757085	122.0	-0.6376518218623481	-5.0466432176173734	-470.0	204.0	-3.1502312199673104	191.0	6.029568732759665	
10.152233240604602	2087.0	1982.0	0.937609774745807	-0.6508098094484354	1230.0	0.0	1621.09375	53120.0	0.265	627.0	-43.0	0.742914979757085	122.0	-0.6376518218623481	-3.043278788805628	-526.0	190.0	-3.023619884714838	60.0	6.890125930967184	
10.140808845253826	2079.0	1978.0	0.9856464301444692	-0.5535777781252952	1231.0	0.0	1640.625	53760.0	0.255	623.0	-36.0	0.757085020242915	114.0	-0.6214574898785425	-2.1410001529285827	-502.0	193.0	-3.102167245990203	1.0	6.521072849559432	
10.071482621309078	2092.0	1961.0	1.1958811785270544	-0.7066928514211874	1237.0	0.0	1660.15625	54400.0	0.255	623.0	-36.0	0.757085020242915	114.0	-0.6214574898785425	-2.2174644441046034	-341.0	130.0	-2.105422050431559	6.0	4.06057843255691	
10.121259847996873	2070.0	1943.0	1.4116990854015676	-0.4368184800529637	1233.0	0.0	1679.6875	55040.0	0.255	623.0	-36.0	0.757085020242915	114.0	-0.6214574898785425	-3.226793087628078	-475.0	29.0	-0.5321607015639114	72.0	6.132471856234323	
10.00210581523813	2063.0	1944.0	1.4010577142890455	-0.3538854984052112	1243.0	0.0	1699.21875	55680.0	0.2625	626.0	-28.0	0.7732793522267206	109.0	-0.611336032388664	-4.694907478207678	-371.0	-77.0	1.1728700157794054	168.0	4.553695862962766	
10.133658257704713	2077.0	1939.0	1.4610638657092327	-0.5200445497473224	1232.0	0.0	1718.75	56320.0	0.2625	626.0	-28.0	0.7732793522267206	109.0	-0.611336032388664	-6.193607585257685	-142.0	-144.0	2.2984550044203735	266.0	1.0510649551385725	
10.302834526160938	2063.0	1918.0	1.7120240446651294	-0.34465888468846145	1218.0	0.0	1738.28125	56960.0	0.2625	626.0	-28.0	0.7732793522267206	109.0	-0.611336032388664	-3.8538002752714484	-153.0	-210.0	3.218311259588953	113.0	1.2290528379296324	
10.043170606390456	2058.0	1900.0	1.9361082580932272	-0.28253287576218267	1240.0	0.0	1757.8125	57600.0	0.2625	626.0	-28.0	0.7732793522267206	109.0	-0.611336032388664	-0.25997858999847073	17.0	-254.0	3.777407055747856	-122.0	-1.3739184259900128	
9.960078551635005	2042.0	1898.0	1.9602361158813197	-0.09011015481662593	1247.0	0.0	1777.34375	58240.0	0.2675	628.0	-29.0	0.771255060728745	106.0	-0.6052631578947368	-1.3610643829331703	172.0	-270.0	4.091319028094694	-50.0	-3.749174273275905	
10.20907116812885	2057.0	1906.0	1.8594977652658233	-0.27035788723026244	1226.0	0.0	1796.875	58880.0	0.2675	628.0	-29.0	0.771255060728745	106.0	-0.6052631578947368	-3.4867716776265487	554.0	-264.0	4.142664619588595	89.0	-9.610253574764679	
10.160968057073378	2052.0	1910.0	1.8110914216233347	-0.21156608135824534	1230.0	0.0	1816.40625	59520.0	0.2675	628.0	-29.0	0.771255060728745	106.0	-0.6052631578947368	1.3916500994035788	699.0	-175.0	2.6009112744001515	-230.0	-11.850621238644674	
9.94916826103037	2056.0	1890.0	2.0596832458941785	-0.25690501391759585	1248.0	0.0	1835.9375	60160.0	0.255	623.0	-37.0	0.7550607287449392	106.0	-0.6052631578947368	7.340571952897998	981.0	-127.0	1.6679711917147815	-619.0	-16.187095031062753	
10.031257397356642	2049.0	1900.0	1.9352635451879905	-0.17423516717086654	1241.0	0.0	1855.46875	60800.0	0.255	623.0	-37.0	0.7550607287449392	106.0	-0.6052631578947368	7.0653005046643225	1206.0	-170.0	2.3748731497249476	-601.0	-19.632534834560754	
9.958747260622284	2050.0	1909.0	1.827107014609202	-0.18917159192087024	1247.0	0.0	1875.0	61440.0	0.255	623.0	-37.0	0.7550607287449392	106.0	-0.6052631578947368	4.159657439975532	1504.0	-213.0	3.1981798049940235	-411.0	-24.196957898129284	
10.028707082977169	2057.0	1921.0	1.6802321072406843	-0.2757468412422821	1241.0	0.0	1894.53125	62080.0	0.255	623.0	-37.0	0.7550607287449392	106.0	-0.6052631578947368	0.21410001529285827	1745.0	-183.0	2.9315415048838136	-153.0	-27.89764484273849	
10.051797269679392	2071.0	1927.0	1.6082983965107502	-0.4456293123850392	1239.0	0.0	1914.0625	62720.0	0.25	621.0	-33.0	0.7631578947368421	113.0	-0.6194331983805668	4.144364581740327	2003.0	-187.0	2.875454294324081	-410.0	-31.85708249864031	
9.836457488527454	2071.0	1936.0	1.502891709888253	-0.4498908439290086	1257.0	0.0	1933.59375	63360.0	0.25	621.0	-33.0	0.7631578947368421	113.0	-0.6194331983805668	7.677014834072489	2056.0	-185.0	2.711532754953964	-641.0	-32.67197934791463	
9.7392664130324	2053.0	1952.0	1.3075936841925353	-0.23790124531835535	1265.0	0.0	1953.125	64000.0	0.25	621.0	-33.0	0.7631578947368421	113.0	-0.6194331983805668	5.795993271142377	2177.0	-172.0	2.6053818222885354	-518.0	-34.5297233798744	
9.678774526959796	2049.0	1960.0	1.2107860293129713	-0.19224954619233536	1270.0	0.0	1972.65625	64640.0	0.225	611.0	-32.0	0.7651821862348178	137.0	-0.6680161943319838	3.8385074170362445	2392.0	-179.0	2.8243257441190748	-390.0	-37.82659792715295	
9.761505692050576	2069.0	1965.0	1.150569205057617	-0.4335904264482214	1263.0	0.0	1992.1875	65280.0	0.225	611.0	-32.0	0.7651821862348178	137.0	-0.6680161943319838	3.027985930570424	2620.0	-101.0	1.6920298428949727	-337.0	-41.336463160217676	
9.893548152536535	2085.0	1956.0	1.2595771584155266	-0.622860927113553	1252.0	0.0	2011.71875	384.0	0.225	611.0	-32.0	0.7651821862348178	137.0	-0.6680161943319838	3.37972166998012	2686.0	-72.0	1.2420475531031048	-360.0	-42.353698904551834	
9.67782339499316	2069.0	1968.0	1.1156728326492944	-0.43512517686696206	1270.0	0.0	2031.25	1024.0	0.1975	600.0	-36.0	0.757085020242915	146.0	-0.6862348178137652	8.56400061171433	2465.0	-132.0	1.9236318612056873	-699.0	-38.95575217302521	
9.665443050330394	2077.0	1972.0	1.0681145568489845	-0.5325856879982706	1271.0	0.0	2050.78125	1664.0	0.1975	600.0	-36.0	0.757085020242915	146.0	-0.6862348178137652	8.885150634653618	2640.0	-153.0	2.260632233233158	-720.0	-41.637666809476784	
9.772948152446425	2092.0	1969.0	1.10433905416631	-0.7115090385970287	1262.0	0.0	2070.3125	2304.0	0.1975	600.0	-36.0	0.757085020242915	146.0	-0.6862348178137652	8.8239792017128	2812.0	-129.0	1.9203316592652753	-716.0	-44.280321004413956	
9.799082284556516	2103.0	1950.0	1.336799884222876	-0.8391286011567243	1260.0	0.0	2089.84375	2944.0	0.1975	600.0	-36.0	0.757085020242915	146.0	-0.6862348178137652	9.58862211347301	2882.0	-64.0	0.9007428627240562	-766.0	-45.36463074844811	
9.5833563226768	2086.0	1962.0	1.1927751248228198	-0.6393470788550887	1278.0	0.0	2109.375	3584.0	0.185	595.0	-40.0	0.7489878542510121	153.0	-0.7004048582995952	12.540143752867412	2779.0	-49.0	0.5361799020046791	-959.0	-43.787794561268434	
9.689140340043318	2089.0	1973.0	1.0568911471889975	-0.6771514965473531	1269.0	0.0	2128.90625	4224.0	0.185	595.0	-40.0	0.7489878542510121	153.0	-0.7004048582995952	9.48157210582658	2903.0	-65.0	0.9236271650526737	-759.0	-45.68663606224545	
9.952092009895015	2091.0	1964.0	1.161581941882437	-0.6965245494971359	1247.0	0.0	2148.4375	4864.0	0.185	595.0	-40.0	0.7489878542510121	153.0	-0.7004048582995952	7.707600550542897	3108.0	-20.0	0.333899991665103	-643.0	-48.83815248389492	
9.677835438356542	2079.0	1968.0	1.1168771689875312	-0.5555828974174069	1270.0	0.0	2167.96875	5504.0	0.165	587.0	-43.0	0.742914979757085	166.0	-0.7267206477732794	15.29285823520416	3078.0	26.0	-0.6815955599638222	-1139.0	-48.38797292966747	
9.606187048333277	2087.0	1970.0	1.0948953095181402	-0.653124560675702	1276.0	0.0	2187.5	6144.0	0.165	587.0	-43.0	0.742914979757085	166.0	-0.7267206477732794	16.378651169903655	3291.0	29.0	-0.7384845849118621	-1210.0	-51.65691683909755	
9.77013476401219	2084.0	1992.0	0.8230002107427874	-0.6207784071811668	1262.0	0.0	2207.03125	6784.0	0.165	587.0	-43.0	0.742914979757085	166.0	-0.7267206477732794	11.83667227404802	3408.0	-50.0	0.6762038098610617	-913.0	-53.43807454315044	
9.746960009399777	2101.0	1987.0	0.8864771304537367	-0.8245598934415057	1264.0	0.0	2226.5625	7424.0	0.165	587.0	-43.0	0.742914979757085	166.0	-0.7267206477732794	13.029515216393944	3496.0	28.0	-0.5576987849675249	-991.0	-54.80072813101371	
9.27244873516941	2100.0	1974.0	1.0543973264647075	-0.8138984094925057	1304.0	0.0	2246.09375	8064.0	0.1375	576.0	-47.0	0.7348178137651822	158.0	-0.7105263157894737	18.3667227404802	3330.0	81.0	-1.6118127083048372	-1340.0	-52.264084982998355	
9.200188424790092	2106.0	1981.0	0.9712234313900752	-0.8885736471242975	1310.0	0.0	2265.625	8704.0	0.1375	576.0	-47.0	0.7348178137651822	158.0	-0.7105263157894737	17.464444104603153	3305.0	91.0	-1.7333680171012766	-1281.0	-51.88168844463319	
9.483917749956197	2125.0	1997.0	0.7727273765721939	-1.1186219376195963	1286.0	0.0	2285.15625	9344.0	0.1375	576.0	-47.0	0.7348178137651822	158.0	-0.7105263157894737	13.947086710506195	3478.0	213.0	-3.4425912062339377	-1051.0	-54.55337634938013	
9.437036070940154	2122.0	1991.0	0.8464642368725409	-1.0814714388904971	1290.0	0.0	2304.6875	9984.0	0.11	565.0	-46.0	0.7368421052631579	186.0	-0.7672064777327935	20.935922923994497	3502.0	549.0	-8.886353227781782	-1508.0	-54.97608157739061	
9.346329906015653	2124.0	1954.0	1.299657268231795	-1.0974110254547256	1298.0	0.0	2324.21875	10624.0	0.11	565.0	-46.0	0.7368421052631579	186.0	-0.7672064777327935	27.81770912983637	3395.0	848.0	-13.776846640739654	-1958.0	-53.38312676010082	
9.477172612516272	2156.0	1955.0	1.2886898230556953	-1.4818641159679402	1287.0	0.0	2343.75	11264.0	0.11	565.0	-46.0	0.7368421052631579	186.0	-0.7672064777327935	24.43798745985625	3649.0	908.0	-14.525542848915212	-1737.0	-57.2881125713463	
9.701116174566721	2150.0	1973.0	1.0639984090530656	-1.4118293520009821	1268.0	0.0	2363.28125	11904.0	0.105	563.0	-35.0	0.7591093117408907	169.0	-0.7327935222672065	19.88071570576541	3655.0	917.0	-14.480776026377427	-1439.0	-57.37973180506967	
9.545999183750935	2133.0	1976.0	1.0284898036647978	-1.2092714169084717	1281.0	0.0	2382.8125	12544.0	0.105	563.0	-35.0	0.7591093117408907	169.0	-0.7327935222672065	22.067594433399606	3556.0	869.0	-13.845157829654237	-1582.0	-55.854271740948064	
9.676821416533803	2148.0	1977.0	1.0154749867136954	-1.38894638248593	1270.0	0.0	2402.34375	13184.0	0.105	563.0	-35.0	0.7591093117408907	169.0	-0.7327935222672065	21.24178008869858	3644.0	835.0	-13.275682595687686	-1528.0	-57.198891550523406	
9.165606135535635	2129.0	1972.0	1.0844230773732182	-1.163763910832119	1313.0	0.0	2421.875	13824.0	0.105	563.0	-35.0	0.7591093117408907	169.0	-0.7327935222672065	25.340266095733295	3568.0	791.0	-12.774515009377254	-1796.0	-56.0276991166428	
9.37747845612545	2084.0	1991.0	0.8430837077831222	-0.6243033003192275	1295.0	0.0	2441.40625	14464.0	0.075	551.0	-40.0	0.7489878542510121	174.0	-0.742914979757085	19.62073711576694	3274.0	746.0	-11.898733010517962	-1422.0	-51.50766310116549	
9.49451799738888	2056.0	2007.0	0.6422759293639955	-0.2897996628846144	1285.0	0.0	2460.9375	15104.0	0.075	551.0	-40.0	0.7489878542510121	174.0	-0.742914979757085	16.39394402813886	3294.0	695.0	-10.982189351522978	-1211.0	-51.80538733773804	
9.66274072520579	2060.0	1994.0	0.7978820443885676	-0.3331980843902912	1271.0	0.0	2480.46875	15744.0	0.075	551.0	-40.0	0.7489878542510121	174.0	-0.742914979757085	13.610643829331703	3333.0	757.0	-11.81848879585638	-1029.0	-52.41218519484824	
9.541795491823404	2084.0	2010.0	0.6081206109117969	-0.6273593918996745	1281.0	0.0	2500.0	16384.0	0.045	539.0	-30.0	0.7692307692307693	168.0	-0.7307692307692307	12.035479431105674	3466.0	784.0	-12.150361589271938	-926.0	-54.45632024931301	
9.410886282457668	2098.0	2010.0	0.6124377695762672	-0.7972568396152233	1292.0	0.0	2519.53125	17024.0	0.045	539.0	-30.0	0.7692307692307693	168.0	-0.7307692307692307	8.059336289952594	3399.0	707.0	-10.81729681002609	-666.0	-53.41490919642618	
9.995768098067357	2064.0	1996.0	0.7672859972118897	-0.37867250268954644	1243.0	0.0	2539.0625	17664.0	0.045	539.0	-30.0	0.7692307692307693	168.0	-0.7307692307692307	-1.1163786511699039	3170.0	656.0	-9.70102401411375	-66.0	-49.889859710756454	
9.649884814559707	2078.0	2002.0	0.7027671702564193	-0.552096410858913	1272.0	0.0	2558.59375	18304.0	0.045	539.0	-30.0	0.7692307692307693	168.0	-0.7307692307692307	2.385685884691849	2906.0	729.0	-11.00438986441009	-295.0	-45.85194968351445	
9.555099004350513	2134.0	1999.0	0.7479956731465119	-1.226838494083926	1280.0	0.0	2578.125	18944.0	0.0175	528.0	-28.0	0.7732793522267206	169.0	-0.7327935222672065	7.478207677014835	3100.0	797.0	-12.224193381620038	-628.0	-48.84097754836277	
9.61630664807077	2125.0	1985.0	0.9163790927914813	-1.114425014314065	1275.0	0.0	2597.65625	19584.0	0.0175	528.0	-28.0	0.7732793522267206	169.0	-0.7327935222672065	1.5904572564612327	2931.0	815.0	-12.291489292515202	-243.0	-46.248432769248616	
10.23458183797662	2093.0	1990.0	0.8391361786143645	-0.7242449520238501	1223.0	0.0	2617.1875	20224.0	0.0175	528.0	-28.0	0.7732793522267206	169.0	-0.7327935222672065	-1.0246215017586788	2717.0	913.0	-13.727040172835881	-72.0	-42.97906877521309	
10.283142449970338	2073.0	1982.0	0.9332926160813367	-0.4809123617328867	1219.0	0.0	2636.71875	20864.0	-0.0175	514.0	-26.0	0.7773279352226721	181.0	-0.757085020242915	-0.5046643217617374	2811.0	989.0	-14.902348029855228	-106.0	-44.433203317647035	
10.117354155877914	2066.0	1975.0	1.0211298735056702	-0.3964761501277339	1233.0	0.0	2656.25	21504.0	-0.0175	514.0	-26.0	0.7773279352226721	181.0	-0.757085020242915	0.41290717235051233	2745.0	941.0	-14.21089944722257	-166.0	-43.41355291038446	
10.664142601196334	2075.0	1981.0	0.938069643442863	-0.501103205215565	1187.0	0.0	2675.78125	22144.0	-0.0175	514.0	-26.0	0.7773279352226721	181.0	-0.757085020242915	-3.410307386450528	3056.0	814.0	-12.056919310339504	84.0	-48.164147526692474	
10.174304852505248	2065.0	1996.0	0.7638185838580698	-0.3890046761833283	1228.0	0.0	2695.3125	22784.0	-0.05	501.0	-19.0	0.791497975708502	182.0	-0.7591093117408907	-0.45878574705612485	2912.0	685.0	-10.212950523124185	-109.0	-45.936102192050335	
10.021560609894186	2095.0	1980.0	0.9655847989423727	-0.7479425774402829	1241.0	0.0	2714.84375	23424.0	-0.05	501.0	-19.0	0.791497975708502	182.0	-0.7591093117408907	2.3092215935158285	2957.0	516.0	-7.717415291095114	-290.0	-46.60164860434566	
10.215076196827845	2120.0	1955.0	1.2695244446891158	-1.04113344793312	1225.0	0.0	2734.375	24064.0	-0.05	501.0	-19.0	0.791497975708502	182.0	-0.7591093117408907	0.5505428964673498	3006.0	381.0	-5.563161172186347	-175.0	-47.3319857624047	
10.685777185876486	2095.0	1999.0	0.7205757305056452	-0.7462005930491944	1185.0	0.0	2753.90625	24704.0	-0.05	501.0	-19.0	0.791497975708502	182.0	-0.7591093117408907	5.750114696436764	2855.0	472.0	-7.193935785563166	-515.0	-45.0312764761616	
9.175302484485384	2018.0	1989.0	0.8635817818717931	0.16926562433771142	1312.0	0.0	2773.4375	25344.0	-0.075	491.0	-22.0	0.7854251012145749	187.0	-0.7692307692307693	38.18626701330479	2421.0	574.0	-10.126673049835992	-2636.0	-38.40109794117813	
8.8681509870245	2013.0	1970.0	1.1008129881641149	0.23117969734437066	1338.0	0.0	2792.96875	25984.0	-0.075	491.0	-22.0	0.7854251012145749	187.0	-0.7692307692307693	38.10980272212877	2119.0	433.0	-8.001270266359874	-2631.0	-33.745809848589644	
9.450092430151411	2068.0	1981.0	0.9616239675220742	-0.42843527104683954	1289.0	0.0	2812.5	26624.0	-0.075	491.0	-22.0	0.7854251012145749	187.0	-0.7692307692307693	1.1163786511699039	3100.0	865.0	-13.015634000689847	-212.0	-48.84889195455347	
10.35795909641082	2064.0	1954.0	1.2721001172723936	-0.3649543103049017	1213.0	0.0	2832.03125	27264.0	-0.09	485.0	-25.0	0.7793522267206477	184.0	-0.7631578947368421	2.6303716164551156	2917.0	1085.0	-16.488021640284796	-311.0	-46.07557532151256	
10.27548498369311	2055.0	1947.0	1.358022178834846	-0.25562687526107075	1220.0	0.0	2851.5625	27904.0	-0.09	485.0	-25.0	0.7793522267206477	184.0	-0.7631578947368421	9.11454350818168	3005.0	814.0	-12.56568815590588	-735.0	-47.38666654858377	
10.299374291616841	2024.0	1946.0	1.3660005902554784	0.11826556195019364	1218.0	0.0	2871.09375	28544.0	-0.09	485.0	-25.0	0.7793522267206477	184.0	-0.7631578947368421	4.022021715858695	2952.0	459.0	-6.909987076560332	-402.0	-46.51685190390969	
10.275937667286003	2026.0	1943.0	1.4032905381240346	0.09468060912208771	1220.0	0.0	2890.625	29184.0	-0.09	485.0	-25.0	0.7793522267206477	184.0	-0.7631578947368421	-3.5785288270377738	3176.0	264.0	-3.5723886387605974	95.0	-49.92064025895167	
10.562958355542339	2045.0	1932.0	1.533930792329162	-0.1287520415618488	1196.0	0.0	2910.15625	29824.0	-0.125	471.0	-20.0	0.7894736842105263	175.0	-0.7449392712550608	-2.477443034103074	3087.0	131.0	-1.5844483532855995	23.0	-48.535101810523805	
10.490682388790626	2038.0	1939.0	1.4491912600148218	-0.04683224247806236	1202.0	0.0	2929.6875	30464.0	-0.125	471.0	-20.0	0.7894736842105263	175.0	-0.7449392712550608	5.321914665851048	2997.0	30.0	-0.35674832921500144	-487.0	-47.14182128105186	
10.002066072138968	2030.0	1944.0	1.3970834043728642	0.04362497941125659	1243.0	0.0	2949.21875	31104.0	-0.125	471.0	-20.0	0.7894736842105263	175.0	-0.7449392712550608	8.762807768771985	3017.0	-134.0	2.031134872184707	-712.0	-47.424832122200364	
9.895932004134819	2040.0	1936.0	1.4979623182438377	-0.07590071070220876	1252.0	0.0	2968.75	31744.0	-0.1525	460.0	-18.0	0.7935222672064778	175.0	-0.7449392712550608	3.440893102920936	3267.0	-174.0	2.8975759792448335	-364.0	-51.25228862566098	
9.835825094453652	2052.0	1941.0	1.4396523025080092	-0.22224629336674906	1257.0	0.0	2988.28125	32384.0	-0.1525	460.0	-18.0	0.7935222672064778	175.0	-0.7449392712550608	5.367793240556661	3342.0	-115.0	1.9245529545830335	-490.0	-52.41285513026697	
9.81190326944879	2056.0	1942.0	1.4284221829741375	-0.2709028850918125	1259.0	0.0	3007.8125	33024.0	-0.1525	460.0	-18.0	0.7935222672064778	175.0	-0.7449392712550608	7.004129071723506	3491.0	121.0	-1.7478806914581515	-597.0	-54.735907531787994	
9.860151165231363	2080.0	1937.0	1.491306999326795	-0.5583193363129576	1255.0	0.0	3027.34375	33664.0	-0.1925	444.0	-17.0	0.7955465587044535	166.0	-0.7267206477732794	9.068664933476068	3707.0	325.0	-4.93497810398199	-732.0	-58.082186976068215	
9.703583389738856	2073.0	1952.0	1.3107199262665377	-0.4791594061314976	1268.0	0.0	3046.875	34304.0	-0.1925	444.0	-17.0	0.7955465587044535	166.0	-0.7267206477732794	3.6855788346842027	3799.0	301.0	-4.336423617278625	-380.0	-59.48789392774867	
9.856369784121755	2078.0	1968.0	1.1131688883660638	-0.5418235268010997	1255.0	0.0	3066.40625	34944.0	-0.1925	444.0	-17.0	0.7955465587044535	166.0	-0.7267206477732794	-2.355100168221441	4019.0	171.0	-2.061573723081639	15.0	-62.840931833594176	
9.950640020881957	2100.0	1976.0	1.016383040576624	-0.8078767823531419	1247.0	0.0	3085.9375	35584.0	-0.1925	444.0	-17.0	0.7955465587044535	166.0	-0.7267206477732794	-0.6728857623489831	4046.0	121.0	-1.3556774341183926	-95.0	-63.24817392947392	
9.723867414024875	2085.0	1981.0	0.9581699739160232	-0.6305858781886596	1266.0	0.0	3105.46875	36224.0	-0.24	425.0	-15.0	0.7995951417004049	166.0	-0.7267206477732794	4.725493194678085	3663.0	116.0	-1.553450943035267	-448.0	-57.37321442350125	
9.496597563130386	2062.0	1990.0	0.8502325035147577	-0.35790889237069007	1285.0	0.0	3125.0	36864.0	-0.24	425.0	-15.0	0.7995951417004049	166.0	-0.7267206477732794	3.5785288270377738	3579.0	46.0	-0.44381527623407285	-373.0	-56.07318143955075	
9.67528391964073	2086.0	1989.0	0.8617252974064011	-0.6450487994337778	1270.0	0.0	3144.53125	37504.0	-0.24	425.0	-15.0	0.7995951417004049	166.0	-0.7267206477732794	1.0705000764642914	3668.0	32.0	-0.11451898099790869	-209.0	-57.4355475221715	
9.710492581287296	2077.0	1993.0	0.811162890634384	-0.5372742260129936	1267.0	0.0	3164.0625	38144.0	-0.28250000000000003	408.0	-22.0	0.7854251012145749	164.0	-0.7226720647773279	6.040679002905644	3518.0	59.0	-0.7515998753425633	-534.0	-55.140245782396214	
9.499560553637076	2093.0	1966.0	1.146531554183744	-0.7254472573558579	1285.0	0.0	3183.59375	38784.0	-0.28250000000000003	408.0	-22.0	0.7854251012145749	164.0	-0.7226720647773279	6.270071876433706	3585.0	76.0	-1.0119669805635985	-549.0	-56.17092985854279	
9.726445428140128	2100.0	1960.0	1.2159713854412741	-0.8061269613832672	1266.0	0.0	3203.125	39424.0	-0.28250000000000003	408.0	-22.0	0.7854251012145749	164.0	-0.7226720647773279	4.11377886526992	3553.0	139.0	-1.8996184094863326	-408.0	-55.688782895772015	
9.677130519735933	2101.0	1974.0	1.046385306926539	-0.8220600248086881	1270.0	0.0	3222.65625	40064.0	-0.28250000000000003	408.0	-22.0	0.7854251012145749	164.0	-0.7226720647773279	8.166386297599022	3523.0	191.0	-2.8661063450922954	-673.0	-55.238113265384335	
9.65453998574379	2097.0	1964.0	1.168284288664785	-0.7716551794295072	1272.0	0.0	3242.1875	40704.0	-0.3175	394.0	-32.0	0.7651821862348178	163.0	-0.7206477732793523	7.9217005658357555	3538.0	264.0	-3.9768103414628566	-657.0	-55.47938756021991	
9.620162962399862	2088.0	1953.0	1.3020105257006078	-0.6608906899824711	1275.0	0.0	3261.71875	41344.0	-0.3175	394.0	-32.0	0.7651821862348178	163.0	-0.7206477732793523	5.612478972319927	3557.0	236.0	-3.450875650522239	-506.0	-55.76567340281488	
9.750484338136312	2092.0	1958.0	1.2389100041073697	-0.7090422577413088	1264.0	0.0	3281.25	41984.0	-0.3175	394.0	-32.0	0.7651821862348178	163.0	-0.7206477732793523	2.003364428811745	3665.0	212.0	-2.9208180589554065	-270.0	-57.4175770619767	
9.761530983113678	2090.0	1965.0	1.1530983113679143	-0.6865516396041556	1263.0	0.0	3300.78125	42624.0	-0.3575	378.0	-16.0	0.7975708502024291	159.0	-0.7125506072874495	2.0645358617525615	3681.0	253.0	-3.5514189430755922	-274.0	-57.6693948093479	
9.619932405426233	2099.0	1955.0	1.2789548283376306	-0.7938842299813946	1275.0	0.0	3320.3125	43264.0	-0.3575	378.0	-16.0	0.7975708502024291	159.0	-0.7125506072874495	7.187643370545956	3710.0	301.0	-4.490147416788875	-609.0	-58.123772120170656	
9.513402522003604	2084.0	1950.0	1.340252200360456	-0.6130006898088993	1284.0	0.0	3339.84375	43904.0	-0.3575	378.0	-16.0	0.7975708502024291	159.0	-0.7125506072874495	5.826578987612786	3604.0	249.0	-3.652176849196998	-520.0	-56.48887714673349	
9.653907591669988	2078.0	1969.0	1.105044881284541	-0.5440106288672477	1272.0	0.0	3359.375	44544.0	-0.39	365.0	-12.0	0.805668016194332	161.0	-0.7165991902834008	0.7034714788193914	3776.0	190.0	-2.513421228312945	-185.0	-59.116740779722136	
9.701294945077809	2096.0	1971.0	1.0818754601616245	-0.7608676136351461	1268.0	0.0	3378.90625	45184.0	-0.39	365.0	-12.0	0.805668016194332	161.0	-0.7165991902834008	2.9515216393944033	3904.0	287.0	-4.075624217178994	-332.0	-61.09645671785079	
9.630358699693181	2088.0	1967.0	1.131108064556168	-0.6642067818324268	1274.0	0.0	3398.4375	45824.0	-0.39	365.0	-12.0	0.805668016194332	161.0	-0.7165991902834008	10.827343630524545	3792.0	402.0	-6.176591443549162	-847.0	-59.398884220404504	
9.394133812926214	2083.0	1952.0	1.3181431973833568	-0.6025873641881309	1294.0	0.0	3417.96875	46464.0	-0.39	365.0	-12.0	0.805668016194332	161.0	-0.7165991902834008	11.530815109343937	3731.0	400.0	-6.183325266581517	-893.0	-58.462938055489204	
9.440151336558488	2077.0	1965.0	1.157990798705965	-0.5330410802988501	1290.0	0.0	3437.5	47104.0	-0.4275	350.0	-13.0	0.8036437246963563	149.0	-0.6923076923076923	8.426364887597492	3766.0	414.0	-6.2691195933856525	-690.0	-59.000852926791616	
9.55917503662619	2077.0	1965.0	1.1555989007142027	-0.5318986812580083	1280.0	0.0	3457.03125	47744.0	-0.4275	350.0	-13.0	0.8036437246963563	149.0	-0.6923076923076923	5.505428964673498	3929.0	470.0	-6.988604637149642	-499.0	-61.50919861350362	
9.548629248695244	2090.0	1954.0	1.2914962980957938	-0.6859126972137822	1281.0	0.0	3476.5625	48384.0	-0.4275	350.0	-13.0	0.8036437246963563	149.0	-0.6923076923076923	5.91833613702401	4083.0	562.0	-8.396516525421724	-526.0	-63.88632821573758	
9.654267276998324	2073.0	1966.0	1.141013414117979	-0.483046697501874	1272.0	0.0	3496.09375	49024.0	-0.4675	334.0	-18.0	0.7935222672064778	131.0	-0.6558704453441295	4.710200336442882	4050.0	629.0	-9.3837667232666	-447.0	-63.3898327569979	
9.746932309663997	2078.0	1987.0	0.883707156875792	-0.5475071361754826	1264.0	0.0	3515.625	49664.0	-0.4675	334.0	-18.0	0.7935222672064778	131.0	-0.6558704453441295	4.664321761737269	4196.0	654.0	-9.74404882804671	-444.0	-65.63373019213195	
9.795405945074847	2087.0	1980.0	0.9691659360561319	-0.6537469591775265	1260.0	0.0	3535.15625	50304.0	-0.4675	334.0	-18.0	0.7935222672064778	131.0	-0.6558704453441295	6.132436152316869	4216.0	681.0	-10.214978133896931	-540.0	-65.94532915835293	
9.736740185379693	2081.0	1973.0	1.054970918921703	-0.5803283604906606	1265.0	0.0	3554.6875	50944.0	-0.4675	334.0	-18.0	0.7935222672064778	131.0	-0.6558704453441295	6.927664780547485	4092.0	645.0	-9.712103766346656	-592.0	-64.03758444106995	
9.842402300409535	2084.0	1985.0	0.9068967076203618	-0.618377801879642	1256.0	0.0	3574.21875	51584.0	-0.495	323.0	-9.0	0.8117408906882592	106.0	-0.6052631578947368	4.587857470561248	4174.0	597.0	-8.867665494704934	-439.0	-65.28738771831976	
9.973213694165363	2090.0	1986.0	0.8927979879648464	-0.6896408189617	1245.0	0.0	3593.75	52224.0	-0.495	323.0	-9.0	0.8117408906882592	106.0	-0.6052631578947368	5.276036091145436	4227.0	634.0	-9.45614442403368	-484.0	-66.10653014149369	
9.877986303756835	2083.0	1986.0	0.8938684709214906	-0.6062343338090621	1253.0	0.0	3613.28125	52864.0	-0.495	323.0	-9.0	0.8117408906882592	106.0	-0.6052631578947368	8.22755773053984	4183.0	692.0	-10.473025609618114	-677.0	-65.44154167239202	
9.88987060871853	2068.0	1986.0	0.8918227766149591	-0.42543351307931065	1252.0	0.0	3632.8125	53504.0	-0.5375	306.0	-7.0	0.8157894736842105	83.0	-0.5587044534412956	7.875821991130143	4180.0	720.0	-10.890077778108658	-654.0	-65.39967874310257	
9.72204249198376	2088.0	1996.0	0.7756777698047117	-0.67039854980455	1266.0	0.0	3652.34375	54144.0	-0.5375	306.0	-7.0	0.8157894736842105	83.0	-0.5587044534412956	5.627771830555131	4347.0	703.0	-10.513069953717649	-507.0	-67.9584374357655	
9.87678173242614	2095.0	1996.0	0.7734113378521863	-0.7532338354367671	1253.0	0.0	3671.875	54784.0	-0.5375	306.0	-7.0	0.8157894736842105	83.0	-0.5587044534412956	1.6516286894020493	4305.0	673.0	-9.899062845375164	-247.0	-67.30782905104086	
10.090653868192625	2091.0	1999.0	0.7320534859291628	-0.7037295000332253	1235.0	0.0	3691.40625	55424.0	-0.5675	294.0	1.0	0.8319838056680162	65.0	-0.5222672064777328	1.988071570576541	4242.0	653.0	-9.614571056809881	-269.0	-66.3382816626933	
10.030146325747623	2074.0	2007.0	0.6336801938098906	-0.5014827641916272	1240.0	0.0	3710.9375	56064.0	-0.5675	294.0	1.0	0.8319838056680162	65.0	-0.5222672064777328	7.417036244074018	4138.0	659.0	-9.939948862282403	-624.0	-64.74570914030306	
9.780318457942125	2074.0	2006.0	0.6508934132601106	-0.5036367784806777	1261.0	0.0	3730.46875	56704.0	-0.5675	294.0	1.0	0.8319838056680162	65.0	-0.5222672064777328	8.518122037008718	4187.0	657.0	-9.945708423281635	-696.0	-65.49764643516116	
9.802298275914552	2077.0	2021.0	0.4679228295504466	-0.5432209702883997	1259.0	0.0	3750.0	57344.0	-0.5675	294.0	1.0	0.8319838056680162	65.0	-0.5222672064777328	4.985471784676556	4251.0	604.0	-8.979419381657603	-465.0	-66.47003049886493	
10.087613535793775	2097.0	2024.0	0.4280202460441338	-0.7821297247814204	1235.0	0.0	3769.53125	57984.0	-0.595	283.0	7.0	0.8441295546558705	40.0	-0.4716599190283401	2.6150787582199118	4352.0	656.0	-9.66891372467925	-310.0	-68.02671829176575	
10.063918654753527	2087.0	2023.0	0.4394845229717683	-0.661655460342427	1237.0	0.0	3789.0625	58624.0	-0.595	283.0	7.0	0.8441295546558705	40.0	-0.4716599190283401	7.447621960544426	4122.0	665.0	-10.035911305390929	-626.0	-64.50115702620414	
9.945378951023512	2084.0	2019.0	0.4902760547321351	-0.6256804484312666	1247.0	0.0	3808.59375	59264.0	-0.595	283.0	7.0	0.8441295546558705	40.0	-0.4716599190283401	7.524086251720448	4058.0	613.0	-9.248992096491138	-631.0	-63.51124087999515	
10.19520079714732	2079.0	2020.0	0.4724606671127968	-0.5632975738669938	1226.0	0.0	3828.125	59904.0	-0.6125	276.0	8.0	0.8461538461538461	18.0	-0.4271255060728745	2.8597644899831782	4042.0	505.0	-7.40377598546106	-326.0	-63.24727698035485	
10.267001197915715	2096.0	2017.0	0.5096436010952984	-0.7666551882880935	1220.0	0.0	3847.65625	60544.0	-0.6125	276.0	8.0	0.8461538461538461	18.0	-0.4271255060728745	3.670285976448999	4092.0	412.0	-5.99811602280171	-379.0	-64.0004445636345	
10.17214071885355	2090.0	2014.0	0.5474052186883227	-0.6945594041003486	1228.0	0.0	3867.1875	61184.0	-0.6125	276.0	8.0	0.8461538461538461	18.0	-0.4271255060728745	5.551307539379111	3941.0	388.0	-5.727380155994477	-502.0	-61.68072017258957	
10.088316045741708	2073.0	2018.0	0.4982712408374785	-0.4915610532800502	1235.0	0.0	3886.71875	61824.0	-0.6125	276.0	8.0	0.8461538461538461	18.0	-0.4271255060728745	4.970178926441353	3855.0	318.0	-4.6406825152519415	-464.0	-60.3502276015834	
9.9572692776669	2074.0	2019.0	0.48883252859472204	-0.5051084879767377	1246.0	0.0	3906.25	62464.0	-0.645	263.0	14.0	0.8582995951417004	6.0	-0.402834008097166	4.083193148799511	3927.0	247.0	-3.502129240420027	-406.0	-61.44364489222007	
10.053349984432156	2081.0	2012.0	0.5730936813107097	-0.5867998072523558	1238.0	0.0	3925.78125	63104.0	-0.645	263.0	14.0	0.8582995951417004	6.0	-0.402834008097166	1.5904572564612327	4021.0	222.0	-3.0034896319290336	-243.0	-62.8810399599989	
10.076904898090653	2076.0	2014.0	0.5476326662082012	-0.5268325145623992	1236.0	0.0	3945.3125	63744.0	-0.645	263.0	14.0	0.8582995951417004	6.0	-0.402834008097166	3.410307386450528	3912.0	248.0	-3.4928986544181737	-362.0	-61.21338533148818	
10.101086184141264	2085.0	2011.0	0.5848088903168183	-0.6342809121594799	1234.0	0.0	3964.84375	64384.0	-0.66	257.0	20.0	0.8704453441295547	-7.0	-0.3765182186234818	7.539379109955651	3940.0	287.0	-4.253596704635774	-632.0	-61.65063785441785	
9.970263951358394	2070.0	2010.0	0.5978237072679207	-0.45460594658202147	1245.0	0.0	3984.375	65024.0	-0.66	257.0	20.0	0.8704453441295547	-7.0	-0.3765182186234818	9.894479278177092	3826.0	274.0	-4.165333013601766	-786.0	-59.90048408048128	
9.802911400606943	2080.0	2016.0	0.5292352987895118	-0.5781331679699475	1259.0	0.0	4003.90625	128.0	-0.66	257.0	20.0	0.8704453441295547	-7.0	-0.3765182186234818	8.900443492888822	3872.0	208.0	-3.1033908875241663	-721.0	-60.595710907494244	
9.602281356214318	2083.0	2002.0	0.7043260976222427	-0.6127822307504722	1276.0	0.0	4023.4375	768.0	-0.6675	254.0	16.0	0.8623481781376519	-21.0	-0.3481781376518219	7.631136259366876	3937.0	165.0	-2.381280192829138	-638.0	-61.58588123832541	
9.877021924090476	2092.0	1994.0	0.797430504285753	-0.7166064718781994	1253.0	0.0	4042.96875	1408.0	-0.6675	254.0	16.0	0.8623481781376519	-21.0	-0.3481781376518219	3.502064535861753	3930.0	193.0	-2.6478677477635433	-368.0	-61.48113572826788	
9.911390517080035	2094.0	2005.0	0.6628612318131644	-0.7430505569399243	1250.0	0.0	4062.5	2048.0	-0.6675	254.0	16.0	0.8623481781376519	-21.0	-0.3481781376518219	6.040679002905644	3960.0	242.0	-3.498454118065392	-534.0	-61.94997610171465	
9.758118922023112	2091.0	1993.0	0.8118922023112105	-0.7054580751672795	1263.0	0.0	4082.03125	2688.0	-0.6675	254.0	16.0	0.8623481781376519	-21.0	-0.3481781376518219	9.175714941122497	3844.0	262.0	-3.9492550542396123	-739.0	-60.1745240067339	
9.901321499468748	2098.0	1990.0	0.8464356611604178	-0.7876725296134295	1251.0	0.0	4101.5625	3328.0	-0.6725	252.0	12.0	0.854251012145749	-44.0	-0.3016194331983806	8.059336289952594	3920.0	207.0	-3.0470046369910837	-666.0	-61.33168226057891	
9.768563281335133	2095.0	2005.0	0.6658519430371029	-0.7564672078439789	1262.0	0.0	4121.09375	3968.0	-0.6725	252.0	12.0	0.854251012145749	-44.0	-0.3016194331983806	7.600550542896468	3965.0	147.0	-2.0989080660325614	-636.0	-62.01270305948495	
9.827454780658563	2086.0	2010.0	0.6026209229992144	-0.6487091783117432	1257.0	0.0	4140.625	4608.0	-0.6725	252.0	12.0	0.854251012145749	-44.0	-0.3016194331983806	8.151093439363818	3902.0	117.0	-1.6691723136275056	-672.0	-61.04170323149903	
9.839364376683362	2092.0	2010.0	0.6031043350029803	-0.720869570737926	1256.0	0.0	4160.15625	5248.0	-0.68	249.0	22.0	0.8744939271255061	-74.0	-0.2408906882591093	8.074629148187798	3994.0	106.0	-1.482810715442152	-667.0	-62.45153211206466	
9.64843162121031	2086.0	2014.0	0.5574478353167828	-0.6514028716598743	1272.0	0.0	4179.6875	5888.0	-0.68	249.0	22.0	0.8744939271255061	-74.0	-0.2408906882591093	9.206300657592905	3913.0	122.0	-1.786592211588414	-741.0	-61.21166675071801	
9.528438724130899	2091.0	2022.0	0.462920032137513	-0.7147343205496757	1282.0	0.0	4199.21875	6528.0	-0.68	249.0	22.0	0.8744939271255061	-74.0	-0.2408906882591093	8.732222052301577	3897.0	118.0	-1.7085629921448575	-710.0	-60.96537471999358	
9.68243089418083	2085.0	2028.0	0.3859465609401666	-0.6424447116466172	1269.0	0.0	4218.75	7168.0	-0.68	249.0	22.0	0.8744939271255061	-74.0	-0.2408906882591093	5.91833613702401	3925.0	98.0	-1.2841085678561694	-526.0	-61.39077571817818	
9.62194984713527	2090.0	2036.0	0.29022280876501555	-0.7052049610159976	1274.0	0.0	4238.28125	7808.0	-0.6825	248.0	24.0	0.8785425101214575	-92.0	-0.20445344129554657	4.358464597033186	3856.0	130.0	-1.7244893262179892	-424.0	-60.33641015335119	
9.693138327547613	2105.0	2038.0	0.2662137071422756	-0.885696149810594	1268.0	0.0	4257.8125	8448.0	-0.6825	248.0	24.0	0.8785425101214575	-92.0	-0.20445344129554657	5.398378957027069	3939.0	192.0	-2.7069511638545287	-492.0	-61.619826915351915	
9.66932154417069	2095.0	2038.0	0.26548775040239125	-0.7654669090683175	1270.0	0.0	4277.34375	9088.0	-0.6825	248.0	24.0	0.8785425101214575	-92.0	-0.20445344129554657	7.2488148034867725	3736.0	289.0	-4.304036332846346	-613.0	-58.52086758444248	
9.704919999554047	2106.0	2039.0	0.2539047173094042	-0.8978727056582714	1267.0	0.0	4296.875	9728.0	-0.6775	250.0	30.0	0.8906882591093117	-119.0	-0.14979757085020243	10.628536473466893	3669.0	401.0	-6.1721310693189855	-834.0	-57.511468126712835	
9.717067378570505	2107.0	2037.0	0.27816642847908934	-0.9093141904157975	1266.0	0.0	4316.40625	10368.0	-0.6775	250.0	30.0	0.8906882591093117	-119.0	-0.14979757085020243	11.072029362287813	3645.0	375.0	-5.793652837768467	-863.0	-57.13941573660233	
