Device	Device	Device	Device	Device	Device	Device	Device	Device	Device	Device	Device	Device	Device	Device	Device	Device	Device	Device	Device	Device	
Low Noise Accelerometer X	Low Noise Accelerometer X	Low Noise Accelerometer Z	Low Noise Accelerometer Z	Low Noise Accelerometer Y	Low Noise Accelerometer Y	Event_Marker	Timestamp	Timestamp	Magnetometer Z	Magnetometer Z	Magnetometer X	Magnetometer X	Magnetometer Y	Magnetometer Y	Gyroscope Y	Gyroscope Y	Gyroscope Z	Gyroscope Z	Gyroscope X	Gyroscope X	
UNCAL	CAL	CAL	UNCAL	UNCAL	CAL	CAL	CAL	UNCAL	CAL	UNCAL	CAL	UNCAL	UNCAL	CAL	UNCAL	CAL	CAL	UNCAL	CAL	UNCAL	
no units	m/(s^2)	m/(s^2)	no units	no units	m/(s^2)	no units	ms	no units	local_flux	no units	local_flux	no units	no units	local_flux	no units	deg/s	deg/s	no units	deg/s	no units	
2013.0	10.12228832185567	1.5145464712812875	1934.0	1233.0	0.2519957403550258	0.0	1705.352783203125	55881.0	0.4925	718.0	0.7672064777327935	-31.0	-409.0	0.43724696356275305	-16.0	-0.9940357852882705	-5.626672494467115	359.0	-0.9615912607740406	-74.0	
2011.0	9.873555166407572	1.64123092647153	1924.0	1254.0	0.27613848344651837	0.0	1724.884033203125	56521.0	0.4925	718.0	0.7672064777327935	-31.0	-409.0	0.43724696356275305	-87.0	7.952286282306164	-5.595484608352312	333.0	0.12817895781397576	-659.0	
2008.0	9.470089996535124	1.7709044154172395	1914.0	1288.0	0.3108418798399611	0.0	1744.415283203125	57161.0	0.4875	716.0	0.757085020242915	-36.0	-423.0	0.46558704453441296	-97.0	4.694907478207678	-5.17450327387668	314.0	0.2858336077399811	-446.0	
2005.0	9.567011976293724	1.939292867467622	1900.0	1280.0	0.35132344699180773	0.0	1763.946533203125	57801.0	0.4875	716.0	0.757085020242915	-36.0	-423.0	0.46558704453441296	-90.0	-1.4834072488148036	-4.864798545873365	310.0	0.18151926941313995	-42.0	
2000.0	9.755859144343578	1.776390624833939	1913.0	1264.0	0.4101948376750543	0.0	1783.477783203125	58441.0	0.4875	716.0	0.757085020242915	-36.0	-423.0	0.46558704453441296	15.0	-4.205536014681145	-4.047682199216933	265.0	-1.4214803512234109	136.0	
1996.0	10.115119669261482	1.9881574023386959	1895.0	1234.0	0.46621554955866584	0.0	1803.009033203125	59081.0	0.4925	718.0	0.7307692307692307	-49.0	-419.0	0.4574898785425101	77.0	2.553907325279095	-4.323900979954018	266.0	-2.375600525834526	-306.0	
1992.0	9.735214230392886	2.0928516107171915	1887.0	1266.0	0.5127031504218872	0.0	1822.540283203125	59721.0	0.4925	718.0	0.7307692307692307	-49.0	-419.0	0.4574898785425101	81.0	6.239486159963298	-3.57861444733068	208.0	-2.4295255951407926	-547.0	
1988.0	9.699502303027222	2.0930874455794255	1887.0	1269.0	0.5605435189298126	0.0	1842.071533203125	60361.0	0.4925	718.0	0.7307692307692307	-49.0	-419.0	0.4574898785425101	102.0	1.91160727940052	-2.633259041841164	158.0	-2.7423061979065197	-264.0	
1983.0	9.75754530333928	1.9450065244042003	1899.0	1264.0	0.6184032943648503	0.0	1861.602783203125	61001.0	0.4925	718.0	0.7307692307692307	-49.0	-419.0	0.4574898785425101	198.0	0.0	-2.1421746837846882	132.0	-4.210465785505947	-139.0	
1979.0	9.889563677098476	2.0516058050856363	1890.0	1253.0	0.6700482348004083	0.0	1881.134033203125	61641.0	0.495	719.0	0.757085020242915	-36.0	-429.0	0.4777327935222672	327.0	1.131671509405108	-2.3829745646408433	146.0	-6.19231217621262	-213.0	
1978.0	9.818635862068218	2.101681444916945	1886.0	1259.0	0.6823886622178161	0.0	1900.665283203125	62281.0	0.495	719.0	0.757085020242915	-36.0	-429.0	0.4777327935222672	404.0	4.649028903502065	-2.8348356484601096	167.0	-7.378356028726431	-443.0	
1980.0	9.783418770067286	2.1514008162521967	1882.0	1262.0	0.6589344931823433	0.0	1920.196533203125	62921.0	0.495	719.0	0.757085020242915	-36.0	-429.0	0.4777327935222672	438.0	3.027985930570424	-2.241839642616909	133.0	-7.894138513044245	-337.0	
1975.0	9.747218029018581	2.1027552828105316	1886.0	1265.0	0.7178405389584446	0.0	1939.727783203125	63561.0	0.4975	720.0	0.7530364372469636	-38.0	-418.0	0.45546558704453444	513.0	-2.8597644899831782	-1.6410896137039626	110.0	-9.038967287114485	48.0	
1977.0	9.985267837826662	2.0982123540946542	1886.0	1245.0	0.6960337929300392	0.0	1959.259033203125	64201.0	0.4975	720.0	0.7530364372469636	-38.0	-418.0	0.45546558704453444	587.0	0.04587857470561248	-1.638284956656698	103.0	-10.174431031245254	-142.0	
1981.0	10.09275969224297	2.133112081439919	1883.0	1236.0	0.6496139349367702	0.0	1978.790283203125	64841.0	0.4975	720.0	0.7530364372469636	-38.0	-418.0	0.45546558704453444	621.0	10.812050772289341	-2.4481899517364503	128.0	-10.7042425255723	-846.0	
1979.0	9.401810311494248	2.0857930541869	1888.0	1294.0	0.6658544461263913	0.0	1998.321533203125	65481.0	0.4975	720.0	0.7530364372469636	-38.0	-418.0	0.45546558704453444	662.0	12.448386603456187	-3.2302396392995236	175.0	-11.34118685243105	-953.0	
1980.0	9.805516877367372	1.9802591653085804	1896.0	1260.0	0.6557326412364718	0.0	2017.852783203125	585.0	0.5175	728.0	0.7267206477732794	-51.0	-424.0	0.4676113360323887	743.0	4.939593209970944	-2.9328708575599935	176.0	-12.581116340921774	-462.0	
1985.0	9.62674354427416	1.9600687131303047	1898.0	1275.0	0.5933001350065525	0.0	2037.384033203125	1225.0	0.5175	728.0	0.7267206477732794	-51.0	-424.0	0.4676113360323887	783.0	3.5479431105673656	-3.7939158887047033	236.0	-13.203506137558215	-371.0	
1992.0	9.662580986985514	1.972384412837061	1897.0	1272.0	0.5095674740302107	0.0	2056.915283203125	1865.0	0.5175	728.0	0.7267206477732794	-51.0	-424.0	0.4676113360323887	807.0	2.202171585869399	-3.7364081024174634	236.0	-13.571198667490341	-283.0	
1999.0	9.747003128417349	2.0812652226872626	1888.0	1265.0	0.42825196224394285	0.0	2076.446533203125	2505.0	0.53	733.0	0.7348178137651822	-47.0	-420.0	0.45951417004048584	765.0	4.3278788805627775	-4.30467396618363	267.0	-12.932413012486755	-422.0	
1995.0	9.438024300242674	2.1357633576006254	1884.0	1291.0	0.47444490774480064	0.0	2095.977783203125	3145.0	0.53	733.0	0.7348178137651822	-47.0	-420.0	0.45951417004048584	674.0	5.704236121731152	-5.035055399861729	310.0	-11.54336881393417	-512.0	
1994.0	9.533729665307197	2.1824903402434668	1880.0	1283.0	0.4883846938193871	0.0	2115.509033203125	3785.0	0.53	733.0	0.7348178137651822	-47.0	-420.0	0.45951417004048584	600.0	2.477443034103074	-5.1788224486001235	327.0	-10.409314693720312	-301.0	
1994.0	9.699753333718602	2.1181905147174054	1885.0	1269.0	0.48875893399298	0.0	2135.040283203125	4425.0	0.535	735.0	0.7449392712550608	-42.0	-413.0	0.44534412955465585	658.0	1.330478666462762	-6.077653621112338	389.0	-11.308283057616679	-226.0	
1993.0	9.784165840459734	2.2261078554970175	1876.0	1262.0	0.5038095986470678	0.0	2154.571533203125	5065.0	0.535	735.0	0.7449392712550608	-42.0	-413.0	0.44534412955465585	684.0	6.790029056430647	-7.276390125935825	453.0	-11.719226997776161	-583.0	
1990.0	9.451871085954554	2.329965738312632	1868.0	1290.0	0.5387083870715813	0.0	2174.102783203125	5705.0	0.535	735.0	0.7449392712550608	-42.0	-413.0	0.44534412955465585	632.0	7.401743385838814	-7.693352356510992	478.0	-10.925483469859419	-623.0	
1986.0	9.475061496939366	2.2680544558413906	1873.0	1288.0	0.585894836616342	0.0	2193.634033203125	6345.0	0.535	735.0	0.7449392712550608	-42.0	-413.0	0.44534412955465585	610.0	0.41290717235051233	-7.094207382293143	457.0	-10.581913379638493	-166.0	
1981.0	9.771639506733527	2.1639506733527156	1881.0	1263.0	0.6470195049199318	0.0	2213.165283203125	6985.0	0.545	739.0	0.6963562753036437	-66.0	-404.0	0.4271255060728745	603.0	-1.9727787123413367	-7.630472638512181	498.0	-10.479864646593807	-10.0	
1982.0	10.02329711392549	2.3297113925491018	1867.0	1242.0	0.6408031026046948	0.0	2232.696533203125	7625.0	0.545	739.0	0.6963562753036437	-66.0	-404.0	0.4271255060728745	593.0	6.4841718917265645	-8.247103927837943	516.0	-10.332586122905814	-563.0	
1974.0	9.690508728391922	2.3842061725255226	1863.0	1270.0	0.7349506565175622	0.0	2252.227783203125	8265.0	0.545	739.0	0.6963562753036437	-66.0	-404.0	0.4271255060728745	540.0	11.653157975225572	-8.615781568600502	526.0	-9.523015265432823	-901.0	
1973.0	9.452825830930205	2.42544023587778	1860.0	1290.0	0.7454467015810745	0.0	2271.759033203125	8905.0	0.5625	746.0	0.6983805668016194	-65.0	-396.0	0.4109311740890688	486.0	6.881786205841872	-8.171758890227	509.0	-8.689972921110343	-589.0	
1972.0	9.583384989658315	2.3861180134504614	1863.0	1279.0	0.7580140414908936	0.0	2291.290283203125	9545.0	0.5625	746.0	0.6983805668016194	-65.0	-396.0	0.4109311740890688	472.0	-1.896314421165316	-7.7766758545080625	506.0	-8.471199319539403	-15.0	
1970.0	9.832966644117784	2.3442834593975563	1866.0	1258.0	0.7837695524965987	0.0	2310.821533203125	10185.0	0.5625	746.0	0.6983805668016194	-65.0	-396.0	0.4109311740890688	519.0	-0.7952286282306164	-7.413605214965624	480.0	-9.188759345075852	-87.0	
1971.0	9.690992724729607	2.4326058062941267	1859.0	1270.0	0.7720680674695641	0.0	2330.352783203125	10825.0	0.5625	746.0	0.6983805668016194	-65.0	-396.0	0.4109311740890688	537.0	7.998164857011776	-8.100919691334534	502.0	-9.471833195685788	-662.0	
1962.0	9.441641627243767	2.497496057710009	1854.0	1291.0	0.8793060964627823	0.0	2349.884033203125	11465.0	0.5625	746.0	0.7004048582995952	-64.0	-401.0	0.42105263157894735	557.0	8.48753632053831	-8.0251397378306	496.0	-9.777965069313247	-694.0	
1958.0	9.596123815313076	2.4695243884503855	1856.0	1278.0	0.9284842560426204	0.0	2369.415283203125	12105.0	0.5625	746.0	0.7004048582995952	-64.0	-401.0	0.42105263157894735	594.0	1.039914359993883	-6.952552214968254	446.0	-10.334985089435245	-207.0	
1960.0	9.596857638005803	2.542906657723146	1850.0	1278.0	0.9058628541128342	0.0	2388.946533203125	12745.0	0.5625	746.0	0.7004048582995952	-64.0	-401.0	0.42105263157894735	591.0	-1.6210429729316411	-6.47744779336825	422.0	-10.284200594244869	-33.0	
1958.0	9.360026852564477	2.6693519231142115	1840.0	1298.0	0.930119837108411	0.0	2408.477783203125	13385.0	0.5775	752.0	0.6417004048582996	-93.0	-399.0	0.41700404858299595	547.0	-1.5598715399908245	-7.040350893037822	458.0	-9.614672344284068	-37.0	
1956.0	9.620901365347342	2.566327010924536	1848.0	1276.0	0.9547644695346148	0.0	2428.009033203125	14025.0	0.5775	752.0	0.6417004048582996	-93.0	-399.0	0.41700404858299595	535.0	-4.618443187031657	-7.165952787162341	474.0	-9.431794559327816	163.0	
1955.0	9.97760555420408	2.5224601823128685	1851.0	1246.0	0.969502367622033	0.0	2447.540283203125	14665.0	0.5775	752.0	0.6417004048582996	-93.0	-399.0	0.41700404858299595	582.0	0.5964214711729623	-7.997924473278862	515.0	-10.161305008120852	-178.0	
1950.0	9.561504191632135	2.578990591784994	1847.0	1281.0	1.026712926041178	0.0	2467.071533203125	15305.0	0.5925	758.0	0.6518218623481782	-88.0	-416.0	0.451417004048583	574.0	13.105979507569966	-9.576133954414365	585.0	-10.054331233667208	-996.0	
1957.0	9.5150002629895	2.6905024894261342	1838.0	1285.0	0.944140775309984	0.0	2486.602783203125	15945.0	0.5925	758.0	0.6518218623481782	-88.0	-416.0	0.451417004048583	568.0	12.463679461691392	-9.797456471503592	601.0	-9.96447755688935	-954.0	
1954.0	9.562606130007566	2.689184429327958	1838.0	1281.0	0.9807350510914542	0.0	2506.134033203125	16585.0	0.5925	758.0	0.6518218623481782	-88.0	-416.0	0.451417004048583	540.0	8.548707753479126	-8.983798722328455	558.0	-9.526695436970101	-698.0	
1959.0	9.503100301655405	2.690982546492958	1838.0	1286.0	0.9199349912958108	0.0	2525.665283203125	17225.0	0.5925	758.0	0.6518218623481782	-88.0	-416.0	0.451417004048583	535.0	5.0007646429117605	-8.750378070845091	552.0	-9.447638812164644	-466.0	
1955.0	9.49180262598666	2.7516911700944338	1833.0	1287.0	0.9692289580954903	0.0	2545.196533203125	17865.0	0.6025	762.0	0.645748987854251	-91.0	-419.0	0.4574898785425101	588.0	2.3092215935158285	-8.51154966429281	544.0	-10.258508161979742	-290.0	
1954.0	9.634873666404912	2.773080926205533	1831.0	1275.0	0.9831356563929792	0.0	2564.727783203125	18505.0	0.6025	762.0	0.645748987854251	-91.0	-419.0	0.4574898785425101	688.0	-1.988071570576541	-7.939814405477197	519.0	-11.787239175204075	-9.0	
1955.0	9.765313331469022	2.7218093373783425	1835.0	1264.0	0.971366428495992	0.0	2584.259033203125	19145.0	0.6025	762.0	0.645748987854251	-91.0	-419.0	0.4574898785425101	792.0	-2.64566447469032	-7.266947508721606	478.0	-13.376336806681511	34.0	
1957.0	9.729364825448037	2.698387306708481	1837.0	1267.0	0.9464421172802162	0.0	2603.790283203125	19785.0	0.6125	766.0	0.6032388663967612	-112.0	-417.0	0.4534412955465587	856.0	3.027985930570424	-6.807300069204162	434.0	-14.353787286406329	-337.0	
1951.0	9.575358203362047	2.773915574299943	1831.0	1280.0	1.0187017730376915	0.0	2623.321533203125	20425.0	0.6125	766.0	0.6032388663967612	-112.0	-417.0	0.4534412955465587	873.0	7.661721975837285	-6.713169881885522	416.0	-14.613702206721266	-640.0	
1951.0	9.409578339623991	2.8625958671610423	1824.0	1294.0	1.018817580257533	0.0	2642.852783203125	21065.0	0.6125	766.0	0.6032388663967612	-112.0	-417.0	0.4534412955465587	902.0	7.27940051995718	-6.724190519095314	418.0	-15.058802439178987	-615.0	
1953.0	9.409093138949967	2.8140757997586143	1828.0	1294.0	0.9937459413605756	0.0	2662.384033203125	21705.0	0.6125	766.0	0.6032388663967612	-112.0	-417.0	0.4534412955465587	929.0	2.079828719987766	-6.096806655006005	391.0	-15.466829659307466	-275.0	
1955.0	9.647874361778097	2.88267427304785	1822.0	1274.0	0.9734093375124728	0.0	2681.915283203125	22345.0	0.6225	770.0	0.597165991902834	-115.0	-416.0	0.451417004048583	977.0	0.8411072029362289	-6.178324530343592	400.0	-16.204180053650838	-194.0	
1951.0	9.563090126345251	2.737584063096563	1834.0	1281.0	1.0178524620434561	0.0	2701.446533203125	22985.0	0.6225	770.0	0.597165991902834	-115.0	-416.0	0.451417004048583	1001.0	8.4569506040679	-7.525133833546102	468.0	-16.58591575447786	-692.0	
1955.0	9.455973613629672	2.7402185058244437	1834.0	1290.0	0.9686412146865205	0.0	2720.977783203125	23625.0	0.6225	770.0	0.597165991902834	-115.0	-416.0	0.451417004048583	1053.0	10.414436458174034	-7.072502937214999	434.0	-17.379302595737045	-820.0	
1954.0	9.348851079232404	2.7422507803832064	1834.0	1299.0	0.9796588276048074	0.0	2740.509033203125	24265.0	0.645	779.0	0.5850202429149798	-121.0	-390.0	0.39878542510121456	1103.0	6.331243309374523	-6.593905851446794	414.0	-18.141740807785606	-553.0	
1957.0	9.288001916504141	2.6097154599378514	1845.0	1304.0	0.9402550512553647	0.0	2760.040283203125	24905.0	0.645	779.0	0.5850202429149798	-121.0	-390.0	0.39878542510121456	1118.0	-2.1410001529285827	-5.745185099283198	381.0	-18.363420855135843	1.0	
1962.0	9.58471387199836	2.5190062474549317	1852.0	1279.0	0.8811670227052267	0.0	2779.571533203125	25545.0	0.645	779.0	0.5850202429149798	-121.0	-390.0	0.39878542510121456	1160.0	-7.340571952897998	-4.531032781868598	316.0	-18.995747645602943	341.0	
1961.0	9.726200182039834	2.381922965888286	1863.0	1267.0	0.891888412945393	0.0	2799.102783203125	26185.0	0.6375000000000001	776.0	0.5425101214574899	-142.0	-400.0	0.4190283400809717	1193.0	-1.6516286894020493	-4.476651790974179	298.0	-19.501571796412122	-31.0	
1967.0	9.524842336636173	2.484233663617375	1855.0	1284.0	0.8196318918194322	0.0	2818.634033203125	26825.0	0.6375000000000001	776.0	0.5425101214574899	-142.0	-400.0	0.4190283400809717	1198.0	5.321914665851048	-4.708656353890744	295.0	-19.580614260331913	-487.0	
1962.0	9.441519724907092	2.48530582404249	1855.0	1291.0	0.8790610727660653	0.0	2838.165283203125	27465.0	0.6375000000000001	776.0	0.5425101214574899	-142.0	-400.0	0.4190283400809717	1168.0	6.46887903349136	-4.3746154556639425	270.0	-19.116939341605896	-562.0	
1963.0	9.357351022839312	2.4017689505979156	1862.0	1298.0	0.8645004555054117	0.0	2857.696533203125	28105.0	0.6375000000000001	776.0	0.5425101214574899	-142.0	-400.0	0.4190283400809717	1163.0	0.6881786205841872	-3.7288985151353673	243.0	-19.033759753909987	-184.0	
1957.0	9.739804367414706	2.5518653128990785	1849.0	1266.0	0.9436160728236949	0.0	2877.227783203125	28745.0	0.635	775.0	0.5303643724696356	-148.0	-384.0	0.3866396761133603	1130.0	-3.1809145129224654	-2.1641880430490907	151.0	-18.511744688471	69.0	
1961.0	9.584712667662021	2.5188858138211083	1852.0	1279.0	0.8932127947602713	0.0	2896.759033203125	29385.0	0.635	775.0	0.5303643724696356	-148.0	-384.0	0.3866396761133603	1075.0	-0.5199571799969415	-1.9406786778492877	129.0	-17.665562993622135	-105.0	
1961.0	9.560298415965105	2.4584130250818665	1857.0	1281.0	0.8917591964685173	0.0	2916.290283203125	30025.0	0.635	775.0	0.5303643724696356	-148.0	-384.0	0.3866396761133603	1070.0	-0.16822144058724578	-1.5094732344940955	100.0	-17.58452852089796	-128.0	
1957.0	9.642756872310416	2.370925326279706	1864.0	1274.0	0.9390267981402645	0.0	2935.821533203125	30665.0	0.645	779.0	0.4979757085020243	-164.0	-365.0	0.3481781376518219	1088.0	-1.2234286588163328	-1.8182637840016191	123.0	-17.863817132239284	-59.0	
1960.0	9.894294985838382	2.524736679076221	1851.0	1253.0	0.9084738280182214	0.0	2955.352783203125	31305.0	0.645	779.0	0.4979757085020243	-164.0	-365.0	0.3481781376518219	1102.0	2.966814497629607	-2.506652905717904	157.0	-18.08552379467019	-333.0	
1959.0	9.60936831535961	2.6034982026277405	1845.0	1277.0	0.9192479845555485	0.0	2974.884033203125	31945.0	0.645	779.0	0.4979757085020243	-164.0	-365.0	0.3481781376518219	1016.0	15.078758219911302	-3.742551267188786	205.0	-16.778257183686158	-1125.0	
1954.0	9.14480415640386	2.5756537356239386	1848.0	1316.0	0.9742864174813367	0.0	2994.415283203125	32585.0	0.645	779.0	0.4979757085020243	-164.0	-365.0	0.3481781376518219	909.0	19.788958556354185	-5.347002081594868	296.0	-15.152441940410855	-1433.0	
1957.0	9.359903745891463	2.657041255812869	1841.0	1298.0	0.9419205854667383	0.0	3013.946533203125	33225.0	0.6375000000000001	776.0	0.46153846153846156	-182.0	-357.0	0.3319838056680162	910.0	10.903807921700567	-4.5608182609801675	268.0	-15.159924585862834	-852.0	
1955.0	9.501754558606626	2.556408241614956	1849.0	1286.0	0.9654228188521002	0.0	3033.477783203125	33865.0	0.6375000000000001	776.0	0.46153846153846156	-182.0	-357.0	0.3319838056680162	985.0	8.319314879951063	-5.8302056374597715	358.0	-16.323454733987	-683.0	
1957.0	9.704462964404419	2.589153583299164	1846.0	1269.0	0.9440084242015938	0.0	3053.009033203125	34505.0	0.6375000000000001	776.0	0.46153846153846156	-182.0	-357.0	0.3319838056680162	1072.0	9.66508640464903	-5.4861649796112335	333.0	-17.654984405665378	-771.0	
1956.0	9.598437551037229	2.700897960865596	1837.0	1278.0	0.9572312503903349	0.0	3072.540283203125	35145.0	0.63	773.0	0.44534412955465585	-190.0	-344.0	0.305668016194332	1115.0	13.840036702859766	-6.600152895631858	395.0	-18.325937082124955	-1044.0	
1947.0	9.52884102701969	2.884102701969023	1822.0	1284.0	1.068633114911987	0.0	3092.071533203125	35785.0	0.63	773.0	0.44534412955465585	-190.0	-344.0	0.305668016194332	1063.0	17.52561553754397	-7.001631014866119	411.0	-17.532038713094803	-1285.0	
1950.0	9.506015118708564	2.982464251808997	1814.0	1286.0	1.0342275085124222	0.0	3111.602783203125	36425.0	0.63	773.0	0.44534412955465585	-190.0	-344.0	0.305668016194332	1007.0	17.326808380486316	-6.356281721200677	369.0	-16.666294135303154	-1272.0	
1958.0	9.709584066881117	3.1012638309687786	1804.0	1269.0	0.9422536474086687	0.0	3131.134033203125	37065.0	0.64	777.0	0.4493927125506073	-188.0	-347.0	0.3117408906882591	972.0	12.341336595809757	-3.8859076215554538	221.0	-16.10453346627233	-946.0	
1961.0	9.61436871983597	3.1035386502636597	1804.0	1277.0	0.9052024120108617	0.0	3150.665283203125	37705.0	0.64	777.0	0.4493927125506073	-188.0	-347.0	0.3117408906882591	1002.0	15.094051078146506	-2.914752549323622	151.0	-16.55515642529376	-1126.0	
1967.0	9.388596622735394	3.1453765592535072	1801.0	1296.0	0.8314922925931469	0.0	3170.196533203125	38345.0	0.64	777.0	0.4493927125506073	-188.0	-347.0	0.3117408906882591	1062.0	17.57149411224958	-3.5891016032093863	189.0	-17.48256893532011	-1288.0	
1966.0	9.317059296021759	3.134501030747222	1802.0	1302.0	0.8426076015269691	0.0	3189.727783203125	38985.0	0.64	777.0	0.4493927125506073	-188.0	-347.0	0.3117408906882591	1150.0	17.449151246367947	-3.1092852580458783	159.0	-18.828085333783466	-1280.0	
1970.0	9.292162252323495	3.0257490418731994	1811.0	1304.0	0.7919908202281688	0.0	3209.259033203125	39625.0	0.6075	764.0	0.4352226720647773	-195.0	-346.0	0.3097165991902834	1278.0	14.788193913442424	-0.8452998292039553	20.0	-20.769539387735033	-1106.0	
1973.0	9.29362869337261	3.1723931467848967	1799.0	1304.0	0.7587937884236409	0.0	3228.790283203125	40265.0	0.6075	764.0	0.4352226720647773	-195.0	-346.0	0.3097165991902834	1460.0	14.283529591680686	0.1564129635018222	-42.0	-23.55221828558671	-1073.0	
1975.0	9.10429030296704	3.2861731538470336	1790.0	1320.0	0.7350796191186593	0.0	3248.321533203125	40905.0	0.6075	764.0	0.4352226720647773	-195.0	-346.0	0.3097165991902834	1493.0	10.39914359993883	-0.006158886616836473	-21.0	-24.060211964806022	-819.0	
1988.0	8.985526063945088	3.314511156413541	1788.0	1330.0	0.5778322307556735	0.0	3267.852783203125	41545.0	0.5975	760.0	0.451417004048583	-187.0	-319.0	0.2550607287449393	1610.0	10.093286435234747	-0.8372943781475835	35.0	-25.863827907721944	-799.0	
1989.0	9.043454387938501	3.1549626033737392	1801.0	1325.0	0.5631723501637272	0.0	3287.384033203125	42185.0	0.5975	760.0	0.451417004048583	-187.0	-319.0	0.2550607287449393	1674.0	6.545343324667381	-0.501002826721388	23.0	-26.842511946327676	-567.0	
1994.0	8.887754380838778	3.061152369591998	1809.0	1338.0	0.4994981815616735	0.0	3306.915283203125	42825.0	0.5975	760.0	0.451417004048583	-187.0	-319.0	0.2550607287449393	1738.0	1.3457715246979662	1.5932254559343315	-99.0	-27.803616617621113	-227.0	
1991.0	9.245065672706218	3.0779958420502775	1807.0	1308.0	0.5395527422427665	0.0	3326.446533203125	43465.0	0.5975	760.0	0.451417004048583	-187.0	-319.0	0.2550607287449393	1841.0	-2.1562930111637866	-2.7728317108740135	195.0	-29.42775900607606	2.0	
1991.0	9.187748064732519	3.2986159970614977	1789.0	1313.0	0.543391969263254	0.0	3345.977783203125	44105.0	0.635	775.0	0.4939271255060729	-166.0	-324.0	0.2651821862348178	1841.0	-5.459550389967886	-1.4871613164022754	120.0	-29.414902302131342	218.0	
1996.0	9.570946071027684	3.523178531339834	1770.0	1281.0	0.4914742361563506	0.0	3365.509033203125	44745.0	0.635	775.0	0.4939271255060729	-166.0	-324.0	0.2651821862348178	1692.0	-2.5997858999847074	-3.9315080746944226	270.0	-27.153017704653653	31.0	
1997.0	9.811310819896255	3.750129608672991	1751.0	1261.0	0.48636871242061513	0.0	3385.040283203125	45385.0	0.635	775.0	0.4939271255060729	-166.0	-324.0	0.2651821862348178	1456.0	3.4561859611561405	-5.578815350591681	359.0	-23.548192634095145	-365.0	
1989.0	9.325985866334827	4.027158062054042	1729.0	1302.0	0.5834415741212966	0.0	3404.571533203125	46025.0	0.605	763.0	0.5020242914979757	-162.0	-307.0	0.23076923076923078	1173.0	18.88667992047714	-8.31578989970834	494.0	-19.233073504336968	-1374.0	
2000.0	8.993951777211734	4.157082483078225	1719.0	1330.0	0.4501896011686216	0.0	3424.102783203125	46665.0	0.605	763.0	0.5020242914979757	-162.0	-307.0	0.23076923076923078	996.0	25.309680379262886	-13.091008806601753	786.0	-16.564852085917792	-1794.0	
2001.0	9.245487482067023	4.3106529686070925	1706.0	1309.0	0.4437281751566675	0.0	3443.634033203125	47305.0	0.605	763.0	0.5020242914979757	-162.0	-307.0	0.23076923076923078	896.0	23.367487383391957	-11.229128638921736	669.0	-15.011784918428502	-1667.0	
1996.0	9.184384879974704	4.152773711756111	1719.0	1314.0	0.5002005278541464	0.0	3463.165283203125	47945.0	0.625	771.0	0.5222672064777328	-152.0	-290.0	0.19635627530364372	853.0	24.346230310445023	-13.458932845195973	811.0	-14.374270163191872	-1731.0	
1982.0	8.933443030430395	4.05858875732513	1727.0	1335.0	0.6644821090652644	0.0	3482.696533203125	48585.0	0.625	771.0	0.5222672064777328	-152.0	-290.0	0.19635627530364372	878.0	32.08441657745833	-13.180126597964792	773.0	-14.755094192172683	-2237.0	
1970.0	8.767161105309578	4.097062911910269	1724.0	1349.0	0.8081670861587711	0.0	3502.227783203125	49225.0	0.625	771.0	0.5222672064777328	-152.0	-290.0	0.19635627530364372	1158.0	30.310445022174648	-15.127229821749768	907.0	-19.071020648685504	-2121.0	
1975.0	8.967435077382882	3.886364881145572	1741.0	1332.0	0.7457149014087885	0.0	3521.759033203125	49865.0	0.625	771.0	0.5222672064777328	-152.0	-290.0	0.19635627530364372	1542.0	21.21119437222817	-14.76590210681535	911.0	-24.959689096256128	-1526.0	
1986.0	9.421688822726672	4.073644177429236	1725.0	1294.0	0.6214729043059719	0.0	3541.290283203125	50505.0	0.6875	796.0	0.5242914979757085	-151.0	-280.0	0.17611336032388664	1863.0	11.546107967579141	-11.407751385049464	721.0	-29.851686843296562	-894.0	
1997.0	9.232726978358174	4.225078788198342	1713.0	1310.0	0.49008185759574135	0.0	3560.821533203125	51145.0	0.6875	796.0	0.5242914979757085	-151.0	-280.0	0.17611336032388664	1995.0	13.977672426976604	-10.654193161040544	667.0	-31.86962310392896	-1053.0	
1997.0	9.436164389503343	4.330724664620016	1704.0	1293.0	0.49422914923562655	0.0	3580.352783203125	51785.0	0.6875	796.0	0.5242914979757085	-151.0	-280.0	0.17611336032388664	1930.0	13.74827955344854	-3.902859233448488	228.0	-30.80471832687492	-1038.0	
2004.0	9.468954273797815	4.038284522638801	1728.0	1290.0	0.40437089584135655	0.0	3599.884033203125	52425.0	0.705	803.0	0.5121457489878543	-157.0	-257.0	0.12955465587044535	1895.0	19.345465667533265	-2.317170447765928	110.0	-30.25180451098372	-1404.0	
2019.0	9.106781340499428	3.535276907085652	1770.0	1320.0	0.2099661226310447	0.0	3619.415283203125	53065.0	0.705	803.0	0.5121457489878543	-157.0	-257.0	0.12955465587044535	1907.0	29.194066371004745	-0.5713151284123605	-29.0	-30.418479761687685	-2048.0	
2006.0	8.883912017088628	3.8673921850533017	1743.0	1339.0	0.37100624098038604	0.0	3638.946533203125	53705.0	0.705	803.0	0.5121457489878543	-157.0	-257.0	0.12955465587044535	2001.0	22.00642300045879	2.3145436478147006	-197.0	-31.832002637789156	-1578.0	
2013.0	8.660335366384542	4.128774733692311	1722.0	1358.0	0.289660776048535	0.0	3658.477783203125	54345.0	0.705	803.0	0.5121457489878543	-157.0	-257.0	0.12955465587044535	2139.0	8.258143447010246	3.839197182904137	-259.0	-33.9342948472595	-679.0	
2022.0	8.88795406358032	4.271596834222602	1710.0	1339.0	0.18635967009133958	0.0	3678.009033203125	54985.0	0.7475	820.0	0.5101214574898786	-158.0	-240.0	0.0951417004048583	2208.0	-6.3465361676097265	4.403151168044954	-257.0	-34.987424679818716	276.0	
2031.0	9.161475608089727	4.242798904210924	1712.0	1316.0	0.08008519199644108	0.0	3697.540283203125	55625.0	0.7475	820.0	0.5101214574898786	-158.0	-240.0	0.0951417004048583	2040.0	-6.805321914665852	2.4423743346969404	-130.0	-32.4291591935872	306.0	
2027.0	9.256567848461861	4.2282134176147	1713.0	1308.0	0.12893717575257527	0.0	3717.071533203125	56265.0	0.7475	820.0	0.5101214574898786	-158.0	-240.0	0.0951417004048583	1880.0	2.5692001835142992	-0.7256457203394133	50.0	-30.005722008837587	-307.0	
2023.0	9.084809952881368	3.7190905262320824	1755.0	1322.0	0.16522991005345533	0.0	3736.602783203125	56905.0	0.7975	840.0	0.5	-163.0	-234.0	0.08299595141700405	1788.0	9.11454350818168	-1.216878739376697	64.0	-28.598941842480468	-735.0	
2020.0	8.75153997968279	3.725426539707546	1755.0	1350.0	0.19816850890423185	0.0	3756.134033203125	57545.0	0.7975	840.0	0.5	-163.0	-234.0	0.08299595141700405	1864.0	10.414436458174034	-0.3958888112409605	8.0	-29.756912701216603	-820.0	
2022.0	9.327122730464064	4.140844474977892	1720.0	1302.0	0.18813630957528285	0.0	3775.665283203125	58185.0	0.7975	840.0	0.5	-163.0	-234.0	0.08299595141700405	1884.0	7.126471937605139	-2.845274207791133	176.0	-30.088296228344603	-605.0	
2013.0	9.10169827532844	4.2174465804629415	1714.0	1321.0	0.29584784207338655	0.0	3795.196533203125	58825.0	0.8150000000000001	847.0	0.4736842105263158	-176.0	-229.0	0.0728744939271255	1689.0	15.843401131671511	-4.561957103374039	263.0	-27.113288743966073	-1175.0	
2000.0	8.744855323426288	4.247437104533558	1712.0	1351.0	0.4495057290598738	0.0	3814.727783203125	59465.0	0.8150000000000001	847.0	0.4736842105263158	-176.0	-229.0	0.0728744939271255	1527.0	11.714329408166387	-5.621361770506665	341.0	-24.638076438021166	-905.0	
1999.0	8.5525876639315	4.068290202673772	1727.0	1367.0	0.45604830719881456	0.0	3834.259033203125	60105.0	0.8150000000000001	847.0	0.4736842105263158	-176.0	-229.0	0.0728744939271255	1476.0	-1.3916500994035788	-4.120634420978098	277.0	-23.84050049796151	-48.0	
2018.0	9.337801259758729	4.018221213968234	1730.0	1301.0	0.23398340073237367	0.0	3853.790283203125	60745.0	0.8150000000000001	847.0	0.4736842105263158	-176.0	-229.0	0.0728744939271255	1510.0	-5.7195289799663565	-4.4498834296089305	310.0	-24.36550543242407	235.0	
2022.0	9.6742418980472	4.328951709482083	1704.0	1273.0	0.19536964594119804	0.0	3873.321533203125	61385.0	0.8275	852.0	0.47975708502024295	-173.0	-214.0	0.04251012145748988	1314.0	8.64046490289035	-7.299881710243955	456.0	-21.38648661823793	-704.0	
2010.0	8.995060941605193	4.267998922424131	1710.0	1330.0	0.33193709388863096	0.0	3892.852783203125	62025.0	0.8275	852.0	0.47975708502024295	-173.0	-214.0	0.04251012145748988	1184.0	20.523015751643985	-9.948381566834177	596.0	-19.4181887412476	-1481.0	
2007.0	8.80632604120131	4.4421279296547445	1696.0	1346.0	0.3696769033424574	0.0	3912.384033203125	62665.0	0.8275	852.0	0.47975708502024295	-173.0	-214.0	0.04251012145748988	1325.0	16.57745832696131	-11.445438970590317	705.0	-21.59673151108077	-1223.0	
2017.0	9.00904408168981	4.475836740409542	1693.0	1329.0	0.2518963322515949	0.0	3931.915283203125	63305.0	0.85	861.0	0.45546558704453444	-185.0	-212.0	0.038461538461538464	1425.0	10.383850741703625	-10.967046538378089	691.0	-23.12639595257114	-818.0	
2014.0	9.425135809571048	4.418342861866827	1697.0	1294.0	0.29105195027280606	0.0	3951.446533203125	63945.0	0.85	861.0	0.45546558704453444	-185.0	-212.0	0.038461538461538464	1542.0	7.539379109955651	-10.081672969230517	642.0	-24.912846804880278	-632.0	
2016.0	9.332113500249719	4.639921453543223	1679.0	1302.0	0.270456913470952	0.0	3970.977783203125	64585.0	0.85	861.0	0.45546558704453444	-185.0	-212.0	0.038461538461538464	1661.0	12.157822296987309	-9.786712790632865	612.0	-26.735890758411166	-934.0	
2013.0	9.001037769111292	4.865681673034026	1661.0	1330.0	0.3078059388626368	0.0	3990.509033203125	65225.0	0.85	861.0	0.45546558704453444	-185.0	-212.0	0.038461538461538464	1762.0	15.338736809909774	-8.006612839821345	489.0	-28.267882608373668	-1142.0	
2020.0	8.861265317801298	5.1741508277488775	1636.0	1342.0	0.22824024804624354	0.0	4010.040283203125	329.0	0.86	865.0	0.4331983805668016	-196.0	-203.0	0.020242914979757085	1863.0	16.042208288729164	-7.280978387454877	441.0	-29.810419113320616	-1188.0	
2023.0	8.7050752926822	5.0313387920294135	1648.0	1355.0	0.18767752876741028	0.0	4029.571533203125	969.0	0.86	865.0	0.4331983805668016	-196.0	-203.0	0.020242914979757085	1776.0	15.13992965285212	-8.704026033207763	535.0	-28.489679511521274	-1129.0	
2032.0	8.52508775356759	4.889727737711244	1660.0	1370.0	0.07461169735014175	0.0	4049.102783203125	1609.0	0.86	865.0	0.4331983805668016	-196.0	-203.0	0.020242914979757085	1827.0	13.595350971096499	-10.61853585442729	664.0	-29.291393276297846	-1028.0	
2039.0	8.882776795808436	4.944346247510317	1655.0	1340.0	-0.005056391429058671	0.0	4068.634033203125	2249.0	0.865	867.0	0.4109311740890688	-207.0	-189.0	-0.008097165991902834	1966.0	10.888515063465363	-9.796814558151466	619.0	-31.416059291814445	-851.0	
2048.0	8.77712913281465	5.093865662417542	1643.0	1349.0	-0.11155621470061106	0.0	4088.165283203125	2889.0	0.865	867.0	0.4109311740890688	-207.0	-189.0	-0.008097165991902834	2228.0	12.295458021104146	-11.643192708747318	738.0	-35.45477779174912	-943.0	
2056.0	8.546405507570466	5.831026947522786	1583.0	1369.0	-0.19550576741962272	0.0	4107.696533203125	3529.0	0.865	867.0	0.4109311740890688	-207.0	-189.0	-0.008097165991902834	2192.0	12.693072335219453	-14.0024871964677	890.0	-34.92596932493384	-969.0	
2060.0	8.387656737717526	5.432340438419251	1616.0	1382.0	-0.25325975638456016	0.0	4127.227783203125	4169.0	0.8725	870.0	0.3765182186234818	-224.0	-169.0	-0.048582995951417005	2189.0	9.863893561706684	-14.68958861190431	942.0	-34.88680688811383	-784.0	
2036.0	8.663898233883902	4.485061483628303	1693.0	1358.0	0.01971370598730869	0.0	4146.759033203125	4809.0	0.8725	870.0	0.3765182186234818	-224.0	-169.0	-0.048582995951417005	2097.0	0.45878574705612485	-15.41956789717511	1013.0	-33.48241418441905	-169.0	
2026.0	8.906809684122932	4.966682698007294	1653.0	1338.0	0.15225717248812218	0.0	4166.290283203125	5449.0	0.8725	870.0	0.3765182186234818	-224.0	-169.0	-0.048582995951417005	2370.0	-1.437528674109191	-13.471532066235262	894.0	-37.65197786477775	-45.0	
2050.0	8.962615524779366	5.78536200174612	1586.0	1334.0	-0.11996780953656105	0.0	4185.821533203125	6089.0	0.8725	870.0	0.3765182186234818	-224.0	-169.0	-0.048582995951417005	2584.0	1.2846000917571496	-11.717267830975405	775.0	-40.918154725263875	-223.0	
2052.0	8.586086518368306	5.037223265402062	1648.0	1365.0	-0.16279225986972146	0.0	4205.352783203125	6729.0	0.8625	866.0	0.3522267206477733	-236.0	-146.0	-0.0951417004048583	2475.0	5.964214711729623	-10.136995059603512	659.0	-39.22980327881454	-529.0	
2045.0	8.318984147387962	4.517462357843864	1691.0	1387.0	-0.09152115233309852	0.0	4224.884033203125	7369.0	0.8625	866.0	0.3522267206477733	-236.0	-146.0	-0.0951417004048583	2524.0	-0.42820003058571654	-13.44213090060489	891.0	-40.01473433647268	-111.0	
2071.0	8.234479846718614	4.400365624242325	1701.0	1394.0	-0.40796114206001555	0.0	4244.415283203125	8009.0	0.8625	866.0	0.3522267206477733	-236.0	-146.0	-0.0951417004048583	2747.0	-1.0705000764642914	-15.59704904780673	1035.0	-43.45810337370656	-69.0	
2079.0	7.4784672107997645	4.98957822283358	1654.0	1458.0	-0.5001225586160536	0.0	4263.946533203125	8649.0	0.8425	858.0	0.3299595141700405	-247.0	-112.0	-0.16396761133603238	2766.0	-2.1410001529285827	-13.29035367632658	888.0	-43.72658160949612	1.0	
2072.0	7.836505099341902	5.079081362761677	1646.0	1428.0	-0.4104147675344799	0.0	4283.477783203125	9289.0	0.8425	858.0	0.3299595141700405	-247.0	-112.0	-0.16396761133603238	3054.0	-19.743079981648574	-12.55753390110469	889.0	-48.13846470528388	1152.0	
2053.0	8.595917752987935	4.82987053688889	1665.0	1364.0	-0.17888919486487292	0.0	4303.009033203125	9929.0	0.8425	858.0	0.3299595141700405	-247.0	-112.0	-0.16396761133603238	3409.0	-27.358923382780244	-16.08978299101519	1142.0	-53.62107889481732	1650.0	
2068.0	9.027790344716243	3.9695106621004053	1735.0	1327.0	-0.37250055800962456	0.0	4322.540283203125	10569.0	0.8425	858.0	0.3299595141700405	-247.0	-112.0	-0.16396761133603238	3942.0	-14.14589386756385	-23.350128295156246	1585.0	-61.87229213763931	786.0	
2071.0	8.52691919874751	3.882396065227128	1743.0	1369.0	-0.41539613972003053	0.0	4342.071533203125	11209.0	0.8250000000000001	851.0	0.3076923076923077	-258.0	-102.0	-0.18421052631578946	4118.0	5.10781465055819	-21.478475199538607	1415.0	-64.5542047305131	-473.0	
2031.0	7.465365852631284	3.6794424059855277	1761.0	1458.0	0.051856964477348694	0.0	4361.602783203125	11849.0	0.8250000000000001	851.0	0.3076923076923077	-258.0	-102.0	-0.18421052631578946	4165.0	4.786664627618903	-20.76628731027523	1370.0	-65.26827358355236	-452.0	
2042.0	8.90105548469321	3.2007865645590656	1798.0	1337.0	-0.07588937651248896	0.0	4381.134033203125	12489.0	0.8250000000000001	851.0	0.3076923076923077	-258.0	-102.0	-0.18421052631578946	4482.0	-20.32420859458633	-18.713569462464392	1305.0	-70.11194772469985	1190.0	
2072.0	9.469479719028119	2.900352855192864	1822.0	1289.0	-0.437659591488994	0.0	4400.665283203125	13129.0	0.8	841.0	0.2732793522267207	-275.0	-80.0	-0.22874493927125505	4275.0	-20.890044349288885	-17.59990631117429	1232.0	-66.92450297595508	1227.0	
