Device	Device	Device	Device	Device	Device	Device	Device	Device	Device	Device	Device	Device	Device	Device	Device	Device	Device	Device	Device	Device	
Low Noise Accelerometer X	Low Noise Accelerometer X	Low Noise Accelerometer Z	Low Noise Accelerometer Z	Low Noise Accelerometer Y	Low Noise Accelerometer Y	Event_Marker	Timestamp	Timestamp	Magnetometer Z	Magnetometer Z	Magnetometer X	Magnetometer X	Magnetometer Y	Magnetometer Y	Gyroscope Y	Gyroscope Y	Gyroscope Z	Gyroscope Z	Gyroscope X	Gyroscope X	
UNCAL	CAL	CAL	UNCAL	UNCAL	CAL	CAL	CAL	UNCAL	UNCAL	CAL	UNCAL	CAL	UNCAL	CAL	CAL	UNCAL	UNCAL	CAL	UNCAL	CAL	
no units	m/(s^2)	m/(s^2)	no units	no units	m/(s^2)	no units	ms	no units	no units	local_flux	no units	local_flux	no units	local_flux	deg/s	no units	no units	deg/s	no units	deg/s	
2160.0	9.57788199506617	1.835818554235928	1910.0	1279.0	-1.5181072186031739	0.0	1610.595703125	52776.0	537.0	0.04	55.0	0.9412955465587045	-381.0	0.3805668016194332	2.966814497629607	874.0	61.0	-1.0650865921502377	-333.0	-14.572565857482038	
2165.0	9.663398848855405	2.054170599826152	1892.0	1272.0	-1.573125973008899	0.0	1630.126953125	53416.0	537.0	0.04	55.0	0.9412955465587045	-381.0	0.3805668016194332	3.4561859611561405	851.0	17.0	-0.41143709595166156	-365.0	-14.21310623838318	
2156.0	9.508413395066999	2.031815697175992	1894.0	1285.0	-1.4666891906600268	0.0	1649.658203125	54056.0	542.0	0.0525	57.0	0.9453441295546559	-379.0	0.3765182186234818	-1.6669215476372536	859.0	-47.0	0.7790596420452895	-30.0	-14.323957140268208	
2161.0	9.542419894055547	1.861037024602318	1908.0	1282.0	-1.5300056629770367	0.0	1669.189453125	54696.0	542.0	0.0525	57.0	0.9453441295546559	-379.0	0.3765182186234818	-4.052607432329102	858.0	-102.0	1.720263200903779	126.0	-14.2992006210215	
2167.0	9.529183824363379	1.7279062458617291	1919.0	1283.0	-1.605089795875276	0.0	1688.720703125	55336.0	542.0	0.0525	57.0	0.9453441295546559	-379.0	0.3765182186234818	-0.13763572411683744	849.0	-116.0	1.7776290768454803	-130.0	-14.160526609338959	
2180.0	9.553857537106044	1.8143251391757163	1912.0	1281.0	-1.759741186905666	0.0	1708.251953125	55976.0	544.0	0.0575	59.0	0.9493927125506073	-389.0	0.3967611336032389	4.19024315644594	841.0	-35.0	0.3574662195483056	-413.0	-14.05197236864693	
2182.0	9.435689562067745	1.9022895401077577	1905.0	1291.0	-1.783259964179577	0.0	1727.783203125	56616.0	544.0	0.0575	59.0	0.9493927125506073	-389.0	0.3967611336032389	5.536014681143906	880.0	40.0	-0.8439288196680443	-501.0	-14.662421181705964	
2176.0	9.565876992104135	1.825794448508764	1911.0	1280.0	-1.7111988350846867	0.0	1747.314453125	57256.0	544.0	0.0575	59.0	0.9493927125506073	-389.0	0.3967611336032389	2.844471631747974	914.0	39.0	-0.7156805491907053	-325.0	-15.182851143377437	
2167.0	9.685743169501519	1.9076502834852205	1904.0	1270.0	-1.5999293216714248	0.0	1766.845703125	57896.0	544.0	0.0575	59.0	0.9493927125506073	-389.0	0.3967611336032389	-0.09175714941122497	905.0	-42.0	0.6462135687823775	-133.0	-15.031131849274583	
2179.0	9.61324628046688	1.8008185228784925	1913.0	1276.0	-1.7473692390269178	0.0	1786.376953125	58536.0	552.0	0.0775	58.0	0.9473684210526316	-387.0	0.39271255060728744	-3.762043125860224	852.0	-100.0	1.676959792196833	107.0	-14.207566753159819	
2187.0	9.755231038882101	1.713580078686335	1920.0	1264.0	-1.8440797024952835	0.0	1805.908203125	59176.0	552.0	0.0775	58.0	0.9473684210526316	-387.0	0.39271255060728744	0.749350053525004	871.0	-111.0	1.6686250881195321	-188.0	-14.499195289704964	
2182.0	9.612274674782494	1.703657954439813	1921.0	1276.0	-1.7854667447657884	0.0	1825.439453125	59816.0	552.0	0.0775	58.0	0.9473684210526316	-387.0	0.39271255060728744	3.3032573788040986	905.0	-144.0	2.0792590693519766	-355.0	-15.016801394268889	
2191.0	9.696333517876978	1.7762089305551054	1915.0	1269.0	-1.891608871752297	0.0	1844.970703125	60456.0	553.0	0.08	66.0	0.9635627530364372	-385.0	0.38866396761133604	2.7985930570423614	971.0	-159.0	2.340280632552293	-322.0	-16.026927100073127	
2181.0	9.48220071672841	1.7915002442695598	1914.0	1287.0	-1.7729624457786501	0.0	1864.501953125	61096.0	553.0	0.08	66.0	0.9635627530364372	-385.0	0.38866396761133604	4.312586022327573	1002.0	-144.0	2.053772621404214	-421.0	-16.50547117358648	
2192.0	9.482213964428132	1.7928250142416204	1914.0	1287.0	-1.9054659383841392	0.0	1884.033203125	61736.0	553.0	0.08	66.0	0.9635627530364372	-385.0	0.38866396761133604	1.498700107050008	988.0	-189.0	2.8563007773030025	-237.0	-16.282623120813742	
2197.0	9.445659559732784	1.7088131161356355	1921.0	1290.0	-1.967752684248634	0.0	1903.564453125	62376.0	553.0	0.08	66.0	0.9635627530364372	-385.0	0.38866396761133604	1.5751643982260286	1019.0	-177.0	2.673430296020665	-242.0	-16.76013081902844	
2180.0	9.50478522903886	1.6689990943621953	1924.0	1285.0	-1.7631384308826084	0.0	1923.095703125	63016.0	555.0	0.085	65.0	0.9615384615384616	-383.0	0.38461538461538464	1.896314421165316	1015.0	-128.0	1.9063170317286366	-263.0	-16.70642401703886	
2180.0	9.660613160156949	1.7756017299805738	1915.0	1272.0	-1.75944809885906	0.0	1942.626953125	63656.0	555.0	0.085	65.0	0.9615384615384616	-383.0	0.38461538461538464	3.0126930723352197	977.0	-105.0	1.5020796812766983	-336.0	-16.127376011534633	
2180.0	9.589686549463028	1.8257978034457065	1911.0	1278.0	-1.7591534434966964	0.0	1962.158203125	64296.0	555.0	0.085	65.0	0.9615384615384616	-383.0	0.38461538461538464	5.536014681143906	1008.0	-55.0	0.6368776828188676	-501.0	-16.61170702492108	
2189.0	9.506015091432657	1.7919853337417968	1914.0	1285.0	-1.8691001424108373	0.0	1981.689453125	64936.0	557.0	0.09	61.0	0.9534412955465588	-378.0	0.37449392712550605	5.337207524086252	1005.0	-91.0	1.1980744747645657	-488.0	-16.56006160602725	
2175.0	9.505876328387245	1.7781090292007464	1915.0	1285.0	-1.7007043573369318	0.0	2001.220703125	40.0	557.0	0.09	61.0	0.9534412955465588	-378.0	0.37449392712550605	6.973543355253097	963.0	-158.0	2.156691171992483	-595.0	-15.906007125413728	
2171.0	9.638504213829817	1.945659478219777	1901.0	1274.0	-1.647834298417788	0.0	2020.751953125	680.0	557.0	0.09	61.0	0.9534412955465588	-378.0	0.37449392712550605	7.294693378192385	824.0	-194.0	2.6762253452251246	-616.0	-13.76792855520204	
2179.0	9.484148745442537	1.9863031156822137	1898.0	1287.0	-1.7449505225210868	0.0	2040.283203125	1320.0	568.0	0.11750000000000001	65.0	0.9615384615384616	-365.0	0.3481781376518219	6.545343324667381	803.0	-207.0	2.902923571477524	-567.0	-13.443427416118892	
2180.0	9.351882954000978	1.854962066764269	1909.0	1298.0	-1.7609481941849454	0.0	2059.814453125	1960.0	568.0	0.11750000000000001	65.0	0.9615384615384616	-365.0	0.3481781376518219	3.9608502829178778	827.0	-247.0	3.6252036966044194	-398.0	-13.804472222662621	
2178.0	9.506855160089662	1.875992199442368	1907.0	1285.0	-1.7348814839283282	0.0	2079.345703125	2600.0	568.0	0.11750000000000001	65.0	0.9615384615384616	-365.0	0.3481781376518219	6.65239333231381	770.0	-268.0	3.83180218567507	-574.0	-12.927770669258793	
2195.0	9.484411819497298	2.01261052115843	1896.0	1287.0	-1.9371928280083643	0.0	2098.876953125	3240.0	568.0	0.11750000000000001	65.0	0.9615384615384616	-365.0	0.3481781376518219	10.94968649640618	714.0	-194.0	2.5131629947076872	-855.0	-12.081665976313474	
2190.0	9.473356744165564	2.09757917846112	1889.0	1288.0	-1.8753630417602063	0.0	2118.408203125	3880.0	573.0	0.13	60.0	0.951417004048583	-354.0	0.3259109311740891	13.56476525462609	750.0	-85.0	0.737596286724836	-1026.0	-12.651823055085798	
2179.0	9.341807914707996	2.037934327942404	1894.0	1299.0	-1.7453413065832284	0.0	2137.939453125	4520.0	573.0	0.13	60.0	0.951417004048583	-354.0	0.3259109311740891	12.066065147576083	817.0	-50.0	0.26949319439946906	-928.0	-13.684584491103422	
2184.0	9.39039863511017	2.135101606254968	1886.0	1295.0	-1.8031530176683772	0.0	2157.470703125	5160.0	573.0	0.13	60.0	0.951417004048583	-354.0	0.3259109311740891	7.1570576540755475	815.0	-72.0	0.8039026389871823	-607.0	-13.648551429341293	
2202.0	9.593735821972752	2.230725054417949	1878.0	1278.0	-2.0160746467160098	0.0	2177.001953125	5800.0	580.0	0.1475	49.0	0.9291497975708503	-361.0	0.340080971659919	6.897079064077077	809.0	-40.0	0.32119741977637206	-590.0	-13.561311579584652	
2200.0	9.438393091528686	2.1726424862019984	1883.0	1291.0	-1.9946933398426008	0.0	2196.533203125	6440.0	580.0	0.1475	49.0	0.9291497975708503	-361.0	0.340080971659919	12.38721517051537	922.0	-11.0	-0.3270891469496276	-949.0	-15.301721098620026	
2193.0	9.450774640527788	2.220321195636132	1879.0	1290.0	-1.9092786007663367	0.0	2216.064453125	7080.0	580.0	0.1475	49.0	0.9291497975708503	-361.0	0.340080971659919	12.907172350512312	1066.0	-32.0	-0.0027965803579385606	-983.0	-17.508083819724096	
2180.0	9.403271406464988	2.2319025512606476	1878.0	1294.0	-1.7528954999703779	0.0	2235.595703125	7720.0	580.0	0.1475	49.0	0.9291497975708503	-361.0	0.340080971659919	10.980272212876587	1138.0	-94.0	1.0389227123088651	-857.0	-18.602469450182422	
2219.0	9.583194851387159	2.367104186334835	1867.0	1279.0	-2.2182717508919616	0.0	2255.126953125	8360.0	591.0	0.17500000000000002	50.0	0.9311740890688259	-354.0	0.3259109311740891	9.22159351582811	962.0	-86.0	0.9592135487905604	-742.0	-15.902637417987622	
2221.0	9.726879016497803	2.449806411684999	1860.0	1267.0	-2.2392772502760208	0.0	2274.658203125	9000.0	591.0	0.17500000000000002	50.0	0.9311740890688259	-354.0	0.3259109311740891	15.568129683437837	799.0	26.0	-1.0422711329045418	-1157.0	-13.421501428530211	
2201.0	9.51273417198585	2.463893389061217	1859.0	1285.0	-2.000173103751929	0.0	2294.189453125	9640.0	591.0	0.17500000000000002	50.0	0.9311740890688259	-354.0	0.3259109311740891	22.939287352806243	630.0	5.0	-1.04002261533274	-1639.0	-10.828261205131385	
2193.0	9.501431678971748	2.524120278127398	1854.0	1286.0	-1.9026960487320717	0.0	2313.720703125	10280.0	596.0	0.1875	50.0	0.9311740890688259	-355.0	0.32793522267206476	22.4193301728093	614.0	-54.0	-0.1142193416431011	-1605.0	-10.573491433864492	
2223.0	9.357420345613905	2.408701228057035	1864.0	1298.0	-2.2678903261995877	0.0	2333.251953125	10920.0	596.0	0.1875	50.0	0.9311740890688259	-355.0	0.32793522267206476	23.291023092215937	826.0	-93.0	0.4832912023881464	-1662.0	-13.820546863946658	
2207.0	9.155060786117401	2.4108405165018523	1864.0	1315.0	-2.077100051688307	0.0	2352.783203125	11560.0	596.0	0.1875	50.0	0.9311740890688259	-355.0	0.32793522267206476	21.21119437222817	1059.0	-108.0	0.8329357669264386	-1526.0	-17.39231511064438	
2190.0	9.333697764837877	2.417395531406725	1863.0	1300.0	-1.870363304494571	0.0	2372.314453125	12200.0	612.0	0.2275	43.0	0.917004048582996	-359.0	0.3360323886639676	14.58938675638477	1265.0	-96.0	0.9448195329018708	-1093.0	-20.552159906558355	
2216.0	9.47558229897051	2.3201346589558747	1871.0	1288.0	-2.1841426886504545	0.0	2391.845703125	12840.0	612.0	0.2275	43.0	0.917004048582996	-359.0	0.3360323886639676	14.421165315797523	1352.0	11.0	-0.6808399734136432	-1082.0	-21.903386579878376	
2220.0	9.213125464483545	2.2649274007354525	1876.0	1310.0	-2.2360641732440696	0.0	2411.376953125	13480.0	612.0	0.2275	43.0	0.917004048582996	-359.0	0.3360323886639676	18.48906560636183	1466.0	123.0	-2.5486883639230413	-1348.0	-23.67133620080971	
2196.0	9.284388878115374	2.2484116210611083	1877.0	1304.0	-1.9465252281952141	0.0	2430.908203125	14120.0	612.0	0.2275	43.0	0.917004048582996	-359.0	0.3360323886639676	15.430493959320998	1583.0	173.0	-3.1774420210350383	-1148.0	-25.472928325381442	
2180.0	9.595294056950088	2.386548552151573	1865.0	1278.0	-1.7478823534477086	0.0	2450.439453125	14760.0	625.0	0.26	43.0	0.917004048582996	-359.0	0.3360323886639676	10.261507875821993	1586.0	183.0	-3.1240500712281842	-810.0	-25.518427856857752	
2222.0	9.512393756038927	2.4298517943689575	1862.0	1285.0	-2.253869387998015	0.0	2469.970703125	15400.0	625.0	0.26	43.0	0.917004048582996	-359.0	0.3360323886639676	8.915736351124027	1563.0	123.0	-2.1509108223193083	-722.0	-25.155773340231786	
2204.0	9.308325155156295	2.261086944200864	1876.0	1302.0	-2.0424179011306847	0.0	2489.501953125	16040.0	625.0	0.26	43.0	0.917004048582996	-359.0	0.3360323886639676	7.967579140541368	1698.0	63.0	-1.1694326956829795	-660.0	-27.217463852812287	
2194.0	9.412386883436964	1.9529740579820702	1901.0	1293.0	-1.9270576138614106	0.0	2509.033203125	16680.0	629.0	0.27	47.0	0.9251012145748988	-347.0	0.3117408906882591	7.141764795840343	1813.0	-71.0	0.9422562159821906	-606.0	-28.960962584380002	
2214.0	9.449946615234166	2.1375186662737975	1886.0	1290.0	-2.163954979799291	0.0	2528.564453125	17320.0	629.0	0.27	47.0	0.9251012145748988	-347.0	0.3117408906882591	12.417800886985779	1781.0	-124.0	1.5415038037007098	-951.0	-28.46394663144282	
2227.0	9.321839955275621	2.4220907656573774	1863.0	1301.0	-2.316171110435301	0.0	2548.095703125	17960.0	629.0	0.27	47.0	0.9251012145748988	-347.0	0.3117408906882591	17.15858693989907	1644.0	-115.0	1.1924450848813466	-1261.0	-26.3652429574679	
2233.0	9.166750664195613	2.389352133847054	1866.0	1314.0	-2.3906659326088135	0.0	2567.626953125	18600.0	629.0	0.27	47.0	0.9251012145748988	-347.0	0.3117408906882591	16.1645511546108	1591.0	-73.0	0.5780809232091861	-1196.0	-25.558128965204	
2207.0	9.104769454683467	2.143612135013143	1886.0	1319.0	-2.0829475326324207	0.0	2587.158203125	19240.0	638.0	0.2925	29.0	0.888663967611336	-344.0	0.305668016194332	14.941122495794465	1622.0	10.0	-0.6448295068984482	-1116.0	-26.046037062906947	
2203.0	9.188812641405555	2.2145974738887273	1880.0	1312.0	-2.0324946229033505	0.0	2606.689453125	19880.0	638.0	0.2925	29.0	0.888663967611336	-344.0	0.305668016194332	15.338736809909774	1590.0	96.0	-1.9883833629397345	-1142.0	-25.568449124407366	
2216.0	9.346728568619517	2.5299997190946337	1854.0	1299.0	-2.181233924751189	0.0	2626.220703125	20520.0	638.0	0.2925	29.0	0.888663967611336	-344.0	0.305668016194332	17.464444104603153	1506.0	178.0	-3.347509516937425	-1281.0	-24.293103758664845	
2214.0	9.323774736290027	2.6155688670979704	1847.0	1301.0	-2.155655694572249	0.0	2645.751953125	21160.0	649.0	0.32	28.0	0.8866396761133604	-317.0	0.25101214574898784	20.828872916348068	1407.0	263.0	-4.804623152072144	-1501.0	-22.78857101286183	
2194.0	9.095411377374477	2.3982805945905064	1865.0	1320.0	-1.9213212381898668	0.0	2665.283203125	21800.0	649.0	0.32	28.0	0.8866396761133604	-317.0	0.25101214574898784	20.614772901055208	1378.0	311.0	-5.538783582148051	-1487.0	-22.350922591076966	
2195.0	9.203021521118446	2.44500925470182	1861.0	1311.0	-1.931358756321285	0.0	2684.814453125	22440.0	649.0	0.32	28.0	0.8866396761133604	-317.0	0.25101214574898784	17.097415506958253	1306.0	340.0	-5.855190891545905	-1257.0	-21.249283840785953	
2228.0	9.18145076626422	2.6688861502316925	1843.0	1313.0	-2.324687287405013	0.0	2704.345703125	23080.0	663.0	0.355	32.0	0.8947368421052632	-326.0	0.2692307692307692	20.293622878115922	1114.0	432.0	-7.427510260479318	-1466.0	-18.318866172115307	
2228.0	8.858989655051351	2.5656321718017816	1852.0	1340.0	-2.3299769780857393	0.0	2723.876953125	23720.0	663.0	0.355	32.0	0.8947368421052632	-326.0	0.2692307692307692	20.935922923994497	1152.0	605.0	-10.108232343384227	-1508.0	-18.928763771953104	
2230.0	8.71323796756258	2.2761777086390915	1876.0	1352.0	-2.36131996976605	0.0	2743.408203125	24360.0	663.0	0.355	32.0	0.8947368421052632	-326.0	0.2692307692307692	18.504358464597036	1262.0	737.0	-12.024356073403267	-1349.0	-20.63581821164703	
2212.0	8.89187374194672	2.2826122899101406	1875.0	1337.0	-2.1425374505172696	0.0	2762.939453125	25000.0	663.0	0.355	32.0	0.8947368421052632	-326.0	0.2692307692307692	21.21119437222817	1233.0	878.0	-14.30574836349532	-1526.0	-20.21364210846233	
2242.0	8.691641921645253	2.497525497858667	1858.0	1354.0	-2.501687287693844	0.0	2782.470703125	25640.0	670.0	0.3725	17.0	0.8643724696356275	-321.0	0.2591093117408907	27.81770912983637	1253.0	1046.0	-17.15087335721286	-1958.0	-20.548983031562003	
2259.0	8.706002812103277	2.7431383531848703	1838.0	1353.0	-2.7014506987911733	0.0	2802.001953125	26280.0	670.0	0.3725	17.0	0.8643724696356275	-321.0	0.2591093117408907	31.136259366875674	1231.0	1227.0	-20.070886199961382	-2175.0	-20.24060451951074	
2238.0	8.46744251155807	2.6966321081880227	1842.0	1373.0	-2.451754378503791	0.0	2821.533203125	26920.0	670.0	0.3725	17.0	0.8643724696356275	-321.0	0.2591093117408907	27.680073405719533	1318.0	1332.0	-21.534278854369756	-1949.0	-21.59020852431169	
2213.0	8.53797330683351	2.6068544928747412	1849.0	1367.0	-2.151639803580194	0.0	2841.064453125	27560.0	688.0	0.4175	4.0	0.8380566801619433	-326.0	0.2692307692307692	17.296222664015907	1343.0	1355.0	-21.468886967325886	-1270.0	-21.973166696894374	
2211.0	8.824359192343367	2.674014472431977	1843.0	1343.0	-2.1233363595917822	0.0	2860.595703125	28200.0	688.0	0.4175	4.0	0.8380566801619433	-326.0	0.2692307692307692	6.331243309374523	1393.0	1375.0	-21.330274390264613	-553.0	-22.739004754030006	
2217.0	9.076022821217023	2.8403773597974817	1829.0	1322.0	-2.1897816221822413	0.0	2880.126953125	28840.0	688.0	0.4175	4.0	0.8380566801619433	-326.0	0.2692307692307692	4.5113931793852275	1332.0	1374.0	-21.251466152035533	-434.0	-21.802203168502096	
2205.0	9.003984637456966	2.7794161266490613	1834.0	1328.0	-2.047142915429798	0.0	2899.658203125	29480.0	688.0	0.4175	4.0	0.8380566801619433	-326.0	0.2692307692307692	9.649793546413825	1293.0	1301.0	-20.3401734760215	-770.0	-21.194655379075083	
2193.0	9.109750589778413	2.6417256445078836	1845.0	1319.0	-1.9042607522963957	0.0	2919.189453125	30120.0	694.0	0.4325	-2.0	0.8259109311740891	-328.0	0.2732793522267207	12.341336595809757	1297.0	1223.0	-19.247515271458088	-946.0	-21.245106731661952	
2184.0	9.113031113841599	2.9697780508264793	1818.0	1319.0	-1.7892331639896328	0.0	2938.720703125	30760.0	694.0	0.4325	-2.0	0.8259109311740891	-328.0	0.2732793522267207	12.081358005811287	1433.0	1069.0	-16.84762129122393	-929.0	-23.307957569364596	
2186.0	9.092032536244265	3.250872672045412	1795.0	1321.0	-1.8079176428833958	0.0	2958.251953125	31400.0	694.0	0.4325	-2.0	0.8259109311740891	-328.0	0.2732793522267207	8.242850588775044	1492.0	938.0	-14.670170890317186	-678.0	-24.1915076011849	
2208.0	9.258448407065135	3.2257930874660277	1797.0	1307.0	-2.0718153168306306	0.0	2977.783203125	32040.0	699.0	0.445	-9.0	0.8117408906882592	-330.0	0.2773279352226721	3.4867716776265487	1558.0	806.0	-12.439566582295807	-367.0	-25.181937479540927	
2215.0	9.352334871770239	3.0906300341666766	1808.0	1299.0	-2.1579170626471567	0.0	2997.314453125	32680.0	699.0	0.445	-9.0	0.8117408906882592	-330.0	0.2773279352226721	1.9421929958709285	1681.0	706.0	-10.82084670363526	-266.0	-27.05312177070369	
2215.0	9.327798717736647	3.017967011759916	1814.0	1301.0	-2.1596156846356283	0.0	3016.845703125	33320.0	699.0	0.445	-9.0	0.8117408906882592	-330.0	0.2773279352226721	2.8903502064535864	1819.0	625.0	-9.591758353777596	-328.0	-29.15836963202635	
2211.0	9.328281509737995	3.0662462118946965	1810.0	1301.0	-2.1104525016285813	0.0	3036.376953125	33960.0	707.0	0.465	-7.0	0.8157894736842105	-337.0	0.291497975708502	1.529285823520416	1922.0	517.0	-7.860401216449142	-239.0	-30.72153787743993	
2202.0	9.375514443728006	3.027634848991022	1813.0	1297.0	-2.002318664606996	0.0	3055.908203125	34600.0	707.0	0.465	-7.0	0.8157894736842105	-337.0	0.291497975708502	2.752714482336749	1998.0	479.0	-7.3132058171396475	-319.0	-31.882246681464327	
2215.0	9.505968560828174	2.977808463769716	1817.0	1286.0	-2.1586371571645167	0.0	3075.439453125	35240.0	707.0	0.465	-7.0	0.8157894736842105	-337.0	0.291497975708502	3.226793087628078	1987.0	554.0	-8.487408100684362	-350.0	-31.725199384060396	
2208.0	9.43515542211656	3.0393517354656017	1812.0	1292.0	-2.0737770737201244	0.0	3094.970703125	35880.0	707.0	0.465	-7.0	0.8157894736842105	-337.0	0.291497975708502	7.860529132894939	1965.0	697.0	-10.875556104623964	-653.0	-31.411502223621046	
2203.0	9.267297196973336	2.9201958878097622	1822.0	1306.0	-2.017597809069252	0.0	3114.501953125	36520.0	716.0	0.4875	-4.0	0.8218623481781376	-332.0	0.2813765182186235	10.552072182290871	1992.0	834.0	-13.086221846653718	-829.0	-31.847909939810716	
2196.0	9.398092934356765	2.904531530914539	1823.0	1295.0	-1.9322657894357316	0.0	3134.033203125	37160.0	716.0	0.4875	-4.0	0.8218623481781376	-332.0	0.2813765182186235	10.460315032879647	2058.0	881.0	-13.795318989333627	-823.0	-32.86773683267376	
2180.0	9.460023561742707	3.1452133171278556	1803.0	1290.0	-1.7340617631002566	0.0	3153.564453125	37800.0	716.0	0.4875	-4.0	0.8218623481781376	-332.0	0.2813765182186235	12.234286588163329	2030.0	899.0	-14.147419576836663	-939.0	-32.4416122961213	
2170.0	9.450059585759359	3.3392919092690967	1787.0	1291.0	-1.609797903306422	0.0	3173.095703125	38440.0	724.0	0.5075000000000001	-9.0	0.8117408906882592	-303.0	0.22267206477732793	13.014222358158742	1979.0	889.0	-14.032631684243512	-990.0	-31.657895750630992	
2171.0	9.30832947104453	3.4519947235007047	1778.0	1303.0	-1.6210093409400224	0.0	3192.626953125	39080.0	724.0	0.5075000000000001	-9.0	0.8117408906882592	-303.0	0.22267206477732793	14.95641535402967	1892.0	845.0	-13.446908726226093	-1117.0	-30.31706844279395	
2167.0	9.440104040130375	3.5342135368471035	1771.0	1292.0	-1.5698544478978986	0.0	3212.158203125	39720.0	724.0	0.5075000000000001	-9.0	0.8117408906882592	-303.0	0.22267206477732793	15.675179691084265	1782.0	812.0	-12.98497021238563	-1164.0	-28.624555855261807	
2158.0	9.346093264415922	3.6569454892112883	1761.0	1300.0	-1.4599061816680006	0.0	3231.689453125	40360.0	724.0	0.5075000000000001	-9.0	0.8117408906882592	-303.0	0.22267206477732793	17.066829790487844	1677.0	822.0	-13.210547855286382	-1255.0	-27.0156408475877	
2163.0	8.98671204149768	3.433108911672836	1780.0	1330.0	-1.5282176893033734	0.0	3251.220703125	41000.0	740.0	0.5475	-13.0	0.8036437246963563	-323.0	0.2631578947368421	17.372686955191927	1695.0	862.0	-13.835247620231067	-1275.0	-27.298088551083392	
2171.0	8.948088910087872	3.1422243421205023	1804.0	1333.0	-1.630807154177193	0.0	3270.751953125	41640.0	740.0	0.5475	-13.0	0.8036437246963563	-323.0	0.2631578947368421	16.39394402813886	1777.0	889.0	-14.19879979122143	-1211.0	-28.55997173275954	
2180.0	9.00724589213874	3.105541594826478	1807.0	1328.0	-1.739382974242324	0.0	3290.283203125	42280.0	740.0	0.5475	-13.0	0.8036437246963563	-323.0	0.2631578947368421	16.363358311668453	2042.0	971.0	-15.418135955804656	-1209.0	-32.63845326380847	
2180.0	8.971173075108405	3.06968846322145	1810.0	1331.0	-1.7404607650447277	0.0	3309.814453125	42920.0	756.0	0.5875	-20.0	0.7894736842105263	-313.0	0.24291497975708504	13.151858082275579	2302.0	996.0	-15.634314893343737	-999.0	-36.63018080429634	
2188.0	8.947865579132271	3.119891246560467	1806.0	1333.0	-1.8360753265063836	0.0	3329.345703125	43560.0	756.0	0.5875	-20.0	0.7894736842105263	-313.0	0.24291497975708504	13.365958097568436	2499.0	1105.0	-17.289149906089445	-1013.0	-39.6695924350744	
2214.0	9.138700518995414	3.1557661852556196	1803.0	1317.0	-2.146702490382042	0.0	3348.876953125	44200.0	756.0	0.5875	-20.0	0.7894736842105263	-313.0	0.24291497975708504	10.674415048172504	2688.0	1094.0	-16.98331295596211	-837.0	-42.566641476958736	
2212.0	9.079186260288886	3.1567212669838534	1803.0	1322.0	-2.1231821457923736	0.0	3368.408203125	44840.0	760.0	0.5975	-24.0	0.7813765182186235	-296.0	0.20850202429149797	8.808686343477596	2863.0	1212.0	-18.696764984574596	-715.0	-45.26906063741672	
2208.0	9.160181888594096	2.9229507641714667	1822.0	1315.0	-2.078854828481232	0.0	3387.939453125	45480.0	760.0	0.5975	-24.0	0.7813765182186235	-296.0	0.20850202429149797	8.181679155834226	2859.0	1262.0	-19.44133646350664	-674.0	-45.21512841757354	
2208.0	9.326693166352202	2.907411873315481	1823.0	1301.0	-2.077500493520771	0.0	3407.470703125	46120.0	760.0	0.5975	-24.0	0.7813765182186235	-296.0	0.20850202429149797	7.309986236427589	2808.0	1290.0	-19.844957040112394	-617.0	-44.43659595677522	
2222.0	9.280441472737284	3.0441472737284245	1812.0	1305.0	-2.2439030012438415	0.0	3427.001953125	46760.0	760.0	0.5975	-24.0	0.7813765182186235	-296.0	0.20850202429149797	8.258143447010246	2749.0	1320.0	-20.35335320082153	-679.0	-43.53635538255295	
2219.0	9.210364565391076	3.179313681964718	1801.0	1311.0	-2.2057558638393244	0.0	3446.533203125	47400.0	775.0	0.635	-33.0	0.7631578947368421	-282.0	0.18016194331983806	11.714329408166387	2696.0	1448.0	-22.468449563223075	-905.0	-42.74424871229634	
2207.0	9.459934176487165	3.1362747915735762	1804.0	1290.0	-2.059542632283175	0.0	3466.064453125	48040.0	775.0	0.635	-33.0	0.7631578947368421	-282.0	0.18016194331983806	12.157822296987309	2564.0	1525.0	-23.69075493079647	-934.0	-40.730999923099596	
2201.0	9.398342760711806	2.929514166418695	1821.0	1295.0	-1.9920046023175202	0.0	3485.595703125	48680.0	775.0	0.635	-33.0	0.7631578947368421	-282.0	0.18016194331983806	12.1272365805169	2533.0	1580.0	-24.540227033524687	-932.0	-40.263815650725	
2210.0	9.281889848741327	3.1889848741327667	1800.0	1305.0	-2.096413452222702	0.0	3505.126953125	49320.0	787.0	0.665	-37.0	0.7550607287449392	-262.0	0.1396761133603239	12.846000917571496	2581.0	1563.0	-24.300138032709672	-979.0	-40.99794997630684	
2207.0	9.141617744721252	3.447488757839306	1779.0	1317.0	-2.056501517275519	0.0	3524.658203125	49960.0	787.0	0.665	-37.0	0.7550607287449392	-262.0	0.1396761133603239	15.002293928735282	2633.0	1559.0	-24.316879951922928	-1120.0	-41.796030545721464	
2204.0	9.19954125136931	3.2874584702642085	1792.0	1312.0	-2.0229783096472875	0.0	3544.189453125	50600.0	787.0	0.665	-37.0	0.7550607287449392	-262.0	0.1396761133603239	20.339501452821533	2607.0	1461.0	-23.027026413282233	-1469.0	-41.384175435223824	
2187.0	8.648476589576552	2.942897052893267	1821.0	1358.0	-1.8305609075042004	0.0	3563.720703125	51240.0	787.0	0.665	-37.0	0.7550607287449392	-262.0	0.1396761133603239	10.123872151705156	2752.0	1405.0	-21.734875017524804	-801.0	-43.59620405169436	
2193.0	9.176332775339423	3.347563248228095	1787.0	1314.0	-1.8894781783663812	0.0	3583.251953125	51880.0	800.0	0.6975	-51.0	0.7267206477732794	-253.0	0.12145748987854252	6.65239333231381	2783.0	1488.0	-22.86787243251095	-574.0	-44.083213019246095	
2180.0	9.047950997962735	3.604623605797221	1766.0	1325.0	-1.7289942829646692	0.0	3602.783203125	52520.0	800.0	0.6975	-51.0	0.7267206477732794	-253.0	0.12145748987854252	20.048937146352657	2738.0	1676.0	-26.302158564445417	-1450.0	-43.427054115949815	
2171.0	9.183820165826445	2.9058261064541195	1823.0	1313.0	-1.633177806333135	0.0	3622.314453125	53160.0	800.0	0.6975	-51.0	0.7267206477732794	-253.0	0.12145748987854252	16.348065453433247	2704.0	1548.0	-24.19062411736438	-1208.0	-42.88422632710275	
2169.0	8.908112809611254	2.7160428658872244	1839.0	1336.0	-1.615634159164456	0.0	3641.845703125	53800.0	806.0	0.7125	-66.0	0.6963562753036437	-252.0	0.1194331983805668	20.72182290870164	2906.0	1375.0	-21.67370119380991	-1494.0	-45.95864279680845	
2151.0	8.855649617050474	3.4221045621903716	1781.0	1341.0	-1.385170087284483	0.0	3661.376953125	54440.0	806.0	0.7125	-66.0	0.6963562753036437	-252.0	0.1194331983805668	24.575623183973086	2808.0	1401.0	-22.242772362693305	-1746.0	-44.46057411000103	
2157.0	9.199728452234762	3.306178556809533	1790.0	1312.0	-1.4563369756667628	0.0	3680.908203125	55080.0	806.0	0.7125	-66.0	0.6963562753036437	-252.0	0.1194331983805668	28.6588163327726	2825.0	1112.0	-17.95845003095315	-2013.0	-44.67858710887176	
2153.0	8.9724814837307	3.2005293254509177	1799.0	1331.0	-1.4125296588946386	0.0	3700.439453125	55720.0	818.0	0.7425	-78.0	0.6720647773279352	-237.0	0.08906882591093118	21.027680073405723	2909.0	713.0	-11.503443409937756	-1514.0	-45.90297366994409	
2148.0	8.807914621677703	3.4105097868180874	1782.0	1345.0	-1.3497347544324032	0.0	3719.970703125	56360.0	818.0	0.7425	-78.0	0.6720647773279352	-237.0	0.08906882591093118	2.6150787582199118	3355.0	718.0	-10.775487000279986	-310.0	-52.739333817371225	
2157.0	9.131239888274346	3.6001793036250427	1766.0	1318.0	-1.451141846370057	0.0	3739.501953125	57000.0	818.0	0.7425	-78.0	0.6720647773279352	-237.0	0.08906882591093118	-5.276036091145436	3610.0	765.0	-11.143642854976672	206.0	-56.65585870874004	
2165.0	9.425517410044074	3.2660267186932175	1793.0	1293.0	-1.5512676650196708	0.0	3759.033203125	57640.0	818.0	0.7425	-78.0	0.6720647773279352	-237.0	0.08906882591093118	-3.3032573788040986	3778.0	923.0	-13.626922266779834	77.0	-59.25856475742306	
2180.0	9.710826648241607	3.2255219670177864	1796.0	1269.0	-1.7299475592374691	0.0	3778.564453125	58280.0	824.0	0.7575000000000001	-76.0	0.6761133603238867	-227.0	0.06882591093117409	0.948157210582658	3926.0	1100.0	-16.496640095365713	-201.0	-61.5582455171114	
2165.0	9.485638771761302	3.3257819380349307	1788.0	1288.0	-1.5494713470156642	0.0	3798.095703125	58920.0	824.0	0.7575000000000001	-76.0	0.6761133603238867	-227.0	0.06882591093117409	6.820614772901056	3933.0	1175.0	-17.883994214949443	-585.0	-61.679530443914125	
2158.0	9.1997296565711	3.306298990443357	1790.0	1312.0	-1.4683827477218072	0.0	3817.626953125	59560.0	824.0	0.7575000000000001	-76.0	0.6761133603238867	-227.0	0.06882591093117409	9.466279247591375	4116.0	1265.0	-19.345996588236186	-758.0	-64.50219097708384	
2160.0	9.557778384140281	3.396886033075868	1782.0	1282.0	-1.487086905135634	0.0	3837.158203125	60200.0	825.0	0.76	-84.0	0.659919028340081	-195.0	0.004048582995951417	4.893714635265331	4290.0	1416.0	-21.458902893150345	-459.0	-67.1932601966467	
2191.0	10.03171627677742	3.171627677742013	1800.0	1242.0	-1.8603466692195543	0.0	3856.689453125	60840.0	825.0	0.76	-84.0	0.659919028340081	-195.0	0.004048582995951417	10.368557883468421	4461.0	1557.0	-23.820318507216626	-817.0	-69.84078105832674	
2173.0	9.873306718535064	2.8068623296969126	1830.0	1255.0	-1.6523586018833618	0.0	3876.220703125	61480.0	825.0	0.76	-84.0	0.659919028340081	-195.0	0.004048582995951417	16.5315797522557	4134.0	1538.0	-23.82475267130283	-1220.0	-64.82317924376075	
2145.0	9.89744344414116	2.839582509354054	1827.0	1253.0	-1.3141134334437963	0.0	3895.751953125	62120.0	825.0	0.76	-84.0	0.659919028340081	-195.0	0.004048582995951417	13.947086710506195	4049.0	1495.0	-23.07305422854069	-1051.0	-63.511381148392516	
2172.0	9.75464752114105	2.8457044950574084	1827.0	1265.0	-1.6407201577790074	0.0	3915.283203125	62760.0	825.0	0.76	-90.0	0.6477732793522267	-155.0	-0.07692307692307693	20.155987153999085	4558.0	1597.0	-24.812122303901283	-1457.0	-71.3391140111317	
2182.0	9.94400036358268	2.7333696916011556	1836.0	1249.0	-1.7615552531345597	0.0	3934.814453125	63400.0	825.0	0.76	-90.0	0.6477732793522267	-155.0	-0.07692307692307693	19.834837131059796	4277.0	1470.0	-22.889041001825305	-1436.0	-67.00808329017785	
2166.0	10.57419719287671	2.6578145257660415	1841.0	1196.0	-1.5639933038209723	0.0	3954.345703125	64040.0	825.0	0.76	-90.0	0.6477732793522267	-155.0	-0.07692307692307693	18.183208441657747	4145.0	1520.0	-23.612270693948087	-1328.0	-64.98984374422658	
2177.0	10.292332532850875	3.0427770946114157	1810.0	1220.0	-1.6916428195262507	0.0	3973.876953125	64680.0	836.0	0.7875	-102.0	0.6234817813765182	-151.0	-0.08502024291497975	34.454809603914974	4252.0	1648.0	-26.215383688877417	-2392.0	-66.65773462559524	
2176.0	9.03250864284703	3.250864284703056	1795.0	1326.0	-1.688031121853372	0.0	3993.408203125	65320.0	836.0	0.7875	-102.0	0.6234817813765182	-151.0	-0.08502024291497975	39.76143141153082	3961.0	1439.0	-23.25770675939967	-2739.0	-62.16291311178612	
2190.0	8.735210058059863	3.2829105678910318	1793.0	1351.0	-1.859037880832665	0.0	4012.939453125	424.0	836.0	0.7875	-102.0	0.6234817813765182	-151.0	-0.08502024291497975	27.282459091604224	4186.0	1237.0	-19.617172557065093	-1923.0	-65.57901659284087	
2185.0	8.807959182122218	3.4149658312695634	1782.0	1345.0	-1.795428320469049	0.0	4032.470703125	1064.0	842.0	0.8025	-120.0	0.5870445344129555	-115.0	-0.15789473684210525	12.02018657287047	3990.0	1021.0	-15.714581344292963	-925.0	-62.532471883720675	
2179.0	9.616459800207831	3.312646687450005	1789.0	1277.0	-1.717100540538078	0.0	4052.001953125	1704.0	842.0	0.8025	-120.0	0.5870445344129555	-115.0	-0.15789473684210525	3.4714788193913444	4035.0	1014.0	-15.258097922656296	-366.0	-63.218408814119925	
2177.0	9.592165042174916	3.264123265110634	1793.0	1279.0	-1.694217571023026	0.0	4071.533203125	2344.0	842.0	0.8025	-120.0	0.5870445344129555	-115.0	-0.15789473684210525	8.686343477595964	4023.0	984.0	-15.007091481124	-707.0	-63.0317649458071	
2204.0	8.83117729284281	3.3558245223762664	1787.0	1343.0	-2.0252946281903115	0.0	4091.064453125	2984.0	842.0	0.8025	-120.0	0.5870445344129555	-115.0	-0.15789473684210525	17.12800122342866	4284.0	1101.0	-17.10422209506828	-1259.0	-67.05764648671715	
2197.0	8.518903488568888	3.08082504736515	1810.0	1369.0	-1.9495800063356823	0.0	4110.595703125	3624.0	837.0	0.79	-121.0	0.5850202429149798	-75.0	-0.2388663967611336	13.442422388744458	3989.0	1015.0	-15.679334253164894	-1018.0	-62.51677492915126	
2177.0	9.42260620599993	2.9749063142786496	1817.0	1293.0	-1.7016974984014157	0.0	4130.126953125	4264.0	837.0	0.79	-121.0	0.5850202429149798	-75.0	-0.2388663967611336	6.254779018198502	3844.0	1109.0	-16.85989135910672	-548.0	-60.303630369782574	
2170.0	9.826790746529047	2.9171698909998165	1821.0	1259.0	-1.6144730320641107	0.0	4149.658203125	4904.0	837.0	0.79	-121.0	0.5850202429149798	-75.0	-0.2388663967611336	11.362593668756691	3928.0	1369.0	-21.05028025001174	-882.0	-61.63447088597411	
2177.0	9.42260620599993	2.9749063142786496	1817.0	1293.0	-1.7016974984014157	0.0	4169.189453125	5544.0	836.0	0.7875	-129.0	0.5688259109311741	-39.0	-0.3117408906882591	25.936687566906258	4096.0	1781.0	-27.944262415707726	-1835.0	-64.28128396219606	
2184.0	9.24371337924272	2.9427664957005026	1820.0	1308.0	-1.788466572438141	0.0	4188.720703125	6184.0	836.0	0.7875	-129.0	0.5688259109311741	-39.0	-0.3117408906882591	27.74124483866035	3685.0	1721.0	-27.156654362130926	-1953.0	-57.96682509817096	
2163.0	8.973468745787484	3.2992555311293055	1791.0	1331.0	-1.5310271898713463	0.0	4208.251953125	6824.0	836.0	0.7875	-129.0	0.5688259109311741	-39.0	-0.3117408906882591	29.316409236886376	3606.0	1601.0	-25.386090270384624	-2056.0	-56.73690524826162	
2175.0	7.898978534124	2.993091507638043	1818.0	1421.0	-1.6924736857108182	0.0	4227.783203125	7464.0	836.0	0.7875	-129.0	0.5688259109311741	-39.0	-0.3117408906882591	24.30035173573941	3901.0	1320.0	-20.81822659328985	-1728.0	-61.21784929063752	
2185.0	8.06574565991884	3.003137420455331	1817.0	1407.0	-1.8110870239073675	0.0	4247.314453125	8104.0	836.0	0.7875	-148.0	0.5303643724696356	-17.0	-0.35627530364372473	-3.0126930723352197	3944.0	1166.0	-17.35058710868514	58.0	-61.842985693090846	
2196.0	9.601042736155232	2.961416472666137	1818.0	1278.0	-1.929098592582715	0.0	4266.845703125	8744.0	836.0	0.7875	-148.0	0.5303643724696356	-17.0	-0.35627530364372473	-21.914665851047562	3988.0	1247.0	-17.83367047605808	1294.0	-62.52297380772207	
2204.0	9.470126300771467	2.9650110295276653	1818.0	1289.0	-2.026721407967997	0.0	4286.376953125	9384.0	836.0	0.7875	-148.0	0.5303643724696356	-17.0	-0.35627530364372473	-8.27343630524545	3857.0	1253.0	-18.491648626975937	402.0	-60.51942623001689	
2213.0	9.372845840020872	2.760774478277668	1835.0	1297.0	-2.1402126785402618	0.0	4305.908203125	10024.0	821.0	0.75	-140.0	0.5465587044534413	16.0	-0.4230769230769231	0.0764642911760208	3574.0	1169.0	-17.577052092916592	-144.0	-56.167791389426945	
2204.0	9.514688222381668	2.6592984286429893	1843.0	1285.0	-2.0323900407695885	0.0	4325.439453125	10664.0	821.0	0.75	-140.0	0.5465587044534413	16.0	-0.4230769230769231	5.321914665851048	3312.0	1236.0	-18.85755528004989	-487.0	-52.16034170286955	
2181.0	9.447390982052225	3.072431538555743	1809.0	1291.0	-1.747691917239688	0.0	4344.970703125	11304.0	821.0	0.75	-140.0	0.5465587044534413	16.0	-0.4230769230769231	9.374522098180151	3028.0	1180.0	-18.20189753915815	-752.0	-47.795951766553166	
2206.0	8.875497818452336	3.0259723214242005	1814.0	1339.0	-2.0555448524954265	0.0	4364.501953125	11944.0	816.0	0.7375	-139.0	0.548582995951417	22.0	-0.4352226720647773	13.213029515216395	3234.0	1094.0	-17.00107487767833	-1003.0	-50.9449071735121	
2188.0	9.150449673920715	3.1402054873095087	1804.0	1316.0	-1.8336432007435184	0.0	4384.033203125	12584.0	816.0	0.7375	-139.0	0.548582995951417	22.0	-0.4352226720647773	3.63970025997859	2822.0	861.0	-13.097687328739829	-377.0	-44.583946030875246	
2184.0	9.221615271942632	3.1139081466441185	1806.0	1310.0	-1.7852647204922698	0.0	4403.564453125	13224.0	816.0	0.7375	-139.0	0.548582995951417	22.0	-0.4352226720647773	1.131671509405108	2769.0	796.0	-12.005761770100408	-213.0	-43.75976914140824	
2181.0	9.24383166857038	2.9545954284665505	1819.0	1308.0	-1.7520842325762904	0.0	4423.095703125	13864.0	816.0	0.7375	-139.0	0.548582995951417	22.0	-0.4352226720647773	-0.9175714941122497	2617.0	686.0	-10.255243339636545	-79.0	-41.40990244106861	
2195.0	9.612334390142287	2.900105680895543	1823.0	1277.0	-1.918163699107172	0.0	4442.626953125	14504.0	802.0	0.7025	-146.0	0.5344129554655871	50.0	-0.49190283400809715	-2.385685884691849	2604.0	637.0	-9.444864389429377	17.0	-41.20232036401091	
2185.0	9.242983169559006	2.869745527329213	1826.0	1308.0	-1.8019824866734884	0.0	4462.158203125	15144.0	802.0	0.7025	-146.0	0.5344129554655871	50.0	-0.49190283400809715	3.440893102920936	2359.0	576.0	-8.777271111252107	-364.0	-37.43624593498854	
2186.0	9.101618761854205	3.019019042563378	1814.0	1320.0	-1.8124588532169372	0.0	4481.689453125	15784.0	802.0	0.7025	-146.0	0.5344129554655871	50.0	-0.49190283400809715	4.205536014681145	2212.0	496.0	-7.599951039924136	-414.0	-35.1688336365309	
2211.0	9.41098858810201	3.0036207149628686	1815.0	1294.0	-2.110877940783578	0.0	4501.220703125	16424.0	790.0	0.6725	-133.0	0.5607287449392713	66.0	-0.5242914979757085	3.884385991741857	2311.0	610.0	-9.32531783637109	-393.0	-36.705191186649735	
2179.0	9.32873058032187	3.111153270282414	1806.0	1301.0	-1.7240077010802897	0.0	4520.751953125	17064.0	790.0	0.6725	-133.0	0.5607287449392713	66.0	-0.5242914979757085	8.059336289952594	1771.0	592.0	-9.298298282082657	-666.0	-28.4188998157194	
2180.0	8.995099717458622	3.0814003172906164	1809.0	1329.0	-1.7399872615398422	0.0	4540.283203125	17704.0	790.0	0.6725	-133.0	0.5607287449392713	66.0	-0.5242914979757085	10.429729316409238	1866.0	556.0	-8.824823131328449	-821.0	-29.871891011733727	
2202.0	9.184954621283007	3.0192716521103233	1814.0	1313.0	-2.00439152676906	0.0	4559.814453125	18344.0	790.0	0.6725	-133.0	0.5607287449392713	66.0	-0.5242914979757085	5.398378957027069	2098.0	604.0	-9.326267716877531	-492.0	-33.436825666274196	
2203.0	9.50607601112879	2.9885534938313505	1816.0	1286.0	-2.0138428688072656	0.0	4579.345703125	18984.0	791.0	0.675	-139.0	0.548582995951417	81.0	-0.5546558704453441	2.4009787429270535	2052.0	569.0	-8.675116574942917	-296.0	-32.724467906581104	
2200.0	9.37575583972868	3.051774449058412	1811.0	1297.0	-1.9777370731034727	0.0	4598.876953125	19624.0	791.0	0.675	-139.0	0.548582995951417	81.0	-0.5546558704453441	8.793393485242392	2058.0	586.0	-9.191339104404475	-714.0	-32.821697033824464	
2181.0	9.139270287579627	3.2127430436770323	1798.0	1317.0	-1.7479668940819884	0.0	4618.408203125	20264.0	791.0	0.675	-139.0	0.548582995951417	81.0	-0.5546558704453441	12.509558036397005	1903.0	509.0	-8.179437662136385	-957.0	-30.433183052392426	
2196.0	9.102484121574314	3.1055550145742465	1807.0	1320.0	-1.931201407890362	0.0	4637.939453125	20904.0	780.0	0.6475	-140.0	0.5465587044534413	83.0	-0.5587044534412956	10.001529285823521	2189.0	525.0	-8.281337081065907	-793.0	-34.822724372805446	
2190.0	9.363597621685178	3.026428835184314	1813.0	1298.0	-1.8578836398505463	0.0	4657.470703125	21544.0	780.0	0.6475	-140.0	0.5465587044534413	83.0	-0.5587044534412956	5.750114696436764	2171.0	515.0	-7.960252124196717	-515.0	-34.5433128173905	
2206.0	9.18239948955818	2.763758479627722	1835.0	1313.0	-2.0577201126202977	0.0	4677.001953125	22184.0	780.0	0.6475	-140.0	0.5465587044534413	83.0	-0.5587044534412956	7.2488148034867725	2244.0	509.0	-7.916709516360347	-613.0	-35.66302469835526	
2181.0	9.443368204941942	2.670153827527621	1842.0	1291.0	-1.7557776992313534	0.0	4696.533203125	22824.0	767.0	0.615	-150.0	0.5263157894736842	107.0	-0.6072874493927125	9.527450680532192	2188.0	544.0	-8.554762767933102	-762.0	-34.810114146016	
2159.0	9.529949662680123	2.994966268012275	1815.0	1284.0	-1.483355394880423	0.0	4716.064453125	23464.0	767.0	0.615	-150.0	0.5263157894736842	107.0	-0.6072874493927125	12.035479431105674	1944.0	604.0	-9.615353332112663	-926.0	-31.076666039075313	
2197.0	9.159681031547674	2.8728650595293312	1826.0	1315.0	-1.947331430662611	0.0	4735.595703125	24104.0	767.0	0.615	-150.0	0.5263157894736842	107.0	-0.6072874493927125	16.195136871081207	2373.0	838.0	-13.31498807038465	-1198.0	-37.696445875793614	
2182.0	9.312321436867135	2.6607151152848645	1843.0	1302.0	-1.769325133928041	0.0	4755.126953125	24744.0	767.0	0.615	-150.0	0.5263157894736842	107.0	-0.6072874493927125	10.720293622878117	2236.0	796.0	-12.471046224091735	-840.0	-35.58581219616758	
2186.0	9.395520941923204	2.6473322875584064	1844.0	1295.0	-1.8169535665163465	0.0	4774.658203125	25384.0	756.0	0.5875	-137.0	0.5526315789473685	125.0	-0.6437246963562753	7.309986236427589	2180.0	756.0	-11.728011187594435	-617.0	-34.71909076094761	
2196.0	9.286705022512201	2.480026060743966	1858.0	1304.0	-1.9418697779575886	0.0	4794.189453125	26024.0	756.0	0.5875	-137.0	0.5526315789473685	125.0	-0.6437246963562753	9.145129224652088	2255.0	737.0	-11.497668849802649	-737.0	-35.867623611929055	
2192.0	9.226335038776272	2.3954086395319205	1865.0	1309.0	-1.895973055134852	0.0	4813.720703125	26664.0	756.0	0.5875	-137.0	0.5526315789473685	125.0	-0.6437246963562753	6.453586175256156	2144.0	624.0	-9.669028244766908	-561.0	-34.146099519826834	
2184.0	9.475299955534338	2.2919003153384794	1873.0	1288.0	-1.7991680302824653	0.0	4833.251953125	27304.0	750.0	0.5725	-140.0	0.5465587044534413	140.0	-0.6740890688259109	2.003364428811745	1803.0	460.0	-7.020920057896963	-270.0	-28.88714951053754	
2223.0	9.542738367581869	1.892884377234424	1906.0	1282.0	-2.2763534829963605	0.0	4852.783203125	27944.0	750.0	0.5725	-140.0	0.5465587044534413	140.0	-0.6740890688259109	-2.875057348218382	1949.0	435.0	-6.418884222138797	49.0	-31.121423766266197	
2228.0	9.681671954571195	1.5005287904528244	1938.0	1270.0	-2.34305222271752	0.0	4872.314453125	28584.0	750.0	0.5725	-140.0	0.5465587044534413	140.0	-0.6740890688259109	-2.003364428811745	1791.0	313.0	-4.601543593213785	-8.0	-28.678821941993213	
2199.0	9.531172800513005	1.926803860824388	1903.0	1283.0	-1.9866341224892257	0.0	4891.845703125	29224.0	750.0	0.5725	-140.0	0.5465587044534413	140.0	-0.6740890688259109	1.2846000917571496	1088.0	91.0	-1.4263921568740885	-223.0	-17.859898415968008	
