Device	Device	Device	Device	Device	Device	Device	Device	Device	Device	Device	Device	Device	Device	Device	Device	Device	Device	Device	Device	Device	Device	Device	Device	Device	Device	Device	
Low Noise Accelerometer X	Low Noise Accelerometer X	Low Noise Accelerometer Z	Low Noise Accelerometer Z	Low Noise Accelerometer Y	Low Noise Accelerometer Y	Wide Range Accelerometer X	Wide Range Accelerometer X	Wide Range Accelerometer Z	Wide Range Accelerometer Z	Wide Range Accelerometer Y	Wide Range Accelerometer Y	Event_Marker	Timestamp	Timestamp	Magnetometer Z	Magnetometer Z	Magnetometer X	Magnetometer X	Magnetometer Y	Magnetometer Y	Gyroscope Y	Gyroscope Y	Gyroscope Z	Gyroscope Z	Gyroscope X	Gyroscope X	
CAL	UNCAL	CAL	UNCAL	CAL	UNCAL	UNCAL	CAL	CAL	UNCAL	CAL	UNCAL	CAL	CAL	UNCAL	UNCAL	CAL	CAL	UNCAL	CAL	UNCAL	CAL	UNCAL	UNCAL	CAL	CAL	UNCAL	
m/(s^2)	no units	m/(s^2)	no units	m/(s^2)	no units	no units	m/(s^2)	m/(s^2)	no units	m/(s^2)	no units	no units	ms	no units	no units	local_flux	local_flux	no units	local_flux	no units	deg/s	no units	no units	deg/s	deg/s	no units	
0.31220684104024965	2102.0	10.099114092674494	1241.0	-0.38986269427731024	2047.0	-64.0	0.03923973022685469	9.770692826486817	-15936.0	-0.5885959534028203	-960.0	0.0	98.358154296875	3223.0	1247.0	0.7521739130434782	0.2383838383838384	-639.0	-0.6646706586826349	-428.0	-2.647231276115891	665.0	-1.0	1.0268095898156537	-9.418394607390931	123.0	
0.7032926234502493	2099.0	10.22461251008348	1230.0	-0.3485522739658674	2015.0	-640.0	0.39239730226854685	9.888412017167381	-16128.0	-0.5885959534028203	-960.0	0.0	117.889404296875	3863.0	1249.0	0.7565217391304347	0.23030303030303031	-643.0	-0.6546906187624751	-433.0	-3.5198592153466164	686.0	-32.0	1.565087775977256	-9.729059962979614	180.0	
0.6802392368317749	2100.0	10.347245845193767	1220.0	-0.3596046672520336	2017.0	-896.0	0.5493562231759657	9.849172286940528	-16064.0	-0.5885959534028203	-960.0	0.0	137.420654296875	4503.0	1246.0	0.75	0.23030303030303031	-643.0	-0.6906187624750499	-415.0	0.32604186526653745	640.0	-65.0	1.7641808935802112	-9.067899201922627	-70.0	
0.7536466412694325	2108.0	10.274534537021816	1226.0	-0.45598324845805116	2011.0	-896.0	0.5493562231759657	9.809932556713672	-16000.0	-0.6670754138565297	-1088.0	0.0	156.951904296875	5143.0	1245.0	0.7478260869565218	0.21818181818181817	-649.0	-0.6546906187624751	-433.0	2.67036762036282	505.0	-21.0	0.859216378541429	-7.038110520310092	-222.0	
0.8997050402215874	2109.0	10.235247612749601	1229.0	-0.46696372648233614	1999.0	-1216.0	0.745554874310239	9.888412017167381	-16128.0	-0.745554874310239	-1216.0	0.0	176.483154296875	5783.0	1246.0	0.75	0.2222222222222222	-647.0	-0.6826347305389222	-419.0	8.942039936892545	301.0	83.0	-1.2606188683724642	-3.998165646517215	-630.0	
0.42483909382364343	2108.0	10.317753171606963	1223.0	-0.45883913758665756	2038.0	-896.0	0.5493562231759657	9.927651747394236	-16192.0	-0.745554874310239	-1216.0	0.0	196.014404296875	6423.0	1247.0	0.7521739130434782	0.23636363636363636	-640.0	-0.6826347305389222	-419.0	8.972830737953679	154.0	123.0	-1.9518917158460334	-1.7627321096609057	-631.0	
0.42363022132777267	2107.0	10.207802519545396	1232.0	-0.4479025400611476	2038.0	-320.0	0.19619865113427343	9.888412017167381	-16128.0	-0.6670754138565297	-1088.0	0.0	215.545654296875	7063.0	1247.0	0.7521739130434782	0.21616161616161617	-650.0	-0.6766467065868265	-422.0	-3.7142547232453063	-49.0	241.0	-2.96148410888476	1.4515912164339742	197.0	
0.6661213472018028	2102.0	10.12854449942234	1238.0	-0.38602924514821624	2018.0	-704.0	0.4316370324954016	9.809932556713672	-16000.0	-0.6670754138565297	-1088.0	0.0	235.076904296875	7703.0	1247.0	0.7521739130434782	0.22424242424242424	-646.0	-0.7025948103792417	-409.0	-10.439070385025232	-194.0	328.0	-3.8859976926684876	3.7241625669681233	636.0	
1.2497256807975672	2094.0	10.053867306722774	1243.0	-0.28455443157057964	1970.0	-1472.0	0.9025137952176578	9.731453096259962	-15872.0	-0.5885959534028203	-960.0	0.0	254.608154296875	8343.0	1243.0	0.7434782608695653	0.24444444444444444	-636.0	-0.6826347305389222	-419.0	-0.07604483625440245	-290.0	351.0	-5.010494898894929	5.080608357107792	-39.0	
0.8585343384728437	2104.0	9.832515963587408	1262.0	-0.4111617861360238	2002.0	-1344.0	0.8240343347639485	9.53525444512569	-15552.0	-0.5885959534028203	-960.0	0.0	274.139404296875	8983.0	1239.0	0.7347826086956522	0.23636363636363636	-640.0	-0.7045908183632735	-408.0	19.423308455885024	-315.0	335.0	-6.142978953533103	5.265842961068527	-1310.0	
0.0922713048412614	2099.0	10.09064047171242	1242.0	-0.35600220753566786	2065.0	-512.0	0.3139178418148375	9.613733905579398	-15680.0	-0.6670754138565297	-1088.0	0.0	293.670654296875	9623.0	1248.0	0.7543478260869565	0.21818181818181817	-649.0	-0.6806387225548903	-420.0	21.191589191640926	-259.0	455.0	-8.031083301452187	4.396449127094997	-1427.0	
-0.09144537340498127	2099.0	10.009002022644273	1249.0	-0.3586557588088118	2080.0	640.0	-0.39239730226854685	9.731453096259962	-15872.0	-0.5493562231759657	-896.0	0.0	313.201904296875	10263.0	1249.0	0.7565217391304347	0.2222222222222222	-647.0	-0.6846307385229542	-418.0	2.27818026187494	-150.0	573.0	-8.417513695147091	2.9277885395865737	-196.0	
0.30940549413803226	2090.0	9.96216016293939	1252.0	-0.24668193379067144	2047.0	-64.0	0.03923973022685469	9.574494175352545	-15616.0	-0.4316370324954016	-704.0	0.0	332.733154296875	10903.0	1250.0	0.7586956521739131	0.22828282828282828	-644.0	-0.6467065868263474	-437.0	-9.900274846102752	-47.0	581.0	-7.627171652658677	1.4830331667119783	597.0	
0.5414312532244013	2102.0	9.850631017139092	1261.0	-0.39005528091082275	2028.0	-448.0	0.27467811158798283	9.574494175352545	-15616.0	-0.5493562231759657	-896.0	0.0	352.264404296875	11543.0	1250.0	0.7586956521739131	0.22828282828282828	-644.0	-0.656686626746507	-432.0	-3.3026422210296436	14.0	401.0	-5.350605942541401	0.4893001864688516	168.0	
0.26212654765770205	2108.0	9.894295388303494	1258.0	-0.46470084088135166	2051.0	-448.0	0.27467811158798283	9.53525444512569	-15552.0	-0.7063151440833844	-1152.0	0.0	371.795654296875	12183.0	1248.0	0.7543478260869565	0.2383838383838384	-639.0	-0.6666666666666667	-427.0	9.394667515154397	88.0	238.0	-3.7455415778284387	-0.7631481960640916	-659.0	
-0.18811080795188645	2109.0	9.976785380451117	1252.0	-0.4804265072870557	2088.0	448.0	-0.27467811158798283	9.574494175352545	-15616.0	-0.7063151440833844	-1152.0	0.0	391.326904296875	12823.0	1252.0	0.7630434782608696	0.23030303030303031	-643.0	-0.660678642714571	-430.0	4.950457329818132	230.0	281.0	-3.9945143773988305	-2.878401911701223	-371.0	
0.21395109086655606	2102.0	10.027942361466927	1247.0	-0.39155696909112286	2055.0	384.0	-0.23543838136112813	9.613733905579398	-15680.0	-0.7063151440833844	-1152.0	0.0	410.858154296875	13463.0	1249.0	0.7565217391304347	0.2222222222222222	-647.0	-0.6706586826347306	-425.0	-9.20039644995833	339.0	345.0	-3.9028234071342047	-4.394688050709543	550.0	
0.5810440210397296	2112.0	10.035130407173725	1246.0	-0.5082960870431664	2025.0	-448.0	0.27467811158798283	9.613733905579398	-15680.0	-0.627835683629675	-1024.0	0.0	430.389404296875	14103.0	1248.0	0.7543478260869565	0.24242424242424243	-637.0	-0.6666666666666667	-427.0	-8.414257435309864	330.0	225.0	-2.1639135179497284	-4.2656673115784605	500.0	
0.545434996283815	2112.0	10.133391032958393	1238.0	-0.5076695710328789	2028.0	-640.0	0.39239730226854685	9.770692826486817	-15936.0	-0.7847946045370937	-1280.0	0.0	449.920654296875	14743.0	1248.0	0.7543478260869565	0.24646464646464647	-635.0	-0.6726546906187626	-424.0	1.5890360087735977	364.0	168.0	-1.9848856173683713	-4.882810512178991	-152.0	
0.5457970103987088	2112.0	10.169961771979127	1235.0	-0.5073002435015227	2028.0	-704.0	0.4316370324954016	9.809932556713672	-16000.0	-0.745554874310239	-1216.0	0.0	469.451904296875	15383.0	1247.0	0.7521739130434782	0.23232323232323232	-642.0	-0.6766467065868265	-422.0	8.447518942289461	365.0	148.0	-2.1617775895595455	-4.966604466989435	-599.0	
0.2412474045081484	2110.0	10.224401346197308	1231.0	-0.48570495827607774	2053.0	-256.0	0.15695892090741875	9.809932556713672	-16000.0	-0.7847946045370937	-1280.0	0.0	488.983154296875	16023.0	1242.0	0.741304347826087	0.24646464646464647	-635.0	-0.6766467065868265	-422.0	12.328056421694699	360.0	151.0	-2.4798823344655845	-4.9293642144070615	-852.0	
0.17897132832349616	2114.0	10.043732482862298	1246.0	-0.5363271787556118	2058.0	192.0	-0.11771919068056406	9.770692826486817	-15936.0	-0.627835683629675	-1024.0	0.0	508.514404296875	16663.0	1244.0	0.7456521739130435	0.22424242424242424	-646.0	-0.6666666666666667	-427.0	8.260724997003086	251.0	175.0	-2.622927944334314	-3.2308962233540615	-586.0	
0.4352312823899539	2113.0	10.074894201444675	1243.0	-0.521404769258039	2037.0	-256.0	0.15695892090741875	9.692213366033108	-15808.0	-0.8632740649908032	-1408.0	0.0	528.045654296875	17303.0	1247.0	0.7521739130434782	0.23030303030303031	-643.0	-0.6846307385229542	-418.0	2.7489959721054995	112.0	144.0	-1.8591067256521236	-1.0617104920404465	-225.0	
0.7522136962667649	2115.0	10.044588901552746	1245.0	-0.5426343836603589	2011.0	-704.0	0.4316370324954016	9.652973635806253	-15744.0	-0.8240343347639485	-1344.0	0.0	547.576904296875	17943.0	1247.0	0.7521739130434782	0.2404040404040404	-638.0	-0.6506986027944113	-435.0	6.787630552731012	90.0	132.0	-1.9736696779043994	-0.7674960773904279	-488.0	
0.4100036523025586	2113.0	9.990054913771438	1250.0	-0.5225054384356453	2039.0	-704.0	0.4316370324954016	9.652973635806253	-15744.0	-0.745554874310239	-1216.0	0.0	567.108154296875	18583.0	1246.0	0.75	0.22424242424242424	-646.0	-0.6666666666666667	-427.0	20.05059445475515	169.0	181.0	-3.583343812641549	-2.1016466289581976	-1354.0	
-0.15127995802275168	2116.0	9.916764538682756	1257.0	-0.5649957566030382	2085.0	320.0	-0.19619865113427343	9.53525444512569	-15552.0	-0.8240343347639485	-1344.0	0.0	586.639404296875	19223.0	1245.0	0.7478260869565218	0.22424242424242424	-646.0	-0.6706586826347306	-425.0	22.51517270430317	261.0	225.0	-4.358579041978583	-3.525531955179914	-1516.0	
-0.15273017326188498	2115.0	9.7824333939407	1268.0	-0.5543053774317659	2085.0	704.0	-0.4316370324954016	9.45677498467198	-15424.0	-0.7847946045370937	-1280.0	0.0	606.170654296875	19863.0	1243.0	0.7434782608695653	0.22424242424242424	-646.0	-0.6526946107784432	-434.0	9.33443722159778	330.0	302.0	-4.5536454546761975	-4.443154258147536	-658.0	
0.10367203997178605	2124.0	9.706267245454555	1274.0	-0.6609367517240496	2064.0	384.0	-0.23543838136112813	9.182096873083998	-14976.0	-0.8632740649908032	-1408.0	0.0	625.701904296875	20503.0	1249.0	0.7565217391304347	0.22424242424242424	-646.0	-0.656686626746507	-432.0	-2.751081350012665	375.0	258.0	-3.0254467713190563	-5.006709718819265	130.0	
0.642033728948044	2127.0	9.854622145289387	1261.0	-0.6902141641491918	2020.0	-640.0	0.39239730226854685	9.339055793991415	-15232.0	-1.020232985898222	-1664.0	0.0	645.233154296875	21143.0	1244.0	0.7456521739130435	0.21818181818181817	-649.0	-0.6946107784431139	-413.0	2.3083800749286403	427.0	219.0	-2.7612426593294663	-5.848178857783507	-200.0	
-0.16114844429093111	2130.0	9.981300078729365	1252.0	-0.7331237848604347	2086.0	64.0	-0.03923973022685469	9.613733905579398	-15680.0	-0.9809932556713672	-1600.0	0.0	664.764404296875	21783.0	1245.0	0.7478260869565218	0.21818181818181817	-649.0	-0.6546906187624751	-433.0	22.684327186119095	638.0	162.0	-3.196470845613737	-9.261063804180584	-1530.0	
-0.6098084369510804	2135.0	10.17445602793666	1237.0	-0.7959197891503849	2123.0	1152.0	-0.7063151440833844	9.652973635806253	-15744.0	-1.020232985898222	-1664.0	0.0	684.295654296875	22423.0	1241.0	0.7391304347826088	0.20404040404040405	-656.0	-0.6826347305389222	-419.0	25.042126185764225	725.0	207.0	-3.982308568000713	-10.607835710526844	-1685.0	
-0.31575657954155434	2139.0	10.267022498154386	1229.0	-0.8402463769584496	2099.0	1088.0	-0.6670754138565297	9.888412017167381	-16128.0	-1.0987124463519313	-1792.0	0.0	703.826904296875	23063.0	1247.0	0.7521739130434782	0.2	-658.0	-0.7045908183632735	-408.0	12.334009724150008	713.0	177.0	-2.6553489300567223	-10.298245040207279	-856.0	
-0.2554047689643276	2138.0	10.216791986022855	1233.0	-0.8280969712029085	2094.0	832.0	-0.510116492949111	9.809932556713672	-16000.0	-1.137952176578786	-1856.0	0.0	723.358154296875	23703.0	1245.0	0.7478260869565218	0.19797979797979798	-659.0	-0.6806387225548903	-420.0	7.693986918133537	724.0	119.0	-1.4561461101575457	-10.419145192375254	-553.0	
-0.5716588370522346	2138.0	10.296335141274495	1227.0	-0.8304640803312712	2120.0	960.0	-0.5885959534028203	9.809932556713672	-16000.0	-1.0987124463519313	-1792.0	0.0	742.889404296875	24343.0	1244.0	0.7456521739130435	0.19393939393939394	-661.0	-0.6886227544910181	-416.0	7.787116317781198	677.0	55.0	-0.5317008323864992	-9.705247589033325	-558.0	
-0.1572588962644742	2143.0	10.216014414185793	1233.0	-0.8873642520497023	2086.0	1216.0	-0.745554874310239	9.888412017167381	-16128.0	-1.137952176578786	-1856.0	0.0	762.420654296875	24983.0	1241.0	0.7391304347826088	0.21212121212121213	-652.0	-0.6906187624750499	-415.0	-1.008139638333276	560.0	12.0	0.6539479361041487	-7.837827348863816	17.0	
0.04962968119231598	2141.0	10.199161585824775	1234.0	-0.8613675090165759	2069.0	128.0	-0.07847946045370938	9.731453096259962	-15872.0	-1.137952176578786	-1856.0	0.0	781.951904296875	25623.0	1242.0	0.741304347826087	0.2	-658.0	-0.6726546906187626	-424.0	-6.421917016275651	343.0	-85.0	2.3530044960516783	-4.48330934694751	373.0	
0.03755456976184257	2139.0	10.23550167320101	1231.0	-0.8370284737149495	2070.0	192.0	-0.11771919068056406	9.849172286940528	-16064.0	-1.137952176578786	-1856.0	0.0	801.483154296875	26263.0	1244.0	0.7456521739130435	0.2	-658.0	-0.7105788423153694	-405.0	1.0203429271783098	224.0	-97.0	1.9425378117024368	-2.7478460148231143	-111.0	
-0.15702402985988628	2140.0	10.276250340888911	1228.0	-0.8506149658053722	2086.0	320.0	-0.19619865113427343	9.888412017167381	-16128.0	-1.137952176578786	-1856.0	0.0	821.014404296875	26903.0	1244.0	0.7456521739130435	0.21212121212121213	-652.0	-0.6986027944111778	-411.0	6.5035143613792155	129.0	-57.0	0.9034142531509326	-1.3578108090130319	-468.0	
-0.0841230574838939	2137.0	10.286247972105627	1227.0	-0.813641401456192	2080.0	512.0	-0.3139178418148375	9.888412017167381	-16128.0	-1.0987124463519313	-1792.0	0.0	840.545654296875	27543.0	1241.0	0.7391304347826088	0.21212121212121213	-652.0	-0.6726546906187626	-424.0	2.1240541239600037	21.0	2.0	0.2579635424826475	0.32856934469195886	-182.0	
1.1388663587691417E-4	2129.0	10.270426717290778	1228.0	-0.7165717023944682	2073.0	192.0	-0.11771919068056406	9.888412017167381	-16128.0	-0.9809932556713672	-1600.0	0.0	860.076904296875	28183.0	1244.0	0.7456521739130435	0.19797979797979798	-659.0	-0.6986027944111778	-411.0	-4.896871940793166	-102.0	99.0	-0.7824817643171507	2.2695010387995667	276.0	
0.40086998816195774	2132.0	10.067972875155132	1244.0	-0.7507332581138167	2040.0	256.0	-0.15695892090741875	9.692213366033108	-15808.0	-1.020232985898222	-1664.0	0.0	879.608154296875	28823.0	1240.0	0.7369565217391304	0.21818181818181817	-649.0	-0.6986027944111778	-411.0	-6.42462421182524	-152.0	108.0	-0.8415009909370219	3.0452348352741465	376.0	
0.27881307656486176	2122.0	10.17776292576603	1235.0	-0.6303739990128355	2050.0	-640.0	0.39239730226854685	9.692213366033108	-15808.0	-0.9809932556713672	-1600.0	0.0	899.139404296875	29463.0	1250.0	0.7586956521739131	0.20606060606060606	-655.0	-0.6706586826347306	-425.0	4.761212464142607	-270.0	86.0	-1.3619872133689594	4.728053274598118	-352.0	
-0.6827374734613295	2125.0	10.31983194415134	1225.0	-0.6747133926424972	2129.0	960.0	-0.5885959534028203	9.966891477621092	-16256.0	-0.9025137952176578	-1472.0	0.0	918.670654296875	30103.0	1249.0	0.7565217391304347	0.1898989898989899	-663.0	-0.6946107784431139	-413.0	23.176796843245704	-317.0	57.0	-2.2375224333524195	5.258726328145491	-1552.0	
-0.5130460776076843	2114.0	10.350332841219704	1222.0	-0.5401813492313494	2115.0	1536.0	-0.9417535254445125	9.849172286940528	-16064.0	-0.8632740649908032	-1408.0	0.0	938.201904296875	30743.0	1248.0	0.7543478260869565	0.20606060606060606	-655.0	-0.6646706586826349	-428.0	16.181913114048275	-260.0	112.0	-2.5405894258635544	4.46175501334621	-1097.0	
-0.10962009444880844	2124.0	10.332401739183299	1223.0	-0.6568083281309681	2082.0	896.0	-0.5493562231759657	10.006131207847945	-16320.0	-0.9025137952176578	-1472.0	0.0	957.733154296875	31383.0	1250.0	0.7586956521739131	0.2	-658.0	-0.6646706586826349	-428.0	1.2546038823356267	-165.0	49.0	-0.4993262903983364	3.166161185511245	-124.0	
0.18347070954678402	2130.0	10.303542615997316	1225.0	-0.726455167949378	2058.0	64.0	-0.03923973022685469	9.888412017167381	-16128.0	-0.9417535254445125	-1536.0	0.0	977.264404296875	32023.0	1245.0	0.7478260869565218	0.19797979797979798	-659.0	-0.7045908183632735	-408.0	12.710167961426459	-56.0	53.0	-1.2902917782233188	1.3938108679142527	-872.0	
-0.42610039382307063	2131.0	10.303901722368316	1226.0	-0.7445954806904509	2108.0	448.0	-0.27467811158798283	9.966891477621092	-16256.0	-1.0594727161250765	-1728.0	0.0	996.795654296875	32663.0	1248.0	0.7543478260869565	0.20202020202020202	-657.0	-0.6646706586826349	-428.0	11.524900224759397	-88.0	113.0	-2.1268150492472127	1.892355560490049	-795.0	
-0.4271993888451011	2125.0	10.265900373351375	1229.0	-0.6726973275043346	2108.0	1152.0	-0.7063151440833844	9.888412017167381	-16128.0	-0.9809932556713672	-1600.0	0.0	1016.326904296875	33303.0	1251.0	0.7608695652173914	0.18181818181818182	-667.0	-0.6666666666666667	-427.0	-2.354272852740878	-190.0	207.0	-2.6321731873161944	3.5824780897441393	110.0	
-0.1586337745026986	2121.0	10.34486155394239	1222.0	-0.6210292884706632	2086.0	512.0	-0.3139178418148375	9.849172286940528	-16064.0	-0.9417535254445125	-1536.0	0.0	1035.858154296875	33943.0	1248.0	0.7543478260869565	0.18383838383838383	-666.0	-0.6886227544910181	-416.0	-4.695217494527745	-148.0	231.0	-2.803512199404372	2.967104266200031	262.0	
-0.17093079966041064	2128.0	10.249254846570247	1230.0	-0.706445675193552	2087.0	704.0	-0.4316370324954016	9.888412017167381	-16128.0	-0.8632740649908032	-1408.0	0.0	1055.389404296875	34583.0	1248.0	0.7543478260869565	0.15555555555555556	-680.0	-0.7285429141716567	-396.0	-1.8182639224435204	-37.0	268.0	-3.490942289591828	1.2501218027225343	73.0	
-0.24456443538442346	2127.0	10.213922982675571	1233.0	-0.6954871374186545	2093.0	448.0	-0.27467811158798283	9.731453096259962	-15872.0	-1.020232985898222	-1664.0	0.0	1074.920654296875	35223.0	1248.0	0.7543478260869565	0.1919191919191919	-662.0	-0.6866267465069861	-417.0	-1.1934803841039259	-96.0	250.0	-3.3004556925156696	2.1412123703809636	33.0	
-0.48925355130251486	2120.0	10.217178304764747	1233.0	-0.6135641259593534	2113.0	1088.0	-0.6670754138565297	9.849172286940528	-16064.0	-0.9025137952176578	-1472.0	0.0	1094.451904296875	35863.0	1251.0	0.7608695652173914	0.19595959595959597	-660.0	-0.6986027944111778	-411.0	-6.739530796515528	-148.0	261.0	-3.1110031060298007	2.987547399219909	395.0	
-0.06291644069237783	2119.0	10.183941734686577	1235.0	-0.5975849277829494	2078.0	640.0	-0.39239730226854685	9.809932556713672	-16000.0	-0.8632740649908032	-1408.0	0.0	1113.983154296875	36503.0	1251.0	0.7608695652173914	0.21212121212121213	-652.0	-0.658682634730539	-431.0	-5.492701619534978	-138.0	221.0	-2.591998616632495	2.822987852697251	314.0	
-0.22139037739431772	2126.0	10.103479893905527	1242.0	-0.6843116349553696	2091.0	320.0	-0.19619865113427343	9.692213366033108	-15808.0	-0.9417535254445125	-1536.0	0.0	1133.514404296875	37143.0	1246.0	0.75	0.20404040404040405	-656.0	-0.6786427145708583	-421.0	3.0563175944884913	-31.0	177.0	-2.462245131976767	1.110121234701503	-244.0	
-0.35536934735688264	2129.0	10.082523108119753	1244.0	-0.722005570826106	2102.0	704.0	-0.4316370324954016	9.574494175352545	-15616.0	-0.9809932556713672	-1600.0	0.0	1153.045654296875	37783.0	1249.0	0.7565217391304347	0.21616161616161617	-650.0	-0.6786427145708583	-421.0	3.280690573284649	-52.0	133.0	-1.830966991782678	1.42726913989453	-258.0	
-0.42865608042290904	2121.0	10.16742466263195	1237.0	-0.6255038804429696	2108.0	1088.0	-0.6670754138565297	9.574494175352545	-15616.0	-0.9417535254445125	-1536.0	0.0	1172.576904296875	38423.0	1250.0	0.7586956521739131	0.21414141414141413	-651.0	-0.6506986027944113	-435.0	-0.9932822038736234	-2.0	153.0	-1.8029303105044105	0.7095525939018541	20.0	
-0.35490393210682325	2121.0	10.226898584207747	1232.0	-0.6241716197440508	2102.0	896.0	-0.5493562231759657	9.809932556713672	-16000.0	-0.9025137952176578	-1472.0	0.0	1192.108154296875	39063.0	1254.0	0.7673913043478261	0.20606060606060606	-655.0	-0.6926147704590819	-414.0	-3.34724343442205	97.0	106.0	-0.8742187958141918	-0.7726112158458935	173.0	
-0.4653468299643887	2123.0	10.132069448672663	1240.0	-0.650320725620146	2111.0	1088.0	-0.6670754138565297	9.731453096259962	-15872.0	-0.8632740649908032	-1408.0	0.0	1211.639404296875	39703.0	1249.0	0.7565217391304347	0.21616161616161617	-650.0	-0.6826347305389222	-419.0	-6.9879184195241395	182.0	62.0	0.09055337468242436	-2.0289801313941123	410.0	
-0.014141944602191966	2123.0	10.13514961590612	1239.0	-0.6457778750941894	2074.0	512.0	-0.3139178418148375	9.731453096259962	-15872.0	-0.9025137952176578	-1472.0	0.0	1231.170654296875	40343.0	1249.0	0.7565217391304347	0.21414141414141413	-651.0	-0.6546906187624751	-433.0	-3.650409509010999	168.0	13.0	0.5843783279027209	-1.8494274638452513	193.0	
-0.2821128372046711	2123.0	10.164946912379834	1237.0	-0.648159611055477	2096.0	640.0	-0.39239730226854685	9.770692826486817	-15936.0	-0.9025137952176578	-1472.0	0.0	1250.701904296875	40983.0	1253.0	0.7652173913043478	0.21818181818181817	-649.0	-0.6666666666666667	-427.0	5.203344424017606	160.0	-8.0	0.27813271272248336	-1.816291999373256	-384.0	
-0.2579734082415153	2122.0	10.152025794331747	1238.0	-0.635999235175242	2094.0	896.0	-0.5493562231759657	9.809932556713672	-16000.0	-0.9809932556713672	-1600.0	0.0	1270.233154296875	41623.0	1249.0	0.7565217391304347	0.21414141414141413	-651.0	-0.6846307385229542	-418.0	2.203465681858085	129.0	-19.0	0.6329824988168176	-1.3148103222178205	-188.0	
-0.22066634916453018	2126.0	10.176621371946995	1236.0	-0.6835729798926571	2091.0	576.0	-0.3531575720416922	9.770692826486817	-15936.0	-0.9025137952176578	-1472.0	0.0	1289.764404296875	42263.0	1256.0	0.7717391304347826	0.21212121212121213	-652.0	-0.6546906187624751	-433.0	-1.8093875031428763	102.0	-29.0	1.045776262460836	-0.8640354025351112	74.0	
-0.1488384664558698	2129.0	10.005195918056248	1250.0	-0.7207135339177309	2085.0	832.0	-0.510116492949111	9.770692826486817	-15936.0	-0.9809932556713672	-1600.0	0.0	1309.295654296875	42903.0	1253.0	0.7652173913043478	0.2080808080808081	-654.0	-0.6526946107784432	-434.0	-7.533847970118007	97.0	1.0	0.9913817734234701	-0.7307451704889341	447.0	
0.15533833142200568	2126.0	9.973944661521719	1252.0	-0.6818397001910445	2060.0	128.0	-0.07847946045370938	9.53525444512569	-15552.0	-0.8632740649908032	-1408.0	0.0	1328.826904296875	43543.0	1252.0	0.7630434782608696	0.21818181818181817	-649.0	-0.658682634730539	-431.0	-2.42469864803346	-7.0	-13.0	0.7824100711029623	0.7999123857198784	115.0	
-0.283933701676931	2118.0	10.041852273980549	1247.0	-0.5891678022287709	2096.0	320.0	-0.19619865113427343	9.613733905579398	-15680.0	-0.9417535254445125	-1536.0	0.0	1348.358154296875	44183.0	1256.0	0.7717391304347826	0.21616161616161617	-650.0	-0.6626746506986029	-429.0	6.823803477235437	-7.0	-15.0	0.16869933068049892	0.7074273644671895	-488.0	
-0.440972534596645	2119.0	10.179384257327696	1236.0	-0.6014110634955809	2109.0	1088.0	-0.6670754138565297	9.770692826486817	-15936.0	-0.8632740649908032	-1408.0	0.0	1367.889404296875	44823.0	1251.0	0.7608695652173914	0.2101010101010101	-653.0	-0.6806387225548903	-420.0	1.4221049240746768	72.0	31.0	-0.09693678593140406	-0.4400765625487316	-137.0	
-0.17214183093583962	2126.0	10.151256005849556	1238.0	-0.6833413883713445	2087.0	768.0	-0.47087676272225626	9.692213366033108	-15808.0	-0.9417535254445125	-1536.0	0.0	1387.420654296875	45463.0	1250.0	0.7586956521739131	0.20202020202020202	-657.0	-0.6726546906187626	-424.0	-7.540949809372309	220.0	31.0	0.6169298463301944	-2.601396585556467	446.0	
0.0970465692807431	2131.0	10.183602116073903	1235.0	-0.740567007122357	2065.0	256.0	-0.15695892090741875	9.770692826486817	-15936.0	-1.0594727161250765	-1728.0	0.0	1406.951904296875	46103.0	1246.0	0.75	0.2101010101010101	-653.0	-0.6906187624750499	-415.0	-7.462050169137111	250.0	-13.0	1.2893595468577081	-3.0584593462173744	441.0	
0.011462811057004571	2130.0	10.172896963213953	1236.0	-0.7294817034621095	2072.0	64.0	-0.03923973022685469	9.770692826486817	-15936.0	-1.0987124463519313	-1792.0	0.0	1426.483154296875	46743.0	1251.0	0.7608695652173914	0.2222222222222222	-647.0	-0.6846307385229542	-418.0	-0.7340864622408382	319.0	-47.0	1.3728155866057963	-4.175168641081014	2.0	
-0.2193281701787953	2131.0	10.2509550249853	1230.0	-0.7430572254278383	2091.0	448.0	-0.27467811158798283	9.731453096259962	-15872.0	-1.020232985898222	-1664.0	0.0	1446.014404296875	47383.0	1246.0	0.75	0.23030303030303031	-643.0	-0.6766467065868265	-422.0	2.299754150563013	348.0	-56.0	1.3142353992391125	-4.646571685992322	-196.0	
-0.18190907484841173	2131.0	10.335548094304299	1223.0	-0.7418371037813445	2088.0	640.0	-0.39239730226854685	9.966891477621092	-16256.0	-0.9809932556713672	-1600.0	0.0	1465.545654296875	48023.0	1253.0	0.7652173913043478	0.21818181818181817	-649.0	-0.6926147704590819	-414.0	-3.3183686552511977	350.0	-26.0	1.2566983641180263	-4.620808708884751	170.0	
0.1958001163978692	2138.0	10.219872153256311	1232.0	-0.8235541206769519	2057.0	192.0	-0.11771919068056406	9.966891477621092	-16256.0	-1.0594727161250765	-1728.0	0.0	1485.076904296875	48663.0	1251.0	0.7608695652173914	0.2202020202020202	-648.0	-0.6986027944111778	-411.0	-7.3665280487080045	326.0	-8.0	1.2539844299800795	-4.215308103543339	434.0	
0.2816165822466374	2135.0	10.302765044160255	1225.0	-0.7857224487961718	2050.0	-128.0	0.07847946045370938	9.809932556713672	-16000.0	-1.137952176578786	-1856.0	0.0	1504.608154296875	49303.0	1249.0	0.7565217391304347	0.2101010101010101	-653.0	-0.6666666666666667	-427.0	-1.1226228883908598	214.0	-13.0	0.8262342674333583	-2.574325101914571	28.0	
-0.13349011653444498	2138.0	10.21432980248048	1233.0	-0.8269024465140334	2084.0	64.0	-0.03923973022685469	9.770692826486817	-15936.0	-1.020232985898222	-1664.0	0.0	1524.139404296875	49943.0	1255.0	0.7695652173913043	0.2101010101010101	-653.0	-0.6866267465069861	-417.0	7.040915791822265	193.0	-21.0	0.3652163398762926	-2.3365688537357134	-504.0	
-0.353304981361802	2135.0	10.218046427858651	1233.0	-0.7929188505952722	2102.0	896.0	-0.5493562231759657	9.849172286940528	-16064.0	-0.9809932556713672	-1600.0	0.0	1543.670654296875	50583.0	1249.0	0.7565217391304347	0.23232323232323232	-642.0	-0.6886227544910181	-416.0	2.0224188995355457	153.0	40.0	-0.22437360581669	-1.6780188658014392	-177.0	
0.07338982580411234	2132.0	10.245284219482969	1230.0	-0.7522349462941169	2067.0	320.0	-0.19619865113427343	9.849172286940528	-16064.0	-1.0594727161250765	-1728.0	0.0	1563.201904296875	51223.0	1249.0	0.7565217391304347	0.23434343434343435	-641.0	-0.658682634730539	-431.0	-7.831632575282454	74.0	66.0	0.02360244287746749	-0.37795743850573066	466.0	
0.2308036255160694	2137.0	10.072612107111295	1244.0	-0.8126284932761357	2054.0	128.0	-0.07847946045370938	9.809932556713672	-16000.0	-1.0594727161250765	-1728.0	0.0	1582.733154296875	51863.0	1249.0	0.7565217391304347	0.2222222222222222	-647.0	-0.6826347305389222	-419.0	-4.22591151009522	82.0	48.0	0.04737624435879406	-0.5356876529598843	231.0	
0.1694734912884433	2132.0	10.097031516566133	1242.0	-0.752756636668442	2059.0	-192.0	0.11771919068056406	9.652973635806253	-15744.0	-1.0987124463519313	-1792.0	0.0	1602.264404296875	52503.0	1246.0	0.75	0.24242424242424243	-637.0	-0.6866267465069861	-417.0	9.819689410873067	-1.0	47.0	-0.9656993725704197	0.5862137522791021	-684.0	
-0.6479537192908098	2134.0	10.028673291917071	1249.0	-0.7857108765628937	2126.0	832.0	-0.510116492949111	9.613733905579398	-15680.0	-0.9809932556713672	-1600.0	0.0	1621.795654296875	53143.0	1253.0	0.7652173913043478	0.22626262626262628	-645.0	-0.660678642714571	-430.0	21.38852752731856	-12.0	26.0	-1.4627399419735072	0.6378257513427841	-1438.0	
-0.3791424446460282	2132.0	10.108111342506822	1242.0	-0.7581319977683798	2104.0	1216.0	-0.745554874310239	9.809932556713672	-16000.0	-1.020232985898222	-1664.0	0.0	1641.326904296875	53783.0	1253.0	0.7652173913043478	0.21414141414141413	-651.0	-0.6806387225548903	-420.0	12.318183749788664	-23.0	78.0	-1.6177462251691002	0.8958295693462199	-847.0	
-0.4036395701649614	2135.0	10.060558098852422	1246.0	-0.7949970797733661	2106.0	1088.0	-0.6670754138565297	9.692213366033108	-15808.0	-1.0594727161250765	-1728.0	0.0	1660.858154296875	54423.0	1249.0	0.7565217391304347	0.2202020202020202	-648.0	-0.7045908183632735	-408.0	4.12864626302641	68.0	89.0	-1.1573107405897947	-0.40630547403710826	-314.0	
-0.36693802672569076	2138.0	10.036154256107324	1248.0	-0.8310186810796775	2103.0	896.0	-0.5493562231759657	9.652973635806253	-15744.0	-1.2164316370324952	-1984.0	0.0	1680.389404296875	55063.0	1252.0	0.7630434782608696	0.2101010101010101	-653.0	-0.658682634730539	-431.0	1.574921341448233	184.0	28.0	0.00554158479305179	-2.1450267799544065	-148.0	
-0.2559973319246928	2143.0	10.096081697617247	1243.0	-0.8895509635719898	2094.0	896.0	-0.5493562231759657	9.692213366033108	-15808.0	-1.25567136725935	-2048.0	0.0	1699.920654296875	55703.0	1253.0	0.7652173913043478	0.2101010101010101	-653.0	-0.6666666666666667	-427.0	1.3137969020196505	236.0	-20.0	0.7749910066759192	-2.93329006027495	-131.0	
-0.36499217332268313	2145.0	10.1475355181651	1239.0	-0.9142227593226597	2103.0	768.0	-0.47087676272225626	9.731453096259962	-15872.0	-1.1771919068056407	-1920.0	0.0	1719.451904296875	56343.0	1250.0	0.7586956521739131	0.20202020202020202	-657.0	-0.7265469061876249	-397.0	2.8180151218827993	211.0	-106.0	1.9444436154369893	-2.568104105591452	-228.0	
-0.340120081011507	2148.0	10.159948632794972	1238.0	-0.9499944855665023	2101.0	640.0	-0.39239730226854685	9.731453096259962	-15872.0	-1.2164316370324952	-1984.0	0.0	1738.983154296875	56983.0	1254.0	0.7673913043478261	0.21414141414141413	-651.0	-0.6786427145708583	-421.0	4.588426501673491	228.0	-167.0	2.7461079173624334	-2.8443633524692067	-343.0	
-0.4007110755524381	2150.0	10.17384684090514	1237.0	-0.9745577989729786	2106.0	768.0	-0.47087676272225626	9.731453096259962	-15872.0	-1.25567136725935	-2048.0	0.0	1758.514404296875	57623.0	1252.0	0.7630434782608696	0.20404040404040405	-656.0	-0.7025948103792417	-409.0	2.6685950136512613	225.0	-146.0	2.5630605151611014	-2.779537661163129	-218.0	
-0.31633834860412857	2149.0	10.086553153044397	1244.0	-0.9625388158110185	2099.0	704.0	-0.4316370324954016	9.692213366033108	-15808.0	-1.25567136725935	-2048.0	0.0	1778.045654296875	58263.0	1249.0	0.7565217391304347	0.21818181818181817	-649.0	-0.6886227544910181	-416.0	-2.9907008453664363	200.0	-122.0	2.581918291518426	-2.3427165656908224	151.0	
0.13437953371242672	2147.0	10.064775957598629	1245.0	-0.934153023400142	2062.0	64.0	-0.03923973022685469	9.652973635806253	-15744.0	-1.2949110974862048	-2112.0	0.0	1797.576904296875	58903.0	1249.0	0.7565217391304347	0.21818181818181817	-649.0	-0.6746506986027945	-423.0	-11.352392243797611	90.0	-97.0	2.7221592670548325	-0.5860958494251418	697.0	
-0.07227849489889197	2144.0	10.16576833534452	1237.0	-0.8990651015955433	2079.0	384.0	-0.23543838136112813	9.731453096259962	-15872.0	-1.2164316370324952	-1984.0	0.0	1817.108154296875	59543.0	1249.0	0.7565217391304347	0.21818181818181817	-649.0	-0.7065868263473055	-407.0	-6.226734889669843	-21.0	-112.0	2.5227725543191624	1.0508605047902346	364.0	
-0.2920804070488997	2147.0	10.097774092677431	1243.0	-0.9380876414569673	2097.0	704.0	-0.4316370324954016	9.692213366033108	-15808.0	-1.2164316370324952	-1984.0	0.0	1836.639404296875	60183.0	1248.0	0.7543478260869565	0.22828282828282828	-644.0	-0.6666666666666667	-427.0	1.0698888471637251	70.0	-73.0	1.4855811127886727	-0.40613615082905175	-113.0	
-0.3655976889603976	2144.0	10.098536097804754	1243.0	-0.9026706159115562	2103.0	832.0	-0.510116492949111	9.770692826486817	-15936.0	-1.137952176578786	-1856.0	0.0	1856.170654296875	60823.0	1250.0	0.7586956521739131	0.2202020202020202	-648.0	-0.660678642714571	-430.0	-7.96769933469265	55.0	-31.0	1.475786617539416	-0.08762338688121038	476.0	
0.03611083086138388	2141.0	10.065315094436322	1245.0	-0.8628411624337696	2070.0	192.0	-0.11771919068056406	9.574494175352545	-15616.0	-1.0594727161250765	-1728.0	0.0	1875.701904296875	61463.0	1249.0	0.7565217391304347	0.21212121212121213	-652.0	-0.6846307385229542	-418.0	-5.887226899560633	2.0	-46.0	1.5236299462685121	0.6976555389575835	341.0	
0.024279220953731195	2140.0	10.114083863152171	1241.0	-0.8504235980746034	2071.0	320.0	-0.19619865113427343	9.692213366033108	-15808.0	-1.0987124463519313	-1792.0	0.0	1895.233154296875	62103.0	1250.0	0.7586956521739131	0.2101010101010101	-653.0	-0.6746506986027945	-423.0	4.35686131159824	48.0	-84.0	1.4083413400751645	-0.10440511501712309	-327.0	
-0.48763733032102785	2142.0	10.112711657688637	1242.0	-0.879652871184155	2113.0	1280.0	-0.7847946045370937	9.731453096259962	-15872.0	-1.137952176578786	-1856.0	0.0	1914.764404296875	62743.0	1252.0	0.7630434782608696	0.23232323232323232	-642.0	-0.6666666666666667	-427.0	4.140916600329265	79.0	-106.0	1.7720654900276096	-0.5737285576382737	-313.0	
-0.3773107862759773	2142.0	10.171446924201723	1237.0	-0.8779622530785736	2104.0	896.0	-0.5493562231759657	9.652973635806253	-15744.0	-1.1771919068056407	-1920.0	0.0	1934.295654296875	63383.0	1251.0	0.7608695652173914	0.22626262626262628	-645.0	-0.7085828343313374	-406.0	-7.366175041156568	77.0	-75.0	2.1069747220450967	-0.4282393902728451	437.0	
0.07354287886911672	2147.0	10.078197295710062	1244.0	-0.9346271765674609	2067.0	192.0	-0.11771919068056406	9.652973635806253	-15744.0	-1.1771919068056407	-1920.0	0.0	1953.826904296875	64023.0	1248.0	0.7543478260869565	0.23030303030303031	-643.0	-0.6666666666666667	-427.0	-6.523986214751534	116.0	-104.0	2.5068672241644037	-1.029817172073017	382.0	
0.09828566469042879	2146.0	10.126227409363196	1240.0	-0.921851254801632	2065.0	192.0	-0.11771919068056406	9.692213366033108	-15808.0	-1.1771919068056407	-1920.0	0.0	1973.358154296875	64663.0	1252.0	0.7630434782608696	0.2202020202020202	-648.0	-0.6626746506986029	-429.0	6.204955246656102	114.0	-97.0	1.5147686421755275	-1.1266883357365232	-448.0	
-0.21894025070920303	2143.0	10.144104027915514	1239.0	-0.8887001694568523	2091.0	704.0	-0.4316370324954016	9.731453096259962	-15872.0	-1.1771919068056407	-1920.0	0.0	1992.889404296875	65303.0	1251.0	0.7608695652173914	0.2202020202020202	-648.0	-0.6886227544910181	-416.0	12.385145694602343	110.0	-89.0	0.9622538969374159	-1.1276537383148448	-851.0	
-0.6825801028372087	2142.0	10.128841397696682	1241.0	-0.8814410015092363	2129.0	1344.0	-0.8240343347639485	9.770692826486817	-15936.0	-1.137952176578786	-1856.0	0.0	2012.420654296875	407.0	1251.0	0.7608695652173914	0.22828282828282828	-644.0	-0.6806387225548903	-420.0	0.2603371251771177	35.0	-61.0	1.3407230919960302	0.1342787580257954	-60.0	
-0.025331339619640625	2140.0	10.02973701218741	1248.0	-0.8517631721899848	2075.0	384.0	-0.23543838136112813	9.613733905579398	-15680.0	-1.137952176578786	-1856.0	0.0	2031.951904296875	1047.0	1254.0	0.7673913043478261	0.21414141414141413	-651.0	-0.6646706586826349	-428.0	-9.522290274694884	-34.0	-112.0	2.744234463869757	1.2815346898191924	579.0	
0.20484549086021192	2134.0	9.950486775419222	1254.0	-0.7779647496263621	2056.0	-128.0	0.07847946045370938	9.652973635806253	-15744.0	-0.9809932556713672	-1600.0	0.0	2051.483154296875	1687.0	1254.0	0.7673913043478261	0.2222222222222222	-647.0	-0.7045908183632735	-408.0	-0.33907124863851346	-6.0	-115.0	2.1670941514329307	0.7638469862506437	-20.0	
0.15583828714499637	2134.0	9.927091156155683	1256.0	-0.7786887778561495	2060.0	64.0	-0.03923973022685469	9.496014714898834	-15488.0	-0.9809932556713672	-1600.0	0.0	2071.014404296875	2327.0	1253.0	0.7652173913043478	0.23434343434343435	-641.0	-0.6626746506986029	-429.0	16.4866938819871	67.0	-91.0	0.6806114547741979	-0.51467682475143	-1118.0	
-0.35595759275813144	2136.0	9.937909197032393	1256.0	-0.8077949417885824	2102.0	896.0	-0.5493562231759657	9.574494175352545	-15616.0	-1.020232985898222	-1664.0	0.0	2090.545654296875	2967.0	1255.0	0.7695652173913043	0.21212121212121213	-652.0	-0.6806387225548903	-420.0	19.129971116472863	71.0	-28.0	-0.44545491680189886	-0.6019460989974283	-1291.0	
-0.2822032856624875	2137.0	9.985431307267314	1252.0	-0.8186303703863611	2096.0	768.0	-0.47087676272225626	9.574494175352545	-15616.0	-1.137952176578786	-1856.0	0.0	2110.076904296875	3607.0	1248.0	0.7543478260869565	0.22424242424242424	-646.0	-0.6886227544910181	-416.0	8.430055066414823	9.0	-3.0	-0.11327198459971527	0.44801884097083283	-593.0	
-0.11066296120232559	2144.0	9.983653295303563	1252.0	-0.9012700966589873	2082.0	448.0	-0.27467811158798283	9.496014714898834	-15488.0	-1.2164316370324952	-1984.0	0.0	2129.608154296875	4247.0	1250.0	0.7586956521739131	0.21818181818181817	-649.0	-0.7145708582834333	-403.0	6.0986353662465325	35.0	-27.0	0.4246324069813169	0.07589577561510122	-441.0	
-0.35374017369804645	2157.0	9.906345592998385	1259.0	-1.0611004518310927	2102.0	768.0	-0.47087676272225626	9.53525444512569	-15552.0	-1.25567136725935	-2048.0	0.0	2149.139404296875	4887.0	1252.0	0.7630434782608696	0.19393939393939394	-661.0	-0.6946107784431139	-413.0	8.70122313201768	59.0	-19.0	0.13815302895491133	-0.3151491134494544	-611.0	
-0.6465896349503764	2151.0	9.959585208864855	1255.0	-0.9912073936584451	2126.0	1408.0	-0.8632740649908032	9.496014714898834	-15488.0	-1.2949110974862048	-2112.0	0.0	2168.670654296875	5527.0	1250.0	0.7586956521739131	0.19393939393939394	-661.0	-0.7105788423153694	-405.0	2.244785817065234	55.0	-18.0	0.57009510225143	-0.18974823839878924	-190.0	
-0.41519745563597843	2149.0	9.954430190135607	1255.0	-0.964848636510425	2107.0	960.0	-0.5885959534028203	9.45677498467198	-15424.0	-1.2949110974862048	-2112.0	0.0	2188.201904296875	6167.0	1254.0	0.7673913043478261	0.21818181818181817	-649.0	-0.6766467065868265	-422.0	-12.921671047102874	23.0	1.0	1.3213552481747728	0.44860834545201733	799.0	
-0.013001932768555435	2148.0	9.946066549446401	1255.0	-0.9488621249175586	2074.0	256.0	-0.15695892090741875	9.53525444512569	-15552.0	-1.2164316370324952	-1984.0	0.0	2207.733154296875	6807.0	1252.0	0.7630434782608696	0.21818181818181817	-649.0	-0.6806387225548903	-420.0	-11.686275015079318	-3.0	-30.0	1.6843218100435404	0.8316916474891963	719.0	
-0.08542885477625566	2147.0	10.032637148954171	1248.0	-0.9366724953714735	2080.0	320.0	-0.19619865113427343	9.731453096259962	-15872.0	-1.25567136725935	-2048.0	0.0	2227.264404296875	7447.0	1252.0	0.7630434782608696	0.22828282828282828	-644.0	-0.6746506986027945	-423.0	-1.1954759680217815	-41.0	5.0	0.40630669446149487	1.3047304250794576	35.0	
-0.48787867306429034	2142.0	10.088331165008148	1244.0	-0.8798990895383925	2113.0	1152.0	-0.7063151440833844	9.652973635806253	-15744.0	-1.137952176578786	-1856.0	0.0	2246.795654296875	8087.0	1248.0	0.7543478260869565	0.2101010101010101	-653.0	-0.6886227544910181	-416.0	5.977364226471282	-22.0	19.0	-0.29125910018776885	0.9440286391041086	-433.0	
-0.731841601973036	2136.0	10.152776153797914	1239.0	-0.8094051123130762	2133.0	1408.0	-0.8632740649908032	9.770692826486817	-15936.0	-0.9809932556713672	-1600.0	0.0	2266.326904296875	8727.0	1253.0	0.7652173913043478	0.20404040404040405	-656.0	-0.6666666666666667	-427.0	-2.3498829073553944	13.0	-20.0	0.8943177221688787	0.4949817188073943	110.0	
-0.12106162610731064	2136.0	10.262367699488482	1229.0	-0.8022013970975133	2083.0	448.0	-0.27467811158798283	9.849172286940528	-16064.0	-1.137952176578786	-1856.0	0.0	2285.858154296875	9367.0	1251.0	0.7608695652173914	0.21818181818181817	-649.0	-0.6786427145708583	-421.0	-13.075275036302457	78.0	-51.0	2.14511635677124	-0.38635751579667127	809.0	
0.06230383192182927	2141.0	10.247676352831515	1230.0	-0.8607556198392132	2068.0	192.0	-0.11771919068056406	9.809932556713672	-16000.0	-1.0987124463519313	-1792.0	0.0	2305.389404296875	10007.0	1256.0	0.7717391304347826	0.23030303030303031	-643.0	-0.6786427145708583	-421.0	-6.45395643078549	138.0	-81.0	2.170549595411721	-1.3651182303689513	377.0	
-0.05912597624197008	2142.0	10.28694771039399	1227.0	-0.8736253971163108	2078.0	384.0	-0.23543838136112813	9.809932556713672	-16000.0	-1.0987124463519313	-1792.0	0.0	2324.920654296875	10647.0	1255.0	0.7695652173913043	0.2222222222222222	-647.0	-0.7045908183632735	-408.0	6.864966578321817	94.0	-81.0	1.2167844931413505	-0.8291059395474768	-491.0	
-0.290046263967634	2139.0	10.400622771188601	1218.0	-0.8386532710723683	2097.0	704.0	-0.4316370324954016	9.966891477621092	-16256.0	-1.0594727161250765	-1728.0	0.0	2344.451904296875	11287.0	1252.0	0.7630434782608696	0.21616161616161617	-650.0	-0.6866267465069861	-417.0	11.216568172048982	41.0	-2.0	-0.30273811989161353	-0.0665383052946343	-775.0	
-0.3144248768944941	2141.0	10.377211585215322	1220.0	-0.8632275546035384	2099.0	832.0	-0.510116492949111	9.966891477621092	-16256.0	-1.1771919068056407	-1920.0	0.0	2363.983154296875	11927.0	1254.0	0.7673913043478261	0.21818181818181817	-649.0	-0.6646706586826349	-428.0	7.27600061948352	62.0	73.0	-1.140136733943263	-0.34652426474996834	-519.0	
-0.4967990585958856	2148.0	10.346003166503726	1223.0	-0.9497007300052585	2114.0	1088.0	-0.6670754138565297	9.966891477621092	-16256.0	-1.25567136725935	-2048.0	0.0	2383.514404296875	12567.0	1252.0	0.7630434782608696	0.20606060606060606	-655.0	-0.7025948103792417	-409.0	-0.44645866579860266	58.0	130.0	-1.4596597414068513	-0.2084631699960064	-16.0	
-0.2051735812963338	2146.0	10.266475577961822	1229.0	-0.9234833655755135	2090.0	704.0	-0.4316370324954016	9.888412017167381	-16128.0	-1.2164316370324952	-1984.0	0.0	2403.045654296875	13207.0	1252.0	0.7630434782608696	0.23030303030303031	-643.0	-0.6686626746506987	-426.0	-7.56367876553842	30.0	163.0	-1.4760880666854352	0.2885645443093766	448.0	
-0.31501096351618474	2149.0	10.220645862787087	1233.0	-0.9611846148627122	2099.0	704.0	-0.4316370324954016	9.731453096259962	-15872.0	-1.25567136725935	-2048.0	0.0	2422.576904296875	13847.0	1255.0	0.7695652173913043	0.21818181818181817	-649.0	-0.656686626746507	-432.0	-4.869537815595479	-75.0	95.0	-0.7079883489250978	1.8585813097148904	274.0	
-0.10799739712864688	2149.0	10.19207965808456	1235.0	-0.9594001412458623	2082.0	384.0	-0.23543838136112813	9.731453096259962	-15872.0	-1.2949110974862048	-2112.0	0.0	2442.108154296875	14487.0	1256.0	0.7717391304347826	0.23030303030303031	-643.0	-0.6806387225548903	-420.0	1.5107160637519355	-158.0	73.0	-0.8727132330468541	3.057136185370086	-141.0	
-0.5104321039597741	2151.0	10.1641109947524	1238.0	-0.9878005604896636	2115.0	1216.0	-0.745554874310239	9.731453096259962	-15872.0	-1.3341508277130594	-2176.0	0.0	2461.639404296875	15127.0	1255.0	0.7695652173913043	0.21212121212121213	-652.0	-0.6666666666666667	-427.0	10.469727702859988	-167.0	67.0	-1.4117807058111218	3.1044281982565716	-725.0	
-0.6451437372703596	2150.0	10.117819976288667	1242.0	-0.9775623942363225	2126.0	1344.0	-0.8240343347639485	9.849172286940528	-16064.0	-1.2164316370324952	-1984.0	0.0	2481.170654296875	15767.0	1257.0	0.7739130434782608	0.23434343434343435	-641.0	-0.658682634730539	-431.0	9.309269945873995	-190.0	55.0	-1.1650951963846476	3.46584266175799	-649.0	
-0.4512999597762091	2144.0	10.063688887263682	1246.0	-0.9038761107251251	2110.0	1152.0	-0.7063151440833844	9.652973635806253	-15744.0	-1.2164316370324952	-1984.0	0.0	2500.701904296875	16407.0	1254.0	0.7673913043478261	0.19797979797979798	-659.0	-0.6946107784431139	-413.0	0.7857028634009362	-215.0	54.0	-0.572071549171682	3.9313064694648503	-93.0	
-0.40301678429078114	2144.0	10.013943028485754	1250.0	-0.90389073755805	2106.0	1024.0	-0.627835683629675	9.613733905579398	-15680.0	-1.137952176578786	-1856.0	0.0	2520.233154296875	17047.0	1254.0	0.7673913043478261	0.21818181818181817	-649.0	-0.656686626746507	-432.0	-2.815607032850605	-330.0	-58.0	1.2877780622112183	5.7163689980851595	144.0	
-0.18368460494994926	2147.0	9.961465417746604	1254.0	-0.938366770185286	2088.0	640.0	-0.39239730226854685	9.574494175352545	-15616.0	-1.137952176578786	-1856.0	0.0	2539.764404296875	17687.0	1260.0	0.7804347826086957	0.2202020202020202	-648.0	-0.660678642714571	-430.0	-0.05373911921654021	-451.0	-153.0	2.4462277441938713	7.529054501458325	-34.0	
-0.6119654101835356	2142.0	9.871368914426123	1262.0	-0.8833095794154052	2123.0	1344.0	-0.8240343347639485	9.574494175352545	-15616.0	-1.0987124463519313	-1792.0	0.0	2559.295654296875	18327.0	1256.0	0.7717391304347826	0.2202020202020202	-648.0	-0.6986027944111778	-411.0	6.786939606778765	-530.0	-181.0	2.3418457733102227	8.6621686267459	-479.0	
-0.4052061392166095	2136.0	9.890133085088367	1260.0	-0.8087651883726075	2106.0	832.0	-0.510116492949111	9.53525444512569	-15552.0	-1.137952176578786	-1856.0	0.0	2578.826904296875	18967.0	1256.0	0.7717391304347826	0.2222222222222222	-647.0	-0.6706586826347306	-425.0	-3.2228053096935643	-552.0	-195.0	3.235035041552209	9.096866836366898	174.0	
-0.23598231739258185	2132.0	9.788210317409614	1268.0	-0.7598994067468174	2092.0	704.0	-0.4316370324954016	9.37829552421827	-15296.0	-1.020232985898222	-1664.0	0.0	2598.358154296875	19607.0	1257.0	0.7739130434782608	0.2202020202020202	-648.0	-0.6706586826347306	-425.0	-16.02155927292995	-531.0	-164.0	3.6738363666007974	8.905462741018274	1008.0	
0.058065222457827796	2134.0	9.904680410309094	1258.0	-0.7798906159614871	2068.0	320.0	-0.19619865113427343	9.496014714898834	-15488.0	-1.0987124463519313	-1792.0	0.0	2617.889404296875	20247.0	1260.0	0.7804347826086957	0.2404040404040404	-638.0	-0.6526946107784432	-434.0	-10.72690162861371	-505.0	-212.0	4.0407858649607284	8.457078902217695	663.0	
-0.6110065155491602	2139.0	10.004746319170708	1251.0	-0.8458216381083625	2123.0	1408.0	-0.8632740649908032	9.574494175352545	-15616.0	-1.1771919068056407	-1920.0	0.0	2637.420654296875	20887.0	1261.0	0.782608695652174	0.2222222222222222	-647.0	-0.6986027944111778	-411.0	8.351625574226986	-574.0	-345.0	4.664946183831978	9.315723287983966	-579.0	
-0.6479537192908098	2134.0	10.028673291917071	1249.0	-0.7857108765628937	2126.0	1408.0	-0.8632740649908032	9.53525444512569	-15552.0	-0.9809932556713672	-1600.0	0.0	2656.951904296875	21527.0	1264.0	0.7891304347826087	0.21212121212121213	-652.0	-0.6646706586826349	-428.0	10.329603350927906	-609.0	-410.0	5.48049889853638	9.82826290185194	-707.0	
-0.3422125111408443	2129.0	10.179798860487473	1236.0	-0.7209012449402685	2101.0	896.0	-0.5493562231759657	9.770692826486817	-15936.0	-0.9025137952176578	-1472.0	0.0	2676.483154296875	22167.0	1260.0	0.7804347826086957	0.23030303030303031	-643.0	-0.6526946107784432	-434.0	-7.173524244765216	-617.0	-378.0	6.214089539104501	10.124967181611153	434.0	
0.13287750776389645	2122.0	10.217288285037613	1232.0	-0.6314381011081293	2062.0	64.0	-0.03923973022685469	9.770692826486817	-15936.0	-0.8632740649908032	-1408.0	0.0	2696.014404296875	22807.0	1264.0	0.7891304347826087	0.21212121212121213	-652.0	-0.6806387225548903	-420.0	-14.208404404685323	-454.0	-364.0	6.592985643860037	7.716228530738869	891.0	
0.07217231819000872	2127.0	10.183140812784906	1235.0	-0.692627591581817	2067.0	256.0	-0.15695892090741875	9.731453096259962	-15872.0	-0.9025137952176578	-1472.0	0.0	2715.545654296875	23447.0	1267.0	0.7956521739130434	0.22424242424242424	-646.0	-0.6706586826347306	-425.0	-5.2226798161909045	-241.0	-355.0	5.962228427817121	4.386827558618184	303.0	
-0.6470185712315746	2120.0	10.2935206214113	1227.0	-0.6143783529921785	2126.0	1472.0	-0.9025137952176578	9.849172286940528	-16064.0	-0.7847946045370937	-1280.0	0.0	2735.076904296875	24087.0	1264.0	0.7891304347826087	0.21212121212121213	-652.0	-0.6726546906187626	-424.0	8.841582880396281	-178.0	-418.0	5.966210476464306	3.2880100267093453	-614.0	
-0.34272326076162607	2116.0	10.286411422557892	1227.0	-0.5632137207916758	2101.0	896.0	-0.5493562231759657	9.888412017167381	-16128.0	-0.8240343347639485	-1344.0	0.0	2754.608154296875	24727.0	1267.0	0.7956521739130434	0.21818181818181817	-649.0	-0.6467065868263474	-437.0	-11.787281052557686	-159.0	-330.0	6.094198011724036	3.2053252820084666	730.0	
-0.17362874542746243	2108.0	10.220105653902403	1232.0	-0.46580029115621424	2087.0	576.0	-0.3531575720416922	9.849172286940528	-16064.0	-0.745554874310239	-1216.0	0.0	2774.139404296875	25367.0	1267.0	0.7956521739130434	0.22626262626262628	-645.0	-0.6686626746506987	-426.0	-12.564594330166775	-115.0	-303.0	5.770269475482731	2.5438968938720103	780.0	
0.24075824268294876	2107.0	10.21149579485896	1232.0	-0.4496943270944602	2053.0	-192.0	0.11771919068056406	9.731453096259962	-15872.0	-0.7063151440833844	-1152.0	0.0	2793.670654296875	26007.0	1268.0	0.7978260869565218	0.24242424242424243	-637.0	-0.6247504990019961	-448.0	-0.5303163852727079	-80.0	-302.0	4.938984002435377	1.8912347227880884	-5.0	
-0.24726022237191705	2108.0	10.17282197866685	1236.0	-0.4670094426780143	2093.0	640.0	-0.39239730226854685	9.770692826486817	-15936.0	-0.745554874310239	-1216.0	0.0	2813.201904296875	26647.0	1269.0	0.8	0.24242424242424243	-637.0	-0.62874251497006	-446.0	6.485639749863703	-2.0	-322.0	4.79797600187529	0.6347633743644808	-463.0	
-0.40610912586609993	2109.0	10.127500266910326	1240.0	-0.4810993416016057	2106.0	896.0	-0.5493562231759657	9.731453096259962	-15872.0	-0.745554874310239	-1216.0	0.0	2832.733154296875	27287.0	1265.0	0.7913043478260869	0.2404040404040404	-638.0	-0.6526946107784432	-434.0	-1.493538768637257	-15.0	-283.0	4.760710435338898	0.9122737907281977	57.0	
-0.23579710291783276	2106.0	10.123337904952898	1240.0	-0.4432932666784444	2092.0	768.0	-0.47087676272225626	9.770692826486817	-15936.0	-0.7063151440833844	-1152.0	0.0	2852.264404296875	27927.0	1264.0	0.7891304347826087	0.22828282828282828	-644.0	-0.6766467065868265	-422.0	-10.836648651101632	-25.0	-254.0	4.970124624272652	1.157796144305693	666.0	
0.17738317147626592	2105.0	9.99282558250701	1250.0	-0.42841839438787793	2058.0	-64.0	0.03923973022685469	9.496014714898834	-15488.0	-0.627835683629675	-1024.0	0.0	2871.795654296875	28567.0	1265.0	0.7913043478260869	0.2202020202020202	-648.0	-0.6746506986027945	-423.0	-8.599790926852062	51.0	-210.0	4.201004903192208	-0.020465969058475586	519.0	
0.2751562361634345	2105.0	10.015236328353598	1248.0	-0.42721655628254035	2050.0	-128.0	0.07847946045370938	9.613733905579398	-15680.0	-0.6670754138565297	-1088.0	0.0	2891.326904296875	29207.0	1265.0	0.7913043478260869	0.2404040404040404	-638.0	-0.6746506986027945	-423.0	5.39441160418625	108.0	-209.0	3.2466927093674656	-1.0273281464601134	-394.0	
-0.3228375527193792	2101.0	10.01415704137352	1249.0	-0.38501451595683195	2099.0	832.0	-0.510116492949111	9.574494175352545	-15616.0	-0.5885959534028203	-960.0	0.0	2910.858154296875	29847.0	1264.0	0.7891304347826087	0.23434343434343435	-641.0	-0.6327345309381238	-444.0	12.594582009559877	153.0	-198.0	2.6080197337795887	-1.7837404969016826	-864.0	
-0.6138445617038671	2110.0	10.07097318223051	1245.0	-0.4957901595778659	2123.0	1280.0	-0.7847946045370937	9.652973635806253	-15744.0	-0.7847946045370937	-1280.0	0.0	2930.389404296875	30487.0	1270.0	0.8021739130434783	0.2202020202020202	-648.0	-0.6387225548902197	-441.0	-5.176701878626195	99.0	-174.0	3.4522292914157013	-0.7847348823544225	295.0	
0.10558119412230409	2114.0	10.020829300307234	1248.0	-0.5372901119231743	2064.0	128.0	-0.07847946045370938	9.574494175352545	-15616.0	-0.7847946045370937	-1280.0	0.0	2949.920654296875	31127.0	1266.0	0.7934782608695652	0.23030303030303031	-643.0	-0.6646706586826349	-428.0	-16.948646256545178	53.0	-175.0	4.258564332992464	0.03260433328788523	1063.0	
0.3368527020650708	2112.0	10.00348403523774	1249.0	-0.5110544639522729	2045.0	-256.0	0.15695892090741875	9.574494175352545	-15616.0	-0.7847946045370937	-1280.0	0.0	2969.451904296875	31767.0	1265.0	0.7913043478260869	0.23434343434343435	-641.0	-0.6327345309381238	-444.0	-4.10529234551914	78.0	-139.0	2.8401458913278033	-0.4760573427045045	225.0	
0.12995333071048956	2109.0	10.080095920303142	1243.0	-0.4762127605019117	2062.0	128.0	-0.07847946045370938	9.692213366033108	-15808.0	-0.6670754138565297	-1088.0	0.0	2988.983154296875	32407.0	1268.0	0.7978260869565218	0.22626262626262628	-645.0	-0.656686626746507	-432.0	11.020512144696758	187.0	-64.0	0.7292639047715747	-2.2851100644127467	-763.0	
-0.490830914251954	2116.0	10.106512347705074	1242.0	-0.5664937880751072	2113.0	1280.0	-0.7847946045370937	9.809932556713672	-16000.0	-0.8240343347639485	-1344.0	0.0	3008.514404296875	33047.0	1266.0	0.7934782608695652	0.24242424242424243	-637.0	-0.6546906187624751	-433.0	7.910368285716788	241.0	-36.0	0.5587915234356704	-3.075301401488347	-561.0	
-0.30795677682757194	2117.0	10.090867261050635	1243.0	-0.576869690338492	2098.0	768.0	-0.47087676272225626	9.652973635806253	-15744.0	-0.8240343347639485	-1344.0	0.0	3028.045654296875	33687.0	1260.0	0.7804347826086957	0.21616161616161617	-650.0	-0.7125748502994013	-404.0	-8.728435184291753	148.0	-60.0	2.0200943881352265	-1.4944646975867404	525.0	
0.19202044584525246	2120.0	10.057107120844512	1245.0	-0.608352097827078	2057.0	0.0	0.0	9.613733905579398	-15680.0	-0.9025137952176578	-1472.0	0.0	3047.576904296875	34327.0	1271.0	0.8043478260869565	0.23636363636363636	-640.0	-0.6746506986027945	-423.0	-9.22840087769884	113.0	-67.0	2.1385467509678424	-0.9571456490176884	558.0	
0.14312311960387714	2115.0	10.1056608046256	1241.0	-0.5481145703962592	2061.0	128.0	-0.07847946045370938	9.770692826486817	-15936.0	-0.8632740649908032	-1408.0	0.0	3067.108154296875	34967.0	1264.0	0.7891304347826087	0.22424242424242424	-646.0	-0.7165668662674651	-402.0	6.9218074147856505	191.0	-43.0	0.7021246353387889	-2.3049595190147767	-496.0	
-0.6366371765630552	2120.0	10.110420707953397	1242.0	-0.6161055381800723	2125.0	1408.0	-0.8632740649908032	9.770692826486817	-15936.0	-0.9417535254445125	-1536.0	0.0	3086.639404296875	35607.0	1265.0	0.7913043478260869	0.2505050505050505	-633.0	-0.6367265469061877	-442.0	9.6364694522589	257.0	-5.0	-0.016378893643382075	-3.3359084207583307	-674.0	
-0.46523047615187385	2121.0	10.168163317694662	1237.0	-0.6258622378496321	2111.0	1088.0	-0.6670754138565297	9.692213366033108	-15808.0	-0.9025137952176578	-1472.0	0.0	3106.170654296875	36247.0	1264.0	0.7891304347826087	0.23434343434343435	-641.0	-0.6906187624750499	-415.0	-9.081433781896141	247.0	50.0	0.45571581511676834	-2.9966381336639283	546.0	
-0.0021896633229080142	2124.0	10.098571093530516	1242.0	-0.658072330276237	2073.0	384.0	-0.23543838136112813	9.731453096259962	-15872.0	-0.9025137952176578	-1472.0	0.0	3125.701904296875	36887.0	1262.0	0.7847826086956522	0.24646464646464647	-635.0	-0.658682634730539	-431.0	-15.357312875073479	209.0	5.0	1.5440617979451448	-2.3559325746713182	956.0	
0.21822639958304707	2126.0	10.167757511194445	1236.0	-0.6792726910127067	2055.0	0.0	0.0	9.809932556713672	-16000.0	-0.9809932556713672	-1600.0	0.0	3145.233154296875	37527.0	1266.0	0.7934782608695652	0.24646464646464647	-635.0	-0.6427145708582835	-439.0	-4.006161019646104	81.0	-87.0	2.0554612512015256	-0.5226760323890903	218.0	
-0.17214398971539785	2125.0	10.163207817190433	1237.0	-0.671173699074647	2087.0	576.0	-0.3531575720416922	9.849172286940528	-16064.0	-0.8632740649908032	-1408.0	0.0	3164.764404296875	38167.0	1266.0	0.7934782608695652	0.2383838383838384	-639.0	-0.6686626746506987	-426.0	10.99471952126997	-15.0	-207.0	2.752097373503784	0.7873912078291254	-758.0	
-0.3557572668264749	2117.0	10.189374105189541	1235.0	-0.576362626797092	2102.0	832.0	-0.510116492949111	9.809932556713672	-16000.0	-0.7847946045370937	-1280.0	0.0	3184.295654296875	38807.0	1265.0	0.7913043478260869	0.25656565656565655	-630.0	-0.6447105788423154	-438.0	7.999182294504809	-85.0	-209.0	2.9479862206520924	1.8819853633667392	-562.0	
0.10752704752531167	2121.0	10.132210562365008	1239.0	-0.6204941901661568	2064.0	64.0	-0.03923973022685469	9.770692826486817	-15936.0	-0.9025137952176578	-1472.0	0.0	3203.826904296875	39447.0	1267.0	0.7956521739130434	0.24646464646464647	-635.0	-0.6387225548902197	-441.0	-2.9167373103663135	-69.0	-149.0	2.8179178405677487	1.7477985518108876	149.0	
0.20615128815257366	2124.0	10.20409759857068	1233.0	-0.6549336557110805	2056.0	-128.0	0.07847946045370938	9.770692826486817	-15936.0	-0.9809932556713672	-1600.0	0.0	3223.358154296875	40087.0	1263.0	0.7869565217391304	0.2545454545454545	-631.0	-0.6666666666666667	-427.0	-1.2407007483653139	-17.0	-126.0	2.388073090634176	0.9401636614760487	39.0	
-0.06303711206400908	2119.0	10.171751488346333	1236.0	-0.597708036960068	2078.0	384.0	-0.23543838136112813	9.770692826486817	-15936.0	-0.8632740649908032	-1408.0	0.0	3242.889404296875	40727.0	1266.0	0.7934782608695652	0.24242424242424243	-637.0	-0.6906187624750499	-415.0	5.125808950754098	10.0	-61.0	0.9868771274605872	0.4658521766521549	-377.0	
-0.4904753764757348	2113.0	10.178938520748439	1236.0	-0.5296213926536584	2113.0	1152.0	-0.7063151440833844	9.692213366033108	-15808.0	-0.7847946045370937	-1280.0	0.0	3262.420654296875	41367.0	1267.0	0.7956521739130434	0.25252525252525254	-632.0	-0.6666666666666667	-427.0	0.5716512985074377	41.0	5.0	0.3332005682699965	0.039910863440781146	-81.0	
-0.01511595069347485	2119.0	10.08543489054767	1243.0	-0.5980919913243493	2074.0	320.0	-0.19619865113427343	9.692213366033108	-15808.0	-0.7847946045370937	-1280.0	0.0	3281.951904296875	42007.0	1266.0	0.7934782608695652	0.24242424242424243	-637.0	-0.6706586826347306	-425.0	-12.540493485821218	23.0	16.0	1.0699377336876803	0.44479656983920074	774.0	
0.11948148758415383	2123.0	10.083680228648529	1243.0	-0.6449563346449018	2063.0	0.0	0.0	9.652973635806253	-15744.0	-0.9417535254445125	-1536.0	0.0	3301.483154296875	42647.0	1265.0	0.7913043478260869	0.2545454545454545	-631.0	-0.6407185628742516	-440.0	-8.339733895386717	80.0	-29.0	1.4869043409427567	-0.464131178156399	500.0	
-0.16079938285338657	2124.0	10.089581685795359	1243.0	-0.6597483215488933	2086.0	576.0	-0.3531575720416922	9.692213366033108	-15808.0	-0.9417535254445125	-1536.0	0.0	3321.014404296875	43287.0	1262.0	0.7847826086956522	0.24444444444444444	-636.0	-0.6646706586826349	-428.0	3.9855196601088214	221.0	-26.0	0.6698686499164973	-2.7318704057265637	-305.0	
-0.500822230671323	2129.0	10.170809452752316	1237.0	-0.7225772362129247	2114.0	1216.0	-0.745554874310239	9.770692826486817	-15936.0	-0.9025137952176578	-1472.0	0.0	3340.545654296875	43927.0	1262.0	0.7847826086956522	0.24848484848484848	-634.0	-0.660678642714571	-430.0	5.044275778066563	297.0	-1.0	0.2676023718483571	-3.8983515030278144	-375.0	
-0.24480146056856955	2129.0	10.165638867313328	1237.0	-0.720068734366287	2093.0	576.0	-0.3531575720416922	9.770692826486817	-15936.0	-1.020232985898222	-1664.0	0.0	3360.076904296875	44567.0	1267.0	0.7956521739130434	0.24848484848484848	-634.0	-0.6526946107784432	-434.0	-7.424740751990488	285.0	11.0	0.9482354971346798	-3.591151832023822	438.0	
0.14447856882607768	2128.0	10.084379966936893	1243.0	-0.7049403303050206	2061.0	0.0	0.0	9.613733905579398	-15680.0	-0.9417535254445125	-1536.0	0.0	3379.608154296875	45207.0	1263.0	0.7869565217391304	0.24444444444444444	-636.0	-0.6686626746506987	-426.0	-12.656663990254984	245.0	-39.0	2.037667941163729	-2.9304675806297698	780.0	
-0.03864122890068333	2125.0	10.099548183592598	1242.0	-0.6704752678024782	2076.0	448.0	-0.27467811158798283	9.692213366033108	-15808.0	-0.9025137952176578	-1472.0	0.0	3399.139404296875	45847.0	1263.0	0.7869565217391304	0.2686868686868687	-624.0	-0.656686626746507	-432.0	-0.4759992765204728	271.0	-85.0	1.8953663399958969	-3.4477114901245294	-14.0	
-0.4032948262865333	2127.0	10.19274332860017	1235.0	-0.6972862378684297	2106.0	960.0	-0.5885959534028203	9.849172286940528	-16064.0	-0.9809932556713672	-1600.0	0.0	3418.670654296875	46487.0	1260.0	0.7804347826086957	0.2505050505050505	-633.0	-0.6726546906187626	-424.0	7.329741240516579	300.0	-108.0	1.7145569717683453	-3.96683353407817	-523.0	
-0.20821627094181372	2134.0	10.105141155546232	1242.0	-0.7805488234431123	2090.0	576.0	-0.3531575720416922	9.731453096259962	-15872.0	-1.0594727161250765	-1728.0	0.0	3438.201904296875	47127.0	1266.0	0.7934782608695652	0.25252525252525254	-632.0	-0.6846307385229542	-418.0	-1.3912748409726605	271.0	-118.0	2.4538221429699254	-3.4385587344800075	46.0	
0.1082726635506813	2131.0	10.085833926997708	1243.0	-0.7414324280704194	2064.0	128.0	-0.07847946045370938	9.574494175352545	-15616.0	-1.0594727161250765	-1728.0	0.0	3457.733154296875	47767.0	1260.0	0.7804347826086957	0.2686868686868687	-624.0	-0.6666666666666667	-427.0	-13.119620682266456	159.0	-141.0	3.5468057176015924	-1.6178532228351303	812.0	
0.3039394642966497	2131.0	10.142845665031132	1238.0	-0.7389056426826256	2048.0	-128.0	0.07847946045370938	9.731453096259962	-15872.0	-0.9809932556713672	-1600.0	0.0	3477.264404296875	48407.0	1264.0	0.7891304347826087	0.27070707070707073	-623.0	-0.656686626746507	-432.0	-10.37506867318008	92.0	-173.0	3.794784561435446	-0.6262873360818875	634.0	
0.1811757947062319	2129.0	10.083879746873547	1243.0	-0.7166265530179369	2058.0	0.0	0.0	9.731453096259962	-15872.0	-0.9417535254445125	-1536.0	0.0	3496.795654296875	49047.0	1264.0	0.7891304347826087	0.2585858585858586	-629.0	-0.6906187624750499	-415.0	0.12876726331745247	117.0	-184.0	3.2438442469598883	-1.111553832328992	-51.0	
-0.14847861112053423	2128.0	10.053718468417859	1246.0	-0.7081765170896771	2085.0	448.0	-0.27467811158798283	9.652973635806253	-15744.0	-0.9025137952176578	-1472.0	0.0	3516.326904296875	49687.0	1265.0	0.7913043478260869	0.2686868686868687	-624.0	-0.6766467065868265	-422.0	4.249444424448676	148.0	-181.0	2.9309269208901307	-1.6242434936741448	-320.0	
0.2048217442850716	2123.0	10.081956700168867	1243.0	-0.6441201673626893	2056.0	-128.0	0.07847946045370938	9.692213366033108	-15808.0	-0.9025137952176578	-1472.0	0.0	3535.858154296875	50327.0	1266.0	0.7934782608695652	0.26262626262626265	-627.0	-0.6686626746506987	-426.0	-5.511796029724547	103.0	-91.0	2.2336074933137398	-0.8422204427445796	316.0	
0.3881807259755369	2125.0	10.103120787534529	1241.0	-0.6661713222142968	2041.0	-384.0	0.23543838136112813	9.613733905579398	-15680.0	-0.9417535254445125	-1536.0	0.0	3555.389404296875	50967.0	1260.0	0.7804347826086957	0.26666666666666666	-625.0	-0.6826347305389222	-419.0	-11.561479251577127	160.0	2.0	1.2950394030626176	-1.6486437626173087	709.0	
0.23004937437246692	2123.0	10.166795987842104	1236.0	-0.643019498185083	2054.0	-64.0	0.03923973022685469	9.770692826486817	-15936.0	-0.9025137952176578	-1472.0	0.0	3574.920654296875	51607.0	1262.0	0.7847826086956522	0.2767676767676768	-620.0	-0.6487025948103793	-436.0	-0.9443940829436606	221.0	19.0	0.3383279777672831	-2.682571268296039	16.0	
-0.3179524108060573	2128.0	10.17906798877963	1236.0	-0.7086177598829146	2099.0	832.0	-0.510116492949111	9.770692826486817	-15936.0	-1.0594727161250765	-1728.0	0.0	3594.451904296875	52247.0	1267.0	0.7956521739130434	0.27070707070707073	-623.0	-0.6626746506986029	-429.0	11.612164784437375	275.0	-4.0	-0.1579292221689248	-3.629429632635248	-803.0	
-0.18323214237723914	2133.0	10.177551761879856	1236.0	-0.7675266833230459	2088.0	640.0	-0.39239730226854685	9.770692826486817	-15936.0	-0.9809932556713672	-1600.0	0.0	3613.983154296875	52887.0	1261.0	0.782608695652174	0.27070707070707073	-623.0	-0.6786427145708583	-421.0	5.664339903085213	257.0	-6.0	0.27507382672723246	-3.296187125266594	-415.0	
0.316613615026163	2131.0	10.191360432037872	1234.0	-0.738293753505263	2047.0	-320.0	0.19619865113427343	9.849172286940528	-16064.0	-1.020232985898222	-1664.0	0.0	3633.514404296875	53527.0	1261.0	0.782608695652174	0.2545454545454545	-631.0	-0.6686626746506987	-426.0	-8.43926294834651	176.0	30.0	0.6676768837144229	-1.923211933254178	505.0	
0.34125084093275126	2137.0	10.143537619964626	1238.0	-0.8108147659934356	2045.0	-256.0	0.15695892090741875	9.770692826486817	-15936.0	-1.0594727161250765	-1728.0	0.0	3653.045654296875	54167.0	1264.0	0.7891304347826087	0.26464646464646463	-626.0	-0.6826347305389222	-419.0	1.8538618601360204	153.0	39.0	-0.1976495321263571	-1.6763332954074441	-166.0	
0.0845017250410939	2135.0	10.0994703500439	1242.0	-0.7897265443093908	2066.0	64.0	-0.03923973022685469	9.692213366033108	-15808.0	-1.020232985898222	-1664.0	0.0	3672.576904296875	54807.0	1263.0	0.7869565217391304	0.27474747474747474	-621.0	-0.6786427145708583	-421.0	6.939059832379274	68.0	64.0	-0.9781029313136056	-0.4344096097306369	-497.0	
-0.23222855219466365	2138.0	10.094397085911934	1243.0	-0.829089158036321	2092.0	768.0	-0.47087676272225626	9.613733905579398	-15680.0	-1.0987124463519313	-1792.0	0.0	3692.108154296875	55447.0	1261.0	0.782608695652174	0.2767676767676768	-620.0	-0.6546906187624751	-433.0	-0.5618169219748954	19.0	119.0	-1.3104395012890406	0.38584630610187826	-8.0	
0.010883200773988577	2141.0	9.980475806763085	1252.0	-0.8639418316113759	2072.0	256.0	-0.15695892090741875	9.574494175352545	-15616.0	-1.0987124463519313	-1792.0	0.0	3711.639404296875	56087.0	1263.0	0.7869565217391304	0.27474747474747474	-621.0	-0.6766467065868265	-422.0	-4.954998786673526	3.0	180.0	-1.9289506124458806	0.6731241323534274	278.0	
0.3395787119663793	2145.0	9.87725968047419	1260.0	-0.9098798088466783	2045.0	-256.0	0.15695892090741875	9.53525444512569	-15552.0	-1.137952176578786	-1856.0	0.0	3731.170654296875	56727.0	1262.0	0.7847826086956522	0.2787878787878788	-619.0	-0.6966067864271458	-412.0	6.879607619967461	2.0	218.0	-3.3229627257958905	0.5699871937623026	-494.0	
0.132550034121934	2138.0	9.989488564562851	1251.0	-0.8264904573866458	2062.0	192.0	-0.11771919068056406	9.613733905579398	-15680.0	-1.0594727161250765	-1728.0	0.0	3750.701904296875	57367.0	1259.0	0.7782608695652175	0.2686868686868687	-624.0	-0.6806387225548903	-420.0	21.21703601448418	13.0	225.0	-4.41910325308201	0.25931252958899853	-1429.0	
-0.34244305998631575	2134.0	10.095659311102601	1243.0	-0.7819859097779935	2101.0	768.0	-0.47087676272225626	9.652973635806253	-15744.0	-1.0594727161250765	-1728.0	0.0	3770.233154296875	58007.0	1266.0	0.7934782608695652	0.2545454545454545	-631.0	-0.6526946107784432	-434.0	16.282243228988857	44.0	170.0	-3.2321946534752555	-0.16282243228988857	-1107.0	
-0.2572191570979128	2136.0	10.057841913600939	1246.0	-0.8056082302662948	2094.0	704.0	-0.4316370324954016	9.652973635806253	-15744.0	-1.0987124463519313	-1792.0	0.0	3789.764404296875	58647.0	1262.0	0.7847826086956522	0.2686868686868687	-624.0	-0.6726546906187626	-424.0	7.32861689854839	-11.0	100.0	-1.5930070745534108	0.7632157321552006	-522.0	
-0.15716197146798316	2132.0	10.35967458527568	1221.0	-0.7533965606089108	2086.0	448.0	-0.27467811158798283	9.966891477621092	-16256.0	-1.0594727161250765	-1728.0	0.0	3809.295654296875	59287.0	1259.0	0.7782608695652175	0.24848484848484848	-634.0	-0.6866267465069861	-417.0	3.1432638187944484	-74.0	48.0	-0.5604233014977065	1.7632441678957058	-248.0	
-0.23091196100451084	2133.0	10.288248852359006	1227.0	-0.7668965106045271	2092.0	768.0	-0.47087676272225626	9.849172286940528	-16064.0	-1.0594727161250765	-1728.0	0.0	3828.826904296875	59927.0	1268.0	0.7978260869565218	0.2585858585858586	-629.0	-0.6826347305389222	-419.0	-4.846075959255768	-128.0	-10.0	0.8323482534192769	2.6644303413416073	274.0	
0.08546061967546933	2132.0	10.232847754788486	1231.0	-0.7522386030023481	2066.0	128.0	-0.07847946045370938	9.966891477621092	-16256.0	-1.020232985898222	-1664.0	0.0	3848.358154296875	60567.0	1262.0	0.7847826086956522	0.2727272727272727	-622.0	-0.6766467065868265	-422.0	-10.817240966755014	-248.0	-64.0	1.9845327380586562	4.54923704845082	665.0	
0.26832828076117676	2130.0	10.253058102156675	1229.0	-0.7261114373756405	2051.0	-192.0	0.11771919068056406	9.809932556713672	-16000.0	-1.0594727161250765	-1728.0	0.0	3867.889404296875	61207.0	1263.0	0.7869565217391304	0.26464646464646463	-626.0	-0.6826347305389222	-419.0	-0.9648831369265448	-281.0	-72.0	1.3986726174602258	4.952614610836946	23.0	
0.048403538459979537	2132.0	10.18482542449022	1235.0	-0.7530893971174858	2069.0	256.0	-0.15695892090741875	9.770692826486817	-15936.0	-0.9809932556713672	-1600.0	0.0	3887.420654296875	61847.0	1269.0	0.8	0.25656565656565655	-630.0	-0.6906187624750499	-415.0	7.104066295935284	-269.0	-95.0	1.189201703368076	4.6894156108049065	-503.0	
-0.2936923104712702	2127.0	10.178337117071788	1236.0	-0.6963342748255608	2097.0	768.0	-0.47087676272225626	9.731453096259962	-15872.0	-0.9025137952176578	-1472.0	0.0	3906.951904296875	62487.0	1263.0	0.7869565217391304	0.24444444444444444	-636.0	-0.6766467065868265	-422.0	2.9467983650349625	-319.0	-40.0	0.6235415942612413	5.491444563878168	-232.0	
-0.013540746523593883	2122.0	10.208052658948219	1233.0	-0.6329946399118981	2074.0	320.0	-0.19619865113427343	9.770692826486817	-15936.0	-0.9417535254445125	-1536.0	0.0	3926.483154296875	63127.0	1265.0	0.7913043478260869	0.26262626262626265	-627.0	-0.6546906187624751	-433.0	-6.869001929182926	-290.0	35.0	0.19992609918069215	5.1485379280370775	407.0	
0.15739622107841167	2129.0	10.145323415283245	1238.0	-0.7162499120701181	2060.0	64.0	-0.03923973022685469	9.770692826486817	-15936.0	-0.9809932556713672	-1600.0	0.0	3946.014404296875	63767.0	1266.0	0.7934782608695652	0.26262626262626265	-627.0	-0.6786427145708583	-421.0	-4.8350794269821895	-127.0	18.0	0.4124011548445211	2.6491112505435863	273.0	
-0.0746101089919336	2126.0	10.149286259015655	1238.0	-0.6823857686202445	2079.0	448.0	-0.27467811158798283	9.731453096259962	-15872.0	-0.9809932556713672	-1600.0	0.0	3965.545654296875	64407.0	1266.0	0.7934782608695652	0.2686868686868687	-624.0	-0.6427145708582835	-439.0	4.925440331404683	-51.0	5.0	-0.025792730168701206	1.3956125168380444	-364.0	
-0.35550944774453774	2120.0	10.177899163847401	1236.0	-0.6126194763329471	2102.0	896.0	-0.5493562231759657	9.731453096259962	-15872.0	-0.9025137952176578	-1472.0	0.0	3985.076904296875	65047.0	1263.0	0.7869565217391304	0.25656565656565655	-630.0	-0.6946107784431139	-413.0	4.139791668137909	45.0	37.0	-0.39246866132026864	-0.05660704215666427	-314.0	
0.09570623151545002	2125.0	10.121220274376473	1240.0	-0.6689150722904782	2065.0	192.0	-0.11771919068056406	9.692213366033108	-15808.0	-0.9809932556713672	-1600.0	0.0	4004.608154296875	151.0	1267.0	0.7956521739130434	0.2727272727272727	-622.0	-0.6686626746506987	-426.0	0.9652713733320801	129.0	56.0	-0.4052769584192175	-1.3024283791325606	-108.0	
0.18165632141319873	2128.0	10.144592543575403	1238.0	-0.7039664270127644	2058.0	-64.0	0.03923973022685469	9.731453096259962	-15872.0	-0.9417535254445125	-1536.0	0.0	4024.139404296875	791.0	1268.0	0.7978260869565218	0.24848484848484848	-634.0	-0.6487025948103793	-436.0	12.266283865831177	204.0	101.0	-1.8208627201369663	-2.5561229147039395	-846.0	
-0.5363019489373736	2133.0	10.233453079513723	1232.0	-0.7704983682123085	2117.0	1152.0	-0.7063151440833844	9.809932556713672	-16000.0	-1.0594727161250765	-1728.0	0.0	4043.670654296875	1431.0	1270.0	0.8021739130434783	0.25252525252525254	-632.0	-0.6726546906187626	-424.0	21.232746522584264	247.0	97.0	-2.358798810236987	-3.2997799367087324	-1431.0	
-0.6812613528674978	2138.0	10.310741352802877	1226.0	-0.8314160433741399	2129.0	1536.0	-0.9417535254445125	9.849172286940528	-16064.0	-1.137952176578786	-1856.0	0.0	4063.201904296875	2071.0	1266.0	0.7934782608695652	0.2545454545454545	-631.0	-0.6846307385229542	-418.0	2.8805733299508063	185.0	116.0	-1.4040637584227982	-2.1732924253147172	-234.0	
0.012576917535942603	2143.0	10.127235632844757	1240.0	-0.8865536817251084	2072.0	192.0	-0.11771919068056406	9.652973635806253	-15744.0	-1.1771919068056407	-1920.0	0.0	4082.733154296875	2711.0	1265.0	0.7913043478260869	0.26464646464646463	-626.0	-0.6646706586826349	-428.0	-13.490715999434126	65.0	73.0	0.30705183779043965	-0.18448447498664733	835.0	
0.07304076436656781	2138.0	10.137002612416975	1239.0	-0.8256104096056583	2067.0	192.0	-0.11771919068056406	9.770692826486817	-15936.0	-1.137952176578786	-1856.0	0.0	4102.264404296875	3351.0	1266.0	0.7934782608695652	0.25252525252525254	-632.0	-0.6467065868263474	-437.0	-1.1965263994005364	-118.0	87.0	-0.8698496093247489	2.4758435909902032	35.0	
-0.14726542106554702	2131.0	10.139765497797676	1239.0	-0.7434484932085821	2085.0	576.0	-0.3531575720416922	9.731453096259962	-15872.0	-1.020232985898222	-1664.0	0.0	4121.795654296875	3991.0	1263.0	0.7869565217391304	0.2545454545454545	-631.0	-0.6686626746506987	-426.0	16.143905092627996	-67.0	-27.0	-0.3365715979139966	1.526773876830374	-1095.0	
-0.7943762911374165	2132.0	10.04334128850943	1248.0	-0.7629320367732676	2138.0	1664.0	-1.020232985898222	9.692213366033108	-15808.0	-1.020232985898222	-1664.0	0.0	4141.326904296875	4631.0	1272.0	0.8065217391304348	0.25252525252525254	-632.0	-0.6626746506986029	-429.0	16.357556603090554	-57.0	-132.0	1.2288548007011464	1.3725461069728968	-1108.0	
-0.5149487554195278	2127.0	9.999915352344395	1251.0	-0.7003310569223173	2115.0	1152.0	-0.7063151440833844	9.574494175352545	-15616.0	-0.9417535254445125	-1536.0	0.0	4160.858154296875	5271.0	1269.0	0.8	0.2383838383838384	-639.0	-0.660678642714571	-430.0	-5.361408033504801	-156.0	-126.0	2.590311580037299	3.095439175392083	309.0	
0.0576967320042594	2131.0	9.90396510531099	1258.0	-0.7437568756027508	2068.0	192.0	-0.11771919068056406	9.574494175352545	-15616.0	-0.9417535254445125	-1536.0	0.0	4180.389404296875	5911.0	1266.0	0.7934782608695652	0.26666666666666666	-625.0	-0.660678642714571	-430.0	-19.037590359423707	-216.0	-97.0	3.0708893600849185	4.144748527168382	1201.0	
-0.015585683502650632	2125.0	9.964963037141432	1253.0	-0.6715905638130095	2074.0	384.0	-0.23543838136112813	9.574494175352545	-15616.0	-0.9417535254445125	-1536.0	0.0	4199.920654296875	6551.0	1268.0	0.7978260869565218	0.2686868686868687	-624.0	-0.656686626746507	-432.0	-9.638542260777765	-172.0	-123.0	2.833288770706937	3.381556525269375	588.0	
-0.23515488802762874	2124.0	9.969156532518339	1253.0	-0.661696128133406	2092.0	640.0	-0.39239730226854685	9.53525444512569	-15552.0	-0.8632740649908032	-1408.0	0.0	4219.451904296875	7191.0	1268.0	0.7978260869565218	0.2545454545454545	-631.0	-0.6626746506986029	-429.0	-5.317944835931909	-118.0	-146.0	2.9102544871711777	2.5170577753555174	306.0	
-0.16176043626732023	2126.0	9.968156092391649	1253.0	-0.6850685735592384	2086.0	640.0	-0.39239730226854685	9.613733905579398	-15680.0	-0.9809932556713672	-1600.0	0.0	4238.983154296875	7831.0	1266.0	0.7934782608695652	0.2787878787878788	-619.0	-0.6686626746506987	-426.0	-13.62698804045569	-116.0	-172.0	3.8795857216953302	2.5697299564501845	848.0	
0.11949012270238665	2127.0	10.03587298328502	1247.0	-0.6936270918316919	2063.0	0.0	0.0	9.652973635806253	-15744.0	-0.9417535254445125	-1536.0	0.0	4258.514404296875	8471.0	1267.0	0.7956521739130434	0.2686868686868687	-624.0	-0.6487025948103793	-436.0	-21.41442962283749	-192.0	-123.0	3.6407232307260653	3.8034979083956753	1356.0	
0.5721516996423913	2131.0	10.137428861237906	1238.0	-0.7362776883671004	2026.0	-704.0	0.4316370324954016	9.692213366033108	-15808.0	-1.020232985898222	-1664.0	0.0	4278.045654296875	9111.0	1266.0	0.7934782608695652	0.26666666666666666	-625.0	-0.6806387225548903	-420.0	-18.315388240267954	-150.0	-68.0	2.625993575150779	3.1337242246080033	1153.0	
-0.03644971519529684	2134.0	10.211406315649107	1233.0	-0.7777685062846182	2076.0	448.0	-0.27467811158798283	9.809932556713672	-16000.0	-1.137952176578786	-1856.0	0.0	4297.576904296875	9751.0	1267.0	0.7956521739130434	0.28888888888888886	-614.0	-0.6706586826347306	-425.0	-0.13365301893986375	-71.0	-92.0	1.7684257302032669	1.7503859598471936	-33.0	
-0.10983553183737245	2136.0	10.164599510412291	1237.0	-0.8030668180455759	2082.0	448.0	-0.27467811158798283	9.731453096259962	-15872.0	-1.0987124463519313	-1792.0	0.0	4317.108154296875	10391.0	1264.0	0.7891304347826087	0.2686868686868687	-624.0	-0.6786427145708583	-421.0	-1.6332869069597995	-85.0	-101.0	1.999215672276428	1.978310055381385	65.0	
0.07156464377273601	2125.0	10.146093203765437	1238.0	-0.6689077588740157	2067.0	128.0	-0.07847946045370938	9.692213366033108	-15808.0	-0.9417535254445125	-1536.0	0.0	4336.639404296875	11031.0	1267.0	0.7956521739130434	0.2727272727272727	-622.0	-0.6706586826347306	-425.0	-12.97718971234193	-243.0	-86.0	2.467742078305333	4.4947909085302635	806.0	
0.39964600420917945	2124.0	10.0416849024797	1246.0	-0.6546228355114242	2040.0	-384.0	0.23543838136112813	9.692213366033108	-15808.0	-0.8632740649908032	-1408.0	0.0	4356.170654296875	11671.0	1270.0	0.8021739130434783	0.29292929292929293	-612.0	-0.6327345309381238	-444.0	-14.89917434363429	-222.0	-74.0	2.4343778290650095	4.194619119862199	931.0	
0.3033166784224695	2122.0	10.1894607353978	1234.0	-0.6300119848979417	2048.0	-256.0	0.15695892090741875	9.809932556713672	-16000.0	-0.8632740649908032	-1408.0	0.0	4375.701904296875	12311.0	1270.0	0.8021739130434783	0.296969696969697	-610.0	-0.6407185628742516	-440.0	-3.0221515891306456	-108.0	-124.0	2.426715844925153	2.3420085881346524	156.0	
-0.07473509792268128	2124.0	10.160999635357165	1237.0	-0.6581734992039682	2079.0	320.0	-0.19619865113427343	9.731453096259962	-15872.0	-0.9025137952176578	-1472.0	0.0	4395.233154296875	12951.0	1265.0	0.7913043478260869	0.29292929292929293	-612.0	-0.6706586826347306	-425.0	8.390098036437934	1.0	-138.0	1.9086301105315866	0.5700914150728831	-589.0	
0.010721512590751367	2122.0	10.1953699758995	1234.0	-0.6328788441512418	2072.0	320.0	-0.19619865113427343	9.809932556713672	-16000.0	-0.9809932556713672	-1600.0	0.0	4414.764404296875	13591.0	1267.0	0.7956521739130434	0.2808080808080808	-618.0	-0.6367265469061877	-442.0	7.13017100299041	51.0	-69.0	0.992256524389415	-0.1777655883569003	-508.0	
-0.184344090076619	2121.0	10.211261280908177	1233.0	-0.6226223943567445	2088.0	640.0	-0.39239730226854685	9.809932556713672	-16000.0	-0.8240343347639485	-1344.0	0.0	4434.295654296875	14231.0	1271.0	0.8043478260869565	0.2787878787878788	-619.0	-0.656686626746507	-432.0	4.046466477560104	71.0	-82.0	1.4139522084652294	-0.4511110526083007	-307.0	
-0.09840047651754487	2121.0	10.270488984129736	1228.0	-0.6211706811889381	2081.0	512.0	-0.3139178418148375	9.849172286940528	-16064.0	-0.9417535254445125	-1536.0	0.0	4453.826904296875	14871.0	1265.0	0.7913043478260869	0.2787878787878788	-619.0	-0.6726546906187626	-424.0	-2.185960099254278	30.0	-107.0	2.1975987261351912	0.2347873576465352	100.0	
0.3759763080551994	2119.0	10.175077873934027	1235.0	-0.5932846389029991	2042.0	-256.0	0.15695892090741875	9.849172286940528	-16064.0	-0.8632740649908032	-1408.0	0.0	4473.358154296875	15511.0	1268.0	0.7978260869565218	0.2868686868686869	-615.0	-0.6467065868263474	-437.0	-11.385081038505492	-13.0	-188.0	4.026090651287786	0.9807709624763097	701.0	
0.363911990522517	2122.0	10.151658904605878	1237.0	-0.6297840500848604	2043.0	-384.0	0.23543838136112813	9.770692826486817	-15936.0	-0.8240343347639485	-1344.0	0.0	4492.889404296875	16151.0	1269.0	0.8	0.2767676767676768	-620.0	-0.6387225548902197	-441.0	-3.963751052314416	-30.0	-262.0	4.608669156287013	1.1651127956942469	218.0	
-0.0020862621877424242	2116.0	10.206375830597775	1233.0	-0.5606077067255381	2073.0	192.0	-0.11771919068056406	9.770692826486817	-15936.0	-0.8240343347639485	-1344.0	0.0	4512.420654296875	16791.0	1270.0	0.8021739130434783	0.2828282828282828	-617.0	-0.6706586826347306	-425.0	9.428032393539793	-56.0	-254.0	3.540843507976255	1.4266322235931195	-655.0	
0.06008857164130248	2121.0	10.267288145524647	1228.0	-0.6196177990934005	2068.0	256.0	-0.15695892090741875	9.809932556713672	-16000.0	-0.7847946045370937	-1280.0	0.0	4531.951904296875	17431.0	1269.0	0.8	0.2787878787878788	-619.0	-0.6447105788423154	-438.0	-5.914349394059163	-95.0	-180.0	3.4755017672903787	2.173211935005231	345.0	
0.1694454271541866	2119.0	10.25240506399753	1229.0	-0.5945766758113742	2059.0	0.0	0.0	9.809932556713672	-16000.0	-0.8632740649908032	-1408.0	0.0	4551.483154296875	18071.0	1270.0	0.8021739130434783	0.2767676767676768	-620.0	-0.6546906187624751	-433.0	-5.491270255153425	-97.0	-238.0	4.314403946575821	2.1993993945667434	318.0	
0.24356606592384078	2122.0	10.31259429057143	1224.0	-0.6293781554711916	2053.0	0.0	0.0	9.849172286940528	-16064.0	-0.9025137952176578	-1472.0	0.0	4571.014404296875	18711.0	1267.0	0.7956521739130434	0.29494949494949496	-611.0	-0.656686626746507	-432.0	-5.003304424805923	-190.0	-231.0	4.118916051778692	3.6089684054647897	287.0	
0.11994690283421319	2115.0	10.228055704736521	1231.0	-0.5471223835628466	2063.0	192.0	-0.11771919068056406	9.809932556713672	-16000.0	-0.8240343347639485	-1344.0	0.0	4590.545654296875	19351.0	1272.0	0.8065217391304348	0.29494949494949496	-611.0	-0.656686626746507	-432.0	-5.870103471931514	-249.0	-223.0	4.023411699351953	4.51497479897787	344.0	
0.118733712779226	2112.0	10.142008675356706	1238.0	-0.5118504074439416	2063.0	256.0	-0.15695892090741875	9.692213366033108	-15808.0	-0.7847946045370937	-1280.0	0.0	4610.076904296875	19991.0	1272.0	0.8065217391304348	0.2868686868686869	-615.0	-0.6706586826347306	-425.0	-10.143646403299185	-204.0	-201.0	4.018391630771886	3.8732995819037144	622.0	
0.11668229946149462	2112.0	9.934774487572549	1255.0	-0.5139432634549606	2063.0	64.0	-0.03923973022685469	9.53525444512569	-15552.0	-0.745554874310239	-1216.0	0.0	4629.608154296875	20631.0	1269.0	0.8	0.296969696969697	-610.0	-0.656686626746507	-432.0	-14.646014491478226	-89.0	-153.0	3.682078246985414	2.1692738331277104	914.0	
0.21396620232346353	2109.0	9.94427968208079	1254.0	-0.47673079416800546	2055.0	-64.0	0.03923973022685469	9.613733905579398	-15680.0	-0.745554874310239	-1216.0	0.0	4649.139404296875	21271.0	1268.0	0.7978260869565218	0.298989898989899	-609.0	-0.6447105788423154	-438.0	-19.49689078902937	62.0	-66.0	2.807214529078739	-0.0787953506648394	1228.0	
0.861333526595503	2115.0	9.981421704663386	1250.0	-0.542174857325965	2002.0	-1088.0	0.6670754138565297	9.692213366033108	-15808.0	-0.7847946045370937	-1280.0	0.0	4668.670654296875	21911.0	1265.0	0.7913043478260869	0.29292929292929293	-612.0	-0.6766467065868265	-422.0	-7.752195998221943	389.0	48.0	0.4795737055689159	-5.169626328991165	458.0	
0.6819631765075438	2116.0	10.326680312503163	1222.0	-0.5525641675195312	2017.0	-896.0	0.5493562231759657	9.966891477621092	-16256.0	-0.8240343347639485	-1344.0	0.0	4688.201904296875	22551.0	1266.0	0.7934782608695652	0.3151515151515151	-601.0	-0.6367265469061877	-442.0	10.649097525654437	604.0	64.0	-0.9102379045754427	-8.623601241416242	-744.0	
0.025457870535787075	2127.0	10.391359873986012	1218.0	-0.691012545446348	2071.0	320.0	-0.19619865113427343	9.966891477621092	-16256.0	-0.9809932556713672	-1600.0	0.0	4707.733154296875	23191.0	1267.0	0.7956521739130434	0.296969696969697	-610.0	-0.658682634730539	-431.0	8.807133498758263	721.0	165.0	-2.225101379639854	-10.384649281755644	-626.0	
0.4050934861690517	2132.0	10.49463149706369	1209.0	-0.7464244369146602	2040.0	-448.0	0.27467811158798283	10.123850398528509	-16512.0	-1.020232985898222	-1664.0	0.0	4727.264404296875	23831.0	1270.0	0.8021739130434783	0.29292929292929293	-612.0	-0.6686626746506987	-426.0	-5.893468029123161	564.0	165.0	-1.2974528212840977	-7.849810566857058	334.0	
0.4536028929408347	2125.0	10.552928810352388	1204.0	-0.6610190203164651	2036.0	-512.0	0.3139178418148375	10.084610668301655	-16448.0	-0.9025137952176578	-1472.0	0.0	4746.795654296875	24471.0	1262.0	0.7847826086956522	0.3151515151515151	-601.0	-0.6506986027944113	-435.0	-6.476444662542433	482.0	246.0	-2.521156382755253	-6.596832511549481	372.0	
0.39119966904587655	2126.0	10.395925134699764	1217.0	-0.6752612820830253	2041.0	-320.0	0.19619865113427343	9.966891477621092	-16256.0	-0.9809932556713672	-1600.0	0.0	4766.326904296875	25111.0	1267.0	0.7956521739130434	0.3151515151515151	-601.0	-0.6506986027944113	-435.0	4.934158418629361	429.0	196.0	-2.597952515806117	-5.904854892171085	-371.0	
-0.0131787324087001	2122.0	10.244623397968953	1230.0	-0.6326253123805418	2074.0	320.0	-0.19619865113427343	9.888412017167381	-16128.0	-0.9025137952176578	-1472.0	0.0	4785.858154296875	25751.0	1263.0	0.7869565217391304	0.30505050505050507	-606.0	-0.6846307385229542	-418.0	6.353430094922055	298.0	166.0	-2.3266545295228047	-3.926652171671654	-462.0	
0.11851395783154556	2122.0	9.99811006926745	1250.0	-0.6337735187651543	2063.0	0.0	0.0	9.613733905579398	-15680.0	-0.9417535254445125	-1536.0	0.0	4805.389404296875	26391.0	1261.0	0.782608695652174	0.298989898989899	-609.0	-0.7045908183632735	-408.0	-1.1427760838249343	170.0	62.0	-0.32356891211037725	-1.9049220490476824	29.0	
0.27567777968200724	2123.0	9.848864709578796	1262.0	-0.6457425269146208	2050.0	-128.0	0.07847946045370938	9.417535254445125	-15360.0	-0.9025137952176578	-1472.0	0.0	4824.920654296875	27031.0	1265.0	0.7913043478260869	0.301010101010101	-608.0	-0.658682634730539	-431.0	-5.087870861810513	73.0	-25.0	1.196346103680269	-0.39018593016516484	288.0	
0.5686479123059685	2129.0	9.807815340052569	1265.0	-0.7155124759101493	2026.0	-640.0	0.39239730226854685	9.37829552421827	-15296.0	-0.9417535254445125	-1536.0	0.0	4844.451904296875	27671.0	1262.0	0.7847826086956522	0.30505050505050507	-606.0	-0.6706586826347306	-425.0	-2.0840688358831483	135.0	32.0	0.17042740021125327	-1.3631897298921192	91.0	
0.6786016483383343	2124.0	9.889738924249302	1258.0	-0.6533527388524366	2017.0	-768.0	0.47087676272225626	9.574494175352545	-15616.0	-0.8632740649908032	-1408.0	0.0	4863.983154296875	28311.0	1267.0	0.7956521739130434	0.298989898989899	-609.0	-0.660678642714571	-430.0	4.194155202103305	198.0	37.0	-0.303172515375515	-2.3841468752149493	-319.0	
0.38660983936477233	2124.0	9.956599396452226	1253.0	-0.6556040522201431	2041.0	-384.0	0.23543838136112813	9.574494175352545	-15616.0	-0.9809932556713672	-1600.0	0.0	4883.514404296875	28951.0	1266.0	0.7934782608695652	0.296969696969697	-610.0	-0.6546906187624751	-433.0	5.773072666085006	187.0	53.0	-0.6596372460477818	-2.2326356696266294	-422.0	
0.1478638435704275	2131.0	10.389851430441109	1218.0	-0.737996341235788	2061.0	64.0	-0.03923973022685469	9.966891477621092	-16256.0	-0.9417535254445125	-1536.0	0.0	4903.045654296875	29591.0	1263.0	0.7869565217391304	0.301010101010101	-608.0	-0.6746506986027945	-423.0	-2.355330116004105	176.0	-40.0	1.2937104209522068	-1.984051261577602	109.0	
0.15187622174807391	2145.0	10.624804200896902	1199.0	-0.9042813885446341	2061.0	0.0	0.0	10.241569589209073	-16704.0	-1.2164316370324952	-1984.0	0.0	4922.576904296875	30231.0	1258.0	0.7760869565217391	0.296969696969697	-610.0	-0.6846307385229542	-418.0	-6.444035681701697	8.0	-123.0	2.720456816225296	0.6119688739272833	378.0	
0.2138097128338563	2150.0	10.661336023143289	1196.0	-0.9635376992667342	2056.0	-64.0	0.03923973022685469	10.241569589209073	-16704.0	-1.2949110974862048	-2112.0	0.0	4942.108154296875	30871.0	1267.0	0.7956521739130434	0.296969696969697	-610.0	-0.6786427145708583	-421.0	-2.40337593974237	-171.0	-98.0	1.9555169660787364	3.2939957365837356	116.0	
0.4158563239684887	2141.0	10.240536020558627	1230.0	-0.8572914982414755	2039.0	-320.0	0.19619865113427343	9.849172286940528	-16064.0	-1.2164316370324952	-1984.0	0.0	4961.639404296875	31511.0	1263.0	0.7869565217391304	0.3151515151515151	-601.0	-0.6706586826347306	-425.0	0.7661295020500583	-359.0	-187.0	2.954879597339047	6.121616271519424	-88.0	
0.3763728626430245	2135.0	10.020419631500731	1248.0	-0.7875983401188031	2042.0	-384.0	0.23543838136112813	9.692213366033108	-15808.0	-1.137952176578786	-1856.0	0.0	4981.170654296875	32151.0	1268.0	0.7978260869565218	0.31717171717171716	-600.0	-0.656686626746507	-432.0	1.6208425711393766	-450.0	-173.0	2.6301352985266293	7.497099559079481	-143.0	
