Device	Device	Device	Device	Device	Device	Device	Device	Device	Device	Device	Device	Device	Device	Device	Device	Device	Device	Device	Device	Device	Device	Device	Device	Device	Device	Device	
Low Noise Accelerometer X	Low Noise Accelerometer X	Low Noise Accelerometer Z	Low Noise Accelerometer Z	Low Noise Accelerometer Y	Low Noise Accelerometer Y	Wide Range Accelerometer X	Wide Range Accelerometer X	Wide Range Accelerometer Z	Wide Range Accelerometer Z	Wide Range Accelerometer Y	Wide Range Accelerometer Y	Event_Marker	Timestamp	Timestamp	Magnetometer Z	Magnetometer Z	Magnetometer X	Magnetometer X	Magnetometer Y	Magnetometer Y	Gyroscope Y	Gyroscope Y	Gyroscope Z	Gyroscope Z	Gyroscope X	Gyroscope X	
CAL	UNCAL	CAL	UNCAL	CAL	UNCAL	CAL	UNCAL	CAL	UNCAL	UNCAL	CAL	CAL	UNCAL	CAL	CAL	UNCAL	CAL	UNCAL	CAL	UNCAL	CAL	UNCAL	UNCAL	CAL	UNCAL	CAL	
m/(s^2)	no units	m/(s^2)	no units	m/(s^2)	no units	m/(s^2)	no units	m/(s^2)	no units	no units	m/(s^2)	no units	no units	ms	local_flux	no units	local_flux	no units	local_flux	no units	deg/s	no units	no units	deg/s	no units	deg/s	
0.5673483710686529	2086.0	10.199840764307822	1232.0	-0.1935329279233436	2026.0	0.39239730226854685	-640.0	9.692213366033108	-15808.0	-768.0	-0.47087676272225626	0.0	43873.0	1338.897705078125	0.7434782608695653	1243.0	0.2868686868686869	-615.0	-0.6247504990019961	-448.0	-6.203984367222541	160.0	-133.0	2.9461457651085396	361.0	-1.7022187114608547	
0.5796626664628306	2087.0	10.199832980952953	1232.0	-0.20545805557403485	2025.0	0.3139178418148375	-512.0	9.809932556713672	-16000.0	-768.0	-0.47087676272225626	0.0	44513.0	1358.428955078125	0.7478260869565218	1245.0	0.27070707070707073	-623.0	-0.6227544910179642	-449.0	-7.160007053404737	127.0	-169.0	3.532339033371978	424.0	-1.190757343914622	
0.79935254235944	2088.0	10.20782973191629	1231.0	-0.21522938207651973	2007.0	0.510116492949111	-832.0	9.770692826486817	-15936.0	-896.0	-0.5493562231759657	0.0	45153.0	1377.960205078125	0.7478260869565218	1245.0	0.2787878787878788	-619.0	-0.6407185628742516	-440.0	-8.00244447648404	39.0	-193.0	3.897256646300316	480.0	0.15607007214126628	
0.7629979015781557	2078.0	10.352466993068258	1219.0	-0.09366462816196955	2010.0	0.7847946045370937	-1280.0	9.888412017167381	-16128.0	-704.0	-0.4316370324954016	0.0	45793.0	1397.491455078125	0.741304347826087	1242.0	0.2909090909090909	-613.0	-0.6127744510978045	-454.0	-6.47762854479512	66.0	-160.0	3.312802689279919	380.0	-0.2698244750083226	
0.6770629231373144	2082.0	10.245432044483191	1228.0	-0.14378709851656596	2017.0	0.7847946045370937	-1280.0	9.888412017167381	-16128.0	-704.0	-0.4316370324954016	0.0	46433.0	1417.022705078125	0.7391304347826088	1241.0	0.27474747474747474	-621.0	-0.660678642714571	-430.0	-4.889140357918092	151.0	-199.0	3.838662584266159	276.0	-1.5784850222763325	
0.786542608801388	2081.0	10.23078739795544	1229.0	-0.1307905553541184	2008.0	0.627835683629675	-1024.0	9.849172286940528	-16064.0	-640.0	-0.39239730226854685	0.0	47073.0	1436.553955078125	0.7478260869565218	1245.0	0.298989898989899	-609.0	-0.6367265469061877	-442.0	-5.896549229643009	46.0	-129.0	2.7954246523732	342.0	0.028547241345859748	
0.9705071061295678	2084.0	10.300950905681448	1223.0	-0.1643938536168295	1993.0	0.5885959534028203	-960.0	9.809932556713672	-16000.0	-640.0	-0.39239730226854685	0.0	47713.0	1456.085205078125	0.7260869565217392	1235.0	0.28888888888888886	-614.0	-0.6626746506986029	-429.0	-6.096296072875559	-33.0	-152.0	3.1060937823671813	356.0	1.2320656223257138	
0.6268382118079953	2077.0	10.159893018521592	1235.0	-0.08490377203405348	2021.0	0.627835683629675	-1024.0	9.770692826486817	-15936.0	-320.0	-0.19619865113427343	0.0	48353.0	1475.616455078125	0.7521739130434782	1247.0	0.296969696969697	-610.0	-0.6127744510978045	-454.0	-4.524733892093703	5.0	-237.0	4.294193743897901	254.0	0.6384032324570588	
1.03025340106908	2082.0	10.201720973189571	1231.0	-0.1406923044501845	1988.0	0.745554874310239	-1216.0	9.770692826486817	-15936.0	-704.0	-0.4316370324954016	0.0	48993.0	1495.147705078125	0.741304347826087	1242.0	0.27070707070707073	-623.0	-0.660678642714571	-430.0	-4.35146824937045	7.0	-167.0	3.2338759228335707	242.0	0.6062523250792559	
1.0907302005770545	2083.0	10.139777084716528	1236.0	-0.1527551681109195	1983.0	0.8632740649908032	-1408.0	9.770692826486817	-15936.0	-704.0	-0.4316370324954016	0.0	49633.0	1514.678955078125	0.7391304347826088	1241.0	0.29292929292929293	-612.0	-0.6147704590818364	-453.0	-0.9060600577475783	40.0	-163.0	2.954181543331491	17.0	0.06989710247861647	
0.9803950214137711	2079.0	10.12884906356695	1237.0	-0.10577502902971081	1992.0	0.7847946045370937	-1280.0	9.574494175352545	-15616.0	-704.0	-0.4316370324954016	0.0	50273.0	1534.210205078125	0.7456521739130435	1244.0	0.28888888888888886	-614.0	-0.6207584830339322	-450.0	-0.46517352609699003	4.0	-102.0	1.9870519714085177	-12.0	0.6130167542723768	
0.871264397187242	2074.0	10.251775317160693	1227.0	-0.04539610888061699	2001.0	0.627835683629675	-1024.0	9.849172286940528	-16064.0	-576.0	-0.3531575720416922	0.0	50913.0	1553.741455078125	0.7369565217391304	1240.0	0.27070707070707073	-623.0	-0.6506986027944113	-435.0	0.23187096824665918	87.0	-24.0	0.8196166788263236	-59.0	-0.656311105119729	
0.7124306051499667	2082.0	10.122790926018034	1238.0	-0.14465983288109097	2014.0	0.7063151440833844	-1152.0	9.770692826486817	-15936.0	-448.0	-0.27467811158798283	0.0	51553.0	1573.272705078125	0.7434782608695653	1243.0	0.29292929292929293	-612.0	-0.6347305389221558	-443.0	-2.011486519513236	173.0	-80.0	1.8676539615044456	87.0	-1.9418623211166548	
0.9195670016886939	2083.0	10.094463156314875	1240.0	-0.15491993938381965	1997.0	0.5885959534028203	-960.0	9.770692826486817	-15936.0	-640.0	-0.39239730226854685	0.0	52193.0	1592.803955078125	0.7456521739130435	1244.0	0.28484848484848485	-616.0	-0.6247504990019961	-448.0	-5.315391756935738	108.0	-76.0	1.9980920248008065	303.0	-0.9202301128488936	
1.053675278141123	2084.0	10.079802943077386	1241.0	-0.1657736515227546	1986.0	0.8632740649908032	-1408.0	9.692213366033108	-15808.0	-640.0	-0.39239730226854685	0.0	52833.0	1612.335205078125	0.7347826086956522	1239.0	0.30707070707070705	-605.0	-0.6307385229540919	-445.0	-4.89078907951098	98.0	-34.0	1.33277087084064	275.0	-0.7723848848702896	
1.00490941716917	2084.0	10.080787816494336	1241.0	-0.16625146139830463	1990.0	0.8632740649908032	-1408.0	9.652973635806253	-15744.0	-576.0	-0.3531575720416922	0.0	53473.0	1631.866455078125	0.7304347826086957	1237.0	0.30505050505050507	-606.0	-0.6526946107784432	-434.0	-2.185746860221386	132.0	-3.0	0.7004167268325682	98.0	-1.3165455732228812	
0.9434629291290291	2081.0	10.069113356927176	1242.0	-0.13083809256112466	1995.0	0.8240343347639485	-1344.0	9.692213366033108	-15808.0	-768.0	-0.47087676272225626	0.0	54113.0	1651.397705078125	0.7434782608695653	1243.0	0.2828282828282828	-617.0	-0.6227544910179642	-449.0	-1.193073627771831	161.0	-3.0	0.6489692554054098	33.0	-1.7675369443306468	
0.7730280760295722	2083.0	10.073037283885236	1242.0	-0.15659958736470725	2009.0	0.7063151440833844	-1152.0	9.731453096259962	-15872.0	-576.0	-0.3531575720416922	0.0	54753.0	1670.928955078125	0.7304347826086957	1237.0	0.3111111111111111	-603.0	-0.6467065868263474	-437.0	-0.8131710083349231	218.0	-35.0	1.1369649591162814	8.0	-2.6382561226162706	
0.7737585805980345	2086.0	10.110323327904073	1239.0	-0.19236400019208727	2009.0	0.627835683629675	-1024.0	9.731453096259962	-15872.0	-640.0	-0.39239730226854685	0.0	55393.0	1690.460205078125	0.7347826086956522	1239.0	0.30303030303030304	-607.0	-0.6666666666666667	-427.0	-2.3456241828437636	230.0	-55.0	1.550774155252752	108.0	-2.8054410965746044	
0.9689556485348272	2092.0	10.046863212531257	1244.0	-0.2633357872929535	1993.0	0.745554874310239	-1216.0	9.692213366033108	-15808.0	-704.0	-0.4316370324954016	0.0	56033.0	1709.991455078125	0.7391304347826088	1241.0	0.296969696969697	-610.0	-0.6487025948103793	-436.0	-5.207561142699946	214.0	-80.0	2.115043721057708	295.0	-2.53347571937148	
1.079405022731067	2093.0	10.10583691404371	1239.0	-0.2736897493069509	1984.0	0.8632740649908032	-1408.0	9.692213366033108	-15808.0	-896.0	-0.5493562231759657	0.0	56673.0	1729.522705078125	0.7347826086956522	1239.0	0.3090909090909091	-604.0	-0.6467065868263474	-437.0	-3.8709091034945082	198.0	-80.0	2.0122788988248272	208.0	-2.303496232158971	
1.0303999777954098	2094.0	10.070489483439294	1242.0	-0.286581466833436	1988.0	0.8632740649908032	-1408.0	9.692213366033108	-15808.0	-960.0	-0.5885959534028203	0.0	57313.0	1749.053955078125	0.7391304347826088	1241.0	0.3151515151515151	-601.0	-0.6247504990019961	-448.0	-2.192364986199526	240.0	-64.0	1.6811234990895607	98.0	-2.9590649432938982	
0.9818840946849522	2098.0	10.048047604173226	1244.0	-0.3354838155415386	1992.0	0.745554874310239	-1216.0	9.692213366033108	-15808.0	-1088.0	-0.6670754138565297	0.0	57953.0	1768.585205078125	0.7369565217391304	1240.0	0.28888888888888886	-614.0	-0.6526946107784432	-434.0	-3.294052812481665	209.0	-51.0	1.5440391074838067	170.0	-2.4765651752972366	
1.0059028522764766	2097.0	10.022936239784894	1246.0	-0.32344654883842233	1990.0	0.7847946045370937	-1280.0	9.692213366033108	-15808.0	-896.0	-0.5493562231759657	0.0	58593.0	1788.116455078125	0.741304347826087	1242.0	0.3151515151515151	-601.0	-0.6147704590818364	-453.0	-5.370513467811727	115.0	-22.0	1.1965918486120548	306.0	-1.02614277406713	
0.9810307599653005	2094.0	10.010523125155022	1247.0	-0.2876748225945798	1992.0	0.9417535254445125	-1536.0	9.731453096259962	-15872.0	-896.0	-0.5493562231759657	0.0	59233.0	1807.647705078125	0.7434782608695653	1243.0	0.31717171717171716	-600.0	-0.6187624750499002	-451.0	-5.524824028788868	4.0	-10.0	0.9598933015682865	317.0	0.6636132592992956	
1.0903832979190682	2090.0	10.019543666309657	1246.0	-0.2382983207191584	1983.0	0.9417535254445125	-1536.0	9.692213366033108	-15808.0	-896.0	-0.5493562231759657	0.0	59873.0	1827.178955078125	0.7369565217391304	1240.0	0.31313131313131315	-602.0	-0.6506986027944113	-435.0	-4.208094240307303	3.0	6.0	0.6277604833009431	231.0	0.6656550868897652	
1.0661210388047229	2090.0	10.032226349358377	1245.0	-0.2384141164798147	1985.0	1.020232985898222	-1664.0	9.574494175352545	-15616.0	-704.0	-0.4316370324954016	0.0	60513.0	1846.710205078125	0.7304347826086957	1237.0	0.3090909090909091	-604.0	-0.6766467065868265	-422.0	1.3442529914298256	18.0	-11.0	0.505315154975351	-131.0	0.3819947324431162	
0.9689556485348272	2092.0	10.046863212531257	1244.0	-0.2633357872929535	1993.0	0.7847946045370937	-1280.0	9.652973635806253	-15744.0	-832.0	-0.510116492949111	0.0	61153.0	1866.241455078125	0.7347826086956522	1239.0	0.3090909090909091	-604.0	-0.6427145708582835	-439.0	6.156057173609033	-35.0	-35.0	0.49799032784309594	-444.0	1.1399603408114383	
0.7991133583957356	2089.0	10.171497427894925	1234.0	-0.22764328972745476	2007.0	0.9417535254445125	-1536.0	9.692213366033108	-15808.0	-960.0	-0.5885959534028203	0.0	61793.0	1885.772705078125	0.7369565217391304	1240.0	0.30505050505050507	-606.0	-0.6487025948103793	-436.0	5.252874815521814	-60.0	-22.0	0.3507401457650439	-385.0	1.5292203012744399	
1.0322057308107622	2092.0	10.277246801224715	1225.0	-0.2603994505832596	1988.0	0.745554874310239	-1216.0	9.849172286940528	-16064.0	-960.0	-0.5885959534028203	0.0	62433.0	1905.303955078125	0.7282608695652174	1236.0	0.3151515151515151	-601.0	-0.62874251497006	-446.0	-0.4679970793364304	-105.0	23.0	0.04687373512599749	-12.0	2.270839666610855	
1.068799555555751	2101.0	10.168941844094112	1234.0	-0.3695502968468748	1985.0	0.8240343347639485	-1344.0	9.770692826486817	-15936.0	-896.0	-0.5493562231759657	0.0	63073.0	1924.835205078125	0.7369565217391304	1240.0	0.298989898989899	-609.0	-0.6207584830339322	-450.0	-6.111363024633884	69.0	54.0	0.08073990203478115	354.0	-0.3191145066357905	
1.1543746786612565	2098.0	10.227454242317569	1229.0	-0.3319648433203321	1978.0	1.0594727161250765	-1728.0	9.849172286940528	-16064.0	-1024.0	-0.627835683629675	0.0	63713.0	1944.366455078125	0.7369565217391304	1240.0	0.3111111111111111	-603.0	-0.658682634730539	-431.0	-5.049976817022664	66.0	36.0	0.2749073943942727	285.0	-0.2841009922860472	
1.0325806976030052	2098.0	10.242106672200187	1228.0	-0.3330362588320884	1988.0	0.9417535254445125	-1536.0	9.849172286940528	-16064.0	-576.0	-0.3531575720416922	0.0	64353.0	1963.897705078125	0.7369565217391304	1240.0	0.32525252525252524	-596.0	-0.6187624750499002	-451.0	0.025141838756333926	85.0	27.0	0.06817060504640465	-46.0	-0.6238255628742554	
0.7641271195140013	2098.0	10.223142983312925	1230.0	-0.3359104315018511	2010.0	0.5493562231759657	-896.0	9.809932556713672	-16000.0	-896.0	-0.5493562231759657	0.0	64993.0	1983.428955078125	0.7326086956521739	1238.0	0.3090909090909091	-604.0	-0.6167664670658684	-452.0	3.559169470208973	129.0	43.0	-0.39090971723621215	-277.0	-1.3283673601013295	
0.8363019048806478	2094.0	10.171950947829052	1234.0	-0.2875078329186861	2004.0	0.5493562231759657	-896.0	9.849172286940528	-16064.0	-896.0	-0.5493562231759657	0.0	97.0	2002.960205078125	0.7326086956521739	1238.0	0.32525252525252524	-596.0	-0.6427145708582835	-439.0	-1.4314627405857157	175.0	39.0	0.0443930905021267	48.0	-1.9780808098565006	
0.9830929671808228	2099.0	10.157998256234794	1235.0	-0.3464204130670485	1992.0	0.8240343347639485	-1344.0	9.809932556713672	-16000.0	-960.0	-0.5885959534028203	0.0	737.0	2022.491455078125	0.7260869565217392	1235.0	0.32727272727272727	-595.0	-0.6187624750499002	-451.0	-3.62772433942606	232.0	4.0	0.7566673350494726	191.0	-2.8230383459593518	
0.9840712908312222	2105.0	10.18380935891149	1233.0	-0.41844167543028354	1992.0	0.8240343347639485	-1344.0	9.888412017167381	-16128.0	-1088.0	-0.6670754138565297	0.0	1377.0	2042.022705078125	0.741304347826087	1242.0	0.30303030303030304	-607.0	-0.6447105788423154	-438.0	-0.8836512714186117	234.0	-92.0	2.0061769393742668	13.0	-2.8808973275899965	
1.1176882466788933	2102.0	10.16819540567653	1234.0	-0.3811170670909034	1981.0	0.9417535254445125	-1536.0	9.731453096259962	-15872.0	-1024.0	-0.627835683629675	0.0	2017.0	2061.553955078125	0.7239130434782609	1234.0	0.31717171717171716	-600.0	-0.6467065868263474	-437.0	-0.18067300257439955	178.0	-123.0	2.387948826989975	-32.0	-2.036216083662469	
1.0199087056530503	2099.0	10.181640093852572	1233.0	-0.3458158373061485	1989.0	0.8632740649908032	-1408.0	9.809932556713672	-16000.0	-896.0	-0.5493562231759657	0.0	2657.0	2081.085205078125	0.7347826086956522	1239.0	0.31717171717171716	-600.0	-0.6187624750499002	-451.0	0.9353796645979345	152.0	-74.0	1.559821387202313	-105.0	-1.651939347976778	
1.043694755619545	2102.0	10.084340991420243	1241.0	-0.3826955461440599	1987.0	0.8240343347639485	-1344.0	9.770692826486817	-15936.0	-1024.0	-0.627835683629675	0.0	3297.0	2100.616455078125	0.7239130434782609	1234.0	0.3151515151515151	-601.0	-0.6447105788423154	-438.0	-0.6092714698840229	186.0	-34.0	1.0883133668836076	-5.0	-2.1536031027916542	
0.9706623179741305	2100.0	10.121912170567667	1238.0	-0.35895377318687105	1993.0	0.8632740649908032	-1408.0	9.692213366033108	-15808.0	-960.0	-0.5885959534028203	0.0	3937.0	2120.147705078125	0.7282608695652174	1236.0	0.31717171717171716	-600.0	-0.6447105788423154	-438.0	-2.1530745269488616	145.0	-29.0	1.0958565751352232	96.0	-1.5145909277343137	
1.0437012319582197	2105.0	10.048485557397614	1244.0	-0.41919861403415226	1987.0	0.9025137952176578	-1472.0	9.692213366033108	-15808.0	-1024.0	-0.627835683629675	0.0	4577.0	2139.678955078125	0.7369565217391304	1240.0	0.3090909090909091	-604.0	-0.6347305389221558	-443.0	-2.423946895284697	94.0	-14.0	0.8587951197799264	114.0	-0.7362168048114117	
1.1656050904903112	2100.0	10.105782430559621	1239.0	-0.3571656428617897	1977.0	0.9809932556713672	-1600.0	9.692213366033108	-15808.0	-1024.0	-0.627835683629675	0.0	5217.0	2159.210205078125	0.741304347826087	1242.0	0.30303030303030304	-607.0	-0.6407185628742516	-440.0	-3.258467164332835	24.0	-6.0	0.7543521491898708	169.0	0.33676718114903176	
1.0675906830598803	2100.0	10.058991192032543	1243.0	-0.35861369932136483	1985.0	0.9025137952176578	-1472.0	9.574494175352545	-15616.0	-832.0	-0.510116492949111	0.0	5857.0	2178.741455078125	0.7217391304347827	1233.0	0.3292929292929293	-594.0	-0.6347305389221558	-443.0	-1.2936734878628564	89.0	22.0	0.23735613059577562	40.0	-0.6714739115092042	
1.1652473939345338	2102.0	10.045308068857134	1244.0	-0.38187034898654104	1977.0	1.0987124463519313	-1792.0	9.613733905579398	-15680.0	-1152.0	-0.7063151440833844	0.0	6497.0	2198.272705078125	0.7434782608695653	1243.0	0.32525252525252524	-596.0	-0.6227544910179642	-449.0	1.5190586878206982	69.0	1.0	0.3442652494986167	-143.0	-0.3954187237603363	
0.9705481229411738	2103.0	10.073866490204791	1242.0	-0.3955799502540823	1993.0	0.7847946045370937	-1280.0	9.692213366033108	-15808.0	-1088.0	-0.6670754138565297	0.0	7137.0	2217.803955078125	0.7326086956521739	1238.0	0.3090909090909091	-604.0	-0.6626746506986029	-429.0	4.167337166460188	126.0	-21.0	0.5244569559277289	-316.0	-1.2888216606379859	
0.7142903276542742	2105.0	10.030752960281538	1246.0	-0.4226700490483526	2014.0	0.5885959534028203	-960.0	9.652973635806253	-15744.0	-1088.0	-0.6670754138565297	0.0	7777.0	2237.335205078125	0.7326086956521739	1238.0	0.301010101010101	-608.0	-0.6467065868263474	-437.0	-1.5844584874540597	132.0	-24.0	0.973409634798607	59.0	-1.3225584569505544	
1.0916094406514047	2099.0	10.033879827644212	1245.0	-0.3465764326182485	1983.0	0.9809932556713672	-1600.0	9.613733905579398	-15680.0	-896.0	-0.5493562231759657	0.0	8417.0	2256.866455078125	0.7282608695652174	1236.0	0.3292929292929293	-594.0	-0.6247504990019961	-448.0	-3.603783542007419	110.0	-37.0	1.2954731769029069	191.0	-0.9677644459487472	
0.95714130886364	2099.0	10.00001749052009	1248.0	-0.34825973730736737	1994.0	0.745554874310239	-1216.0	9.613733905579398	-15680.0	-960.0	-0.5885959534028203	0.0	9057.0	2276.397705078125	0.7304347826086957	1237.0	0.3151515151515151	-601.0	-0.6487025948103793	-436.0	-0.8995706327162021	138.0	-97.0	2.023844403836114	15.0	-1.4206620883496441	
1.1524482542742729	2100.0	10.008506678191903	1247.0	-0.3582699687476273	1978.0	1.0594727161250765	-1728.0	9.613733905579398	-15680.0	-960.0	-0.5885959534028203	0.0	9697.0	2295.928955078125	0.7282608695652174	1236.0	0.32727272727272727	-595.0	-0.6467065868263474	-437.0	-0.7633587859979237	70.0	-121.0	2.3328153279667685	7.0	-0.38780367449743525	
1.1524525718333893	2102.0	9.98460305551015	1249.0	-0.3826053473410223	1978.0	0.9809932556713672	-1600.0	9.574494175352545	-15616.0	-1152.0	-0.7063151440833844	0.0	10337.0	2315.460205078125	0.7326086956521739	1238.0	0.33131313131313134	-593.0	-0.6347305389221558	-443.0	-0.500397533893271	28.0	-95.0	1.8991567965705312	-10.0	0.24834998294349545	
1.1036888696409946	2103.0	9.973636117586222	1250.0	-0.3952508465132698	1982.0	0.9025137952176578	-1472.0	9.574494175352545	-15616.0	-1024.0	-0.627835683629675	0.0	10977.0	2334.991455078125	0.7369565217391304	1240.0	0.30707070707070705	-605.0	-0.6506986027944113	-435.0	-3.6338531858463186	11.0	-47.0	1.3872629247132244	194.0	0.5382396725428739	
1.1520905577184954	2102.0	9.948032316489416	1252.0	-0.3829746748723786	1978.0	0.9025137952176578	-1472.0	9.53525444512569	-15552.0	-1024.0	-0.627835683629675	0.0	11617.0	2354.522705078125	0.7282608695652174	1236.0	0.3232323232323232	-597.0	-0.6147704590818364	-453.0	-5.200416975050129	-13.0	-9.0	0.9119798615567503	296.0	0.9189243218417561	
1.1635493596134634	2098.0	9.922451865457218	1254.0	-0.3349231202794135	1977.0	0.9417535254445125	-1536.0	9.574494175352545	-15616.0	-960.0	-0.5885959534028203	0.0	12257.0	2374.053955078125	0.7391304347826088	1241.0	0.3292929292929293	-594.0	-0.6207584830339322	-450.0	-2.474991344709085	9.0	0.0	0.6007417343701311	118.0	0.5570693050820719	
1.102956206292974	2099.0	9.948301884908263	1252.0	-0.3473187443891923	1982.0	0.9025137952176578	-1472.0	9.53525444512569	-15552.0	-960.0	-0.5885959534028203	0.0	12897.0	2393.585205078125	0.7260869565217392	1235.0	0.3232323232323232	-597.0	-0.656686626746507	-432.0	1.3904411552212772	25.0	-19.0	0.6262990438935532	-134.0	0.2750689724782055	
1.030777103367211	2101.0	10.02339754307389	1246.0	-0.3713859643789624	1988.0	0.9417535254445125	-1536.0	9.613733905579398	-15680.0	-1024.0	-0.627835683629675	0.0	13537.0	2413.116455078125	0.7239130434782609	1234.0	0.31313131313131315	-602.0	-0.6806387225548903	-420.0	1.3942488003097182	103.0	-18.0	0.6584939995301615	-135.0	-0.9112808910449223	
0.95714130886364	2099.0	10.00001749052009	1248.0	-0.34825973730736737	1994.0	0.7847946045370937	-1280.0	9.613733905579398	-15680.0	-896.0	-0.5493562231759657	0.0	14177.0	2432.647705078125	0.7347826086956522	1239.0	0.3191919191919192	-599.0	-0.6387225548902197	-441.0	0.26566227098459516	180.0	-33.0	1.0087752846569575	-62.0	-2.0710976873486295	
1.1052554386926425	2102.0	10.144061131350279	1236.0	-0.3814827379140285	1982.0	0.9025137952176578	-1472.0	9.849172286940528	-16064.0	-1088.0	-0.6670754138565297	0.0	14817.0	2452.178955078125	0.7282608695652174	1236.0	0.3090909090909091	-604.0	-0.6447105788423154	-438.0	-3.0691432395911775	172.0	-83.0	1.9856360154472368	156.0	-1.9160766284405903	
1.202672965603592	2105.0	10.094045704153503	1240.0	-0.41715329523013966	1974.0	1.0987124463519313	-1792.0	9.731453096259962	-15872.0	-1088.0	-0.6670754138565297	0.0	15457.0	2471.710205078125	0.7239130434782609	1234.0	0.3333333333333333	-592.0	-0.6367265469061877	-442.0	-3.588413579496956	257.0	-78.0	1.9985257389800188	189.0	-3.2036595904407723	
1.3236179295013082	2103.0	10.017965172570925	1246.0	-0.39260826536481963	1964.0	1.2164316370324952	-1984.0	9.652973635806253	-15744.0	-1088.0	-0.6670754138565297	0.0	16097.0	2491.241455078125	0.7369565217391304	1240.0	0.3212121212121212	-598.0	-0.656686626746507	-432.0	-2.33485786618756	287.0	-80.0	1.959514219400279	107.0	-3.6724689118324214	
1.2747292383781657	2102.0	10.018711610988507	1246.0	-0.381041495120791	1968.0	1.0987124463519313	-1792.0	9.574494175352545	-15616.0	-896.0	-0.5493562231759657	0.0	16737.0	2510.772705078125	0.7347826086956522	1239.0	0.3232323232323232	-597.0	-0.6666666666666667	-427.0	-0.9601838002579571	397.0	-47.0	1.4360044328146775	16.0	-5.359219454773085	
1.4212811167146366	2108.0	9.968426615372886	1250.0	-0.45236798292008845	1956.0	1.1771919068056407	-1920.0	9.574494175352545	-15616.0	-1216.0	-0.745554874310239	0.0	17377.0	2530.303955078125	0.7239130434782609	1234.0	0.31313131313131315	-602.0	-0.6427145708582835	-439.0	0.06835061579866988	512.0	-63.0	1.674260474613463	-52.0	-7.118554228591447	
1.1789128209917956	2114.0	10.04792307049531	1244.0	-0.5262858579525985	1976.0	1.020232985898222	-1664.0	9.692213366033108	-15808.0	-1344.0	-0.8240343347639485	0.0	18017.0	2549.835205078125	0.7304347826086957	1237.0	0.32727272727272727	-595.0	-0.6247504990019961	-448.0	0.5975831853860257	594.0	10.0	0.5928590457159251	-88.0	-8.370994843260707	
1.2649900585998504	2120.0	10.047630152011855	1244.0	-0.5977171713878586	1969.0	1.0987124463519313	-1792.0	9.692213366033108	-15808.0	-1536.0	-0.9417535254445125	0.0	18657.0	2569.366455078125	0.7152173913043478	1230.0	0.3393939393939394	-589.0	-0.656686626746507	-432.0	-1.3726281760299461	623.0	29.0	0.46277077080741474	40.0	-8.792357368429816	
1.1446462927807324	2121.0	10.196613726636532	1232.0	-0.6094789660708874	1979.0	1.0594727161250765	-1728.0	9.849172286940528	-16064.0	-1472.0	-0.9025137952176578	0.0	19297.0	2588.897705078125	0.717391304347826	1231.0	0.33535353535353535	-591.0	-0.62874251497006	-446.0	0.27486917633127	546.0	61.0	-0.17849927132083415	-67.0	-7.63772968035647	
0.949462177521289	2121.0	10.188362973964088	1233.0	-0.6115133147502063	1995.0	0.7847946045370937	-1280.0	9.692213366033108	-15808.0	-1536.0	-0.9417535254445125	0.0	19937.0	2608.428955078125	0.7260869565217392	1235.0	0.3191919191919192	-599.0	-0.6646706586826349	-428.0	1.8185118751813842	484.0	55.0	-0.23370041185075374	-167.0	-6.710200327877289	
0.9003407787731168	2124.0	10.116921674337673	1239.0	-0.6488635200472052	1999.0	0.745554874310239	-1216.0	9.770692826486817	-15936.0	-1408.0	-0.8632740649908032	0.0	20577.0	2627.960205078125	0.7108695652173913	1228.0	0.30303030303030304	-607.0	-0.6706586826347306	-425.0	-1.7751158548535966	389.0	77.0	-0.3712136811051733	68.0	-5.229397130424849	
0.9608132607219748	2123.0	10.078881408546385	1242.0	-0.6365910051145451	1994.0	0.745554874310239	-1216.0	9.692213366033108	-15808.0	-1472.0	-0.9025137952176578	0.0	21217.0	2647.491455078125	0.7239130434782609	1234.0	0.32525252525252524	-596.0	-0.6367265469061877	-442.0	-4.9326371760113465	276.0	72.0	-0.14523292556025313	275.0	-3.4791907385060465	
0.9848320183134993	2122.0	10.053770044158053	1244.0	-0.6245537384114288	1992.0	0.8240343347639485	-1344.0	9.731453096259962	-15872.0	-1472.0	-0.9025137952176578	0.0	21857.0	2667.022705078125	0.7239130434782609	1234.0	0.3333333333333333	-592.0	-0.6367265469061877	-442.0	-5.493476719316812	147.0	51.0	0.13016499791198038	313.0	-1.5116051567612045	
1.0339555758412295	2120.0	10.11325953244359	1239.0	-0.5993712224111275	1988.0	0.9417535254445125	-1536.0	9.692213366033108	-15808.0	-1536.0	-0.9417535254445125	0.0	22497.0	2686.553955078125	0.717391304347826	1231.0	0.33535353535353535	-591.0	-0.6686626746506987	-426.0	-5.7028198948302835	42.0	15.0	0.6205870908640541	328.0	0.08744644989887318	
1.0593060360798146	2121.0	10.198337255116195	1232.0	-0.6103151333531	1986.0	0.9025137952176578	-1472.0	9.849172286940528	-16064.0	-1408.0	-0.8632740649908032	0.0	23137.0	2706.085205078125	0.7260869565217392	1235.0	0.3414141414141414	-588.0	-0.6447105788423154	-438.0	-6.01273399695523	73.0	6.0	0.7959489616944373	348.0	-0.38093729881371774	
1.3282552523326931	2127.0	10.194351061319177	1232.0	-0.6799546597550473	1964.0	1.1771919068056407	-1920.0	9.770692826486817	-15936.0	-1536.0	-0.9417535254445125	0.0	23777.0	2725.616455078125	0.7152173913043478	1230.0	0.3333333333333333	-592.0	-0.660678642714571	-430.0	-5.1060502434692445	74.0	-7.0	0.9283546861964613	289.0	-0.40521326182386275	
1.1945068312155995	2125.0	10.257533824918275	1227.0	-0.6565639307880586	1975.0	0.9809932556713672	-1600.0	9.849172286940528	-16064.0	-1600.0	-0.9809932556713672	0.0	24417.0	2745.147705078125	0.7065217391304348	1226.0	0.34949494949494947	-584.0	-0.6506986027944113	-435.0	-2.851812795069323	12.0	-47.0	1.333441278534157	143.0	0.5152101431598187	
1.4257826567174825	2125.0	10.21628493716703	1230.0	-0.6546636614105522	1956.0	1.2949110974862048	-2112.0	9.809932556713672	-16000.0	-1408.0	-0.8632740649908032	0.0	25057.0	2764.678955078125	0.7152173913043478	1230.0	0.3474747474747475	-585.0	-0.6327345309381238	-444.0	-1.8754574551709835	-42.0	-62.0	1.4575227920725056	80.0	1.3267393654262347	
1.1943883186235265	2126.0	10.233391767237153	1229.0	-0.668854729261875	1975.0	1.0594727161250765	-1728.0	9.888412017167381	-16128.0	-1600.0	-0.9809932556713672	0.0	25697.0	2784.210205078125	0.7108695652173913	1228.0	0.3393939393939394	-589.0	-0.6826347305389222	-419.0	2.0005859792594114	-109.0	-71.0	1.2819222464955193	-172.0	2.3069903379260372	
1.156243036283797	2125.0	10.087609031217564	1241.0	-0.6586458166743838	1978.0	0.9417535254445125	-1536.0	9.692213366033108	-15808.0	-1600.0	-0.9809932556713672	0.0	26337.0	2803.741455078125	0.7195652173913043	1232.0	0.34949494949494947	-584.0	-0.6526946107784432	-434.0	-1.301895701054984	-131.0	-16.0	0.6738032348802238	43.0	2.674615915185455	
1.2157436709209304	2121.0	9.98790222872695	1249.0	-0.6108551072685813	1973.0	1.0594727161250765	-1728.0	9.613733905579398	-15680.0	-1344.0	-0.8240343347639485	0.0	26977.0	2823.272705078125	0.7152173913043478	1230.0	0.3414141414141414	-588.0	-0.62874251497006	-446.0	-7.233602191241878	-179.0	6.0	0.7276134032259134	430.0	3.4639710029010122	
1.213690098823641	2120.0	9.79261985228367	1265.0	-0.6007802739829026	1973.0	1.0987124463519313	-1792.0	9.339055793991415	-15232.0	-1344.0	-0.8240343347639485	0.0	27617.0	2842.803955078125	0.717391304347826	1231.0	0.3414141414141414	-588.0	-0.6826347305389222	-419.0	-6.325766963224791	-190.0	-3.0	0.7926685898799322	371.0	3.6221930308489783	
1.38314446949314	2111.0	9.774836633989791	1266.0	-0.4908298275193874	1959.0	1.2164316370324952	-1984.0	9.37829552421827	-15296.0	-1280.0	-0.7847946045370937	0.0	28257.0	2862.335205078125	0.7130434782608696	1229.0	0.35555555555555557	-581.0	-0.62874251497006	-446.0	-3.7383241242666063	-241.0	-128.0	2.4556189208346026	204.0	4.371984001698941	
1.383163898509164	2120.0	9.6672703319219	1275.0	-0.6003390311896651	1959.0	1.25567136725935	-2048.0	9.299816063764561	-15168.0	-1472.0	-0.9025137952176578	0.0	28897.0	2881.866455078125	0.7239130434782609	1234.0	0.3575757575757576	-580.0	-0.6387225548902197	-441.0	3.5812208317079386	-126.0	-163.0	2.5408782002694936	-274.0	2.5497391224814	
1.0786164513981618	2119.0	9.709758094799204	1272.0	-0.5909114352609177	1984.0	0.9025137952176578	-1472.0	9.417535254445125	-15360.0	-1344.0	-0.8240343347639485	0.0	29537.0	2901.397705078125	0.717391304347826	1231.0	0.3434343434343434	-587.0	-0.6666666666666667	-427.0	7.509288431658716	75.0	-166.0	2.43474357537859	-532.0	-0.5465757740504276	
1.1157790925283755	2112.0	9.85363335082385	1260.0	-0.5047637068917787	1981.0	0.9417535254445125	-1536.0	9.417535254445125	-15360.0	-1280.0	-0.7847946045370937	0.0	30177.0	2920.928955078125	0.7239130434782609	1234.0	0.34545454545454546	-586.0	-0.6227544910179642	-449.0	-0.02960907373448708	225.0	-51.0	1.3265676635711856	-43.0	-2.7525556202892716	
1.4580064067290472	2122.0	9.812552847878145	1263.0	-0.6222341664900723	1953.0	1.2949110974862048	-2112.0	9.417535254445125	-15360.0	-1536.0	-0.9417535254445125	0.0	30817.0	2940.460205078125	0.7239130434782609	1234.0	0.3414141414141414	-588.0	-0.6307385229540919	-445.0	-4.299369036445162	442.0	-17.0	1.2460130386650423	233.0	-6.0102382487990464	
1.5813712743980632	2123.0	9.944421809077825	1252.0	-0.6317300209724698	1943.0	1.491109748620478	-2432.0	9.613733905579398	-15680.0	-1408.0	-0.8632740649908032	0.0	31457.0	2959.991455078125	0.7152173913043478	1230.0	0.34545454545454546	-586.0	-0.6666666666666667	-427.0	-2.8631707537517483	535.0	-71.0	2.012226787356442	139.0	-7.439048900827502	
1.6312447655102797	2133.0	9.933631039314308	1253.0	-0.7518211214698262	1939.0	1.491109748620478	-2432.0	9.652973635806253	-15744.0	-1728.0	-1.0594727161250765	0.0	32097.0	2979.522705078125	0.7152173913043478	1230.0	0.35555555555555557	-581.0	-0.6506986027944113	-435.0	6.226503751180699	595.0	-95.0	1.7759074329088507	-454.0	-8.442493174393938	
1.0360458471910088	2138.0	10.105361116091967	1240.0	-0.816296773740664	1988.0	0.7847946045370937	-1280.0	9.652973635806253	-15744.0	-1728.0	-1.0594727161250765	0.0	32737.0	2999.053955078125	0.7021739130434783	1224.0	0.3232323232323232	-597.0	-0.6766467065868265	-422.0	18.050078525481293	522.0	-118.0	1.2534035684365932	-1224.0	-7.450462762441125	
0.9136528268337176	2140.0	10.03515869159161	1246.0	-0.8423191137314091	1998.0	0.8240343347639485	-1344.0	9.652973635806253	-15744.0	-1920.0	-1.1771919068056407	0.0	33377.0	3018.585205078125	0.7217391304347827	1233.0	0.3333333333333333	-592.0	-0.6686626746506987	-426.0	16.978309936940434	413.0	-24.0	-0.14760847719704462	-1154.0	-5.781950399749633	
1.3042602413163087	2139.0	10.087992500957863	1241.0	-0.8258365087218363	1966.0	1.0987124463519313	-1792.0	9.692213366033108	-15808.0	-1856.0	-1.137952176578786	0.0	34017.0	3038.116455078125	0.717391304347826	1231.0	0.3474747474747475	-585.0	-0.6407185628742516	-440.0	-6.490012397294517	26.0	64.0	-0.0689908349267887	379.0	0.33866438252807823	
1.44946746432837	2137.0	9.999229286326566	1248.0	-0.8011756830958601	1954.0	1.3733905579399142	-2240.0	9.652973635806253	-15744.0	-1664.0	-1.020232985898222	0.0	34657.0	3057.647705078125	0.717391304347826	1231.0	0.33131313131313134	-593.0	-0.656686626746507	-432.0	-0.6412411557784925	-116.0	64.0	-0.5624531460359239	-1.0	2.439872487603412	
1.2390686231964825	2134.0	9.722324027524877	1271.0	-0.7699041457819428	1971.0	1.0987124463519313	-1792.0	9.299816063764561	-15168.0	-1856.0	-1.137952176578786	0.0	35297.0	3077.178955078125	0.717391304347826	1231.0	0.33131313131313134	-593.0	-0.6826347305389222	-419.0	9.079714398733733	-139.0	2.0	-0.3234888156834291	-634.0	2.692472817989849	
1.2040651140782823	2135.0	9.869584073669891	1259.0	-0.7808297731827589	1974.0	0.9809932556713672	-1600.0	9.496014714898834	-15488.0	-1728.0	-1.0594727161250765	0.0	35937.0	3096.710205078125	0.7195652173913043	1232.0	0.33131313131313134	-593.0	-0.6487025948103793	-436.0	14.532895537179611	-351.0	49.0	-1.5366512831115995	-988.0	5.862275607365847	
1.0200833465136367	2124.0	9.895035056670897	1257.0	-0.6498849605464676	1989.0	0.8240343347639485	-1344.0	9.417535254445125	-15360.0	-1472.0	-0.9025137952176578	0.0	36577.0	3116.241455078125	0.7217391304347827	1233.0	0.3292929292929293	-594.0	-0.6327345309381238	-444.0	11.119954010856054	-347.0	-3.0	-0.5170668979008854	-765.0	5.835568520727942	
0.789540184359774	2128.0	9.961618177100103	1252.0	-0.6997173320480515	2008.0	0.7063151440833844	-1152.0	9.613733905579398	-15680.0	-1472.0	-0.9025137952176578	0.0	37217.0	3135.772705078125	0.7152173913043478	1230.0	0.3393939393939394	-589.0	-0.656686626746507	-432.0	0.9961881515515688	-325.0	87.0	-1.1483941010063767	-106.0	5.602205418864712	
1.1412588592568242	2117.0	9.903094074473191	1256.0	-0.5642552658434226	1979.0	0.9025137952176578	-1472.0	9.53525444512569	-15552.0	-1408.0	-0.8632740649908032	0.0	37857.0	3155.303955078125	0.7282608695652174	1236.0	0.3333333333333333	-592.0	-0.6307385229540919	-445.0	-1.9172960710725082	-177.0	144.0	-1.7101502899412309	82.0	3.380389690748748	
0.8863349253965432	2122.0	9.958217820269997	1252.0	-0.6264942315794789	2000.0	0.7063151440833844	-1152.0	9.574494175352545	-15616.0	-1472.0	-0.9025137952176578	0.0	38497.0	3174.835205078125	0.7304347826086957	1237.0	0.33131313131313134	-593.0	-0.6546906187624751	-433.0	-2.4933251755698373	-106.0	132.0	-1.4469547029408958	119.0	2.306302073048474	
1.1063889741876047	2124.0	9.99083349891319	1249.0	-0.648063919847305	1982.0	1.020232985898222	-1664.0	9.574494175352545	-15616.0	-1472.0	-0.9025137952176578	0.0	39137.0	3194.366455078125	0.717391304347826	1231.0	0.33535353535353535	-591.0	-0.6546906187624751	-433.0	-1.1197905836454056	-105.0	74.0	-0.6723791281285205	30.0	2.2773576016539447	
0.9481326336537869	2120.0	10.066222075562274	1243.0	-0.6006998264018151	1995.0	0.745554874310239	-1216.0	9.652973635806253	-15744.0	-1344.0	-0.8240343347639485	0.0	39777.0	3213.897705078125	0.7304347826086957	1237.0	0.3434343434343434	-587.0	-0.6247504990019961	-448.0	2.3254197686384988	-46.0	54.0	-0.5764221575632886	-195.0	1.3455670950892804	
0.8991211123794549	2118.0	10.06673007898049	1243.0	-0.5770884760382076	1999.0	0.6670754138565297	-1088.0	9.652973635806253	-15744.0	-1408.0	-0.8632740649908032	0.0	40417.0	3233.428955078125	0.7239130434782609	1234.0	0.32525252525252524	-596.0	-0.6347305389221558	-443.0	3.6390602267605474	44.0	2.0	0.16651151316499208	-281.0	-0.036390602267605474	
0.6929608807115688	2122.0	10.13282076270122	1238.0	-0.6266819426020165	2016.0	0.5493562231759657	-896.0	9.809932556713672	-16000.0	-1408.0	-0.8632740649908032	0.0	41057.0	3252.960205078125	0.7260869565217392	1235.0	0.34545454545454546	-586.0	-0.6367265469061877	-442.0	-0.46454988407182485	34.0	-33.0	0.9707767578732189	-13.0	0.15673675359356998	
0.7665945164355815	2123.0	10.168152626595898	1235.0	-0.6376404803769139	2010.0	0.5885959534028203	-960.0	9.731453096259962	-15872.0	-1536.0	-0.9417535254445125	0.0	41697.0	3272.491455078125	0.7304347826086957	1237.0	0.3414141414141414	-588.0	-0.6267465069860281	-447.0	-13.306043625306344	87.0	-55.0	2.226623150729517	824.0	-0.520931959184199	
1.5229480469873784	2123.0	10.20164807399415	1231.0	-0.6297419905974134	1948.0	1.3341508277130594	-2176.0	9.692213366033108	-15808.0	-1472.0	-0.9025137952176578	0.0	42337.0	3292.022705078125	0.7326086956521739	1238.0	0.33131313131313134	-593.0	-0.6506986027944113	-435.0	-14.030344216079799	121.0	-65.0	2.4476439199749964	871.0	-1.0307992194361602	
1.0725900200061587	2124.0	10.271947819801527	1226.0	-0.6455907661802361	1985.0	0.9025137952176578	-1472.0	9.809932556713672	-16000.0	-1600.0	-0.9809932556713672	0.0	42977.0	3311.553955078125	0.7217391304347827	1233.0	0.3595959595959596	-579.0	-0.6467065868263474	-437.0	-6.466226971949667	218.0	-77.0	2.1601028116051566	377.0	-2.581725562980123	
1.3657928602551495	2126.0	10.303086188319295	1223.0	-0.6664437396347372	1961.0	1.1771919068056407	-1920.0	9.888412017167381	-16128.0	-1536.0	-0.9417535254445125	0.0	43617.0	3331.085205078125	0.7282608695652174	1236.0	0.35555555555555557	-581.0	-0.6207584830339322	-450.0	-6.991290384883315	115.0	-55.0	1.8041505457283933	412.0	-1.0099350048964142	
1.1453746385696364	2123.0	10.245851581996245	1228.0	-0.6330756896015699	1979.0	0.9809932556713672	-1600.0	9.849172286940528	-16064.0	-1472.0	-0.9025137952176578	0.0	44257.0	3350.616455078125	0.7239130434782609	1234.0	0.34545454545454546	-586.0	-0.6686626746506987	-426.0	-0.13714386191597877	56.0	-90.0	1.8159460427926013	-34.0	-0.1811380670842623	
0.9872454457461244	2122.0	10.297574970962943	1224.0	-0.6220915548690537	1992.0	0.7847946045370937	-1280.0	9.888412017167381	-16128.0	-1472.0	-0.9025137952176578	0.0	44897.0	3370.147705078125	0.7282608695652174	1236.0	0.3333333333333333	-592.0	-0.6706586826347306	-425.0	-1.5316061588331524	19.0	-62.0	1.4707010080070884	57.0	0.39554419847046085	
1.0960140558577598	2127.0	10.138077978348466	1237.0	-0.6828398025495037	1983.0	0.8632740649908032	-1408.0	9.731453096259962	-15872.0	-1536.0	-0.9417535254445125	0.0	45537.0	3389.678955078125	0.7347826086956522	1239.0	0.35555555555555557	-581.0	-0.6227544910179642	-449.0	-12.346983427841367	-8.0	-17.0	1.532362741751085	762.0	0.9143443589932426	
1.5587962557069974	2122.0	10.139719752230846	1236.0	-0.6179545989567659	1945.0	1.4126302881667687	-2304.0	9.731453096259962	-15872.0	-1408.0	-0.8632740649908032	0.0	46177.0	3409.210205078125	0.7239130434782609	1234.0	0.3434343434343434	-587.0	-0.6726546906187626	-424.0	-14.335318051160368	-126.0	-41.0	1.9587838492457639	893.0	2.728904511310083	
1.3021721287460877	2122.0	10.08393910596861	1241.0	-0.6210786466889974	1966.0	1.1771919068056407	-1920.0	9.652973635806253	-15744.0	-1472.0	-0.9025137952176578	0.0	46817.0	3428.741455078125	0.7260869565217392	1235.0	0.3656565656565657	-576.0	-0.6167664670658684	-452.0	-6.13549225586669	-67.0	-62.0	1.7388120887256417	358.0	1.749567850315321	
1.5823280102528805	2119.0	10.08975102516329	1240.0	-0.5820743903687297	1943.0	1.4518700183936235	-2368.0	9.731453096259962	-15872.0	-1344.0	-0.8240343347639485	0.0	47457.0	3448.272705078125	0.7152173913043478	1230.0	0.3616161616161616	-578.0	-0.6327345309381238	-444.0	-2.4392003612356468	-47.0	-82.0	1.7935675482020679	117.0	1.408422421863307	
1.4003115251072666	2124.0	10.119016968154181	1238.0	-0.6438428596456985	1958.0	1.25567136725935	-2048.0	9.652973635806253	-15744.0	-1536.0	-0.9417535254445125	0.0	48097.0	3467.803955078125	0.7217391304347827	1233.0	0.3616161616161616	-578.0	-0.6407185628742516	-440.0	3.980879852446314	98.0	-80.0	1.4049578855902054	-303.0	-0.8611015741898624	
0.9861594034014431	2122.0	10.187862753900744	1233.0	-0.6231995374631225	1992.0	0.7847946045370937	-1280.0	9.809932556713672	-16000.0	-1472.0	-0.9025137952176578	0.0	48737.0	3487.335205078125	0.7260869565217392	1235.0	0.36767676767676766	-575.0	-0.6307385229540919	-445.0	2.2214472241778496	154.0	-61.0	1.2766252663679367	-189.0	-1.6952182745231474	
1.3039929932183476	2127.0	10.207033744367896	1231.0	-0.6800704555157036	1966.0	1.0987124463519313	-1792.0	9.809932556713672	-16000.0	-1600.0	-0.9809932556713672	0.0	49377.0	3506.866455078125	0.7282608695652174	1236.0	0.36767676767676766	-575.0	-0.6347305389221558	-443.0	-2.347286513296317	126.0	-45.0	1.3376948539938043	109.0	-1.223675423840421	
1.3770232720842042	2128.0	10.18141437656135	1233.0	-0.6916445391761948	1960.0	1.1771919068056407	-1920.0	9.770692826486817	-15936.0	-1664.0	-1.020232985898222	0.0	50017.0	3526.397705078125	0.7195652173913043	1232.0	0.3616161616161616	-578.0	-0.6666666666666667	-427.0	-3.229896511368793	99.0	-65.0	1.6825487293088592	167.0	-0.8042029360269966	
1.5223468489087806	2124.0	10.12874503095205	1237.0	-0.6425252257797047	1948.0	1.3341508277130594	-2176.0	9.770692826486817	-15936.0	-1536.0	-0.9417535254445125	0.0	50657.0	3545.928955078125	0.7152173913043478	1230.0	0.3717171717171717	-573.0	-0.6387225548902197	-441.0	3.2390538285480783	176.0	-323.0	5.147219859131014	-253.0	-2.039995101023124	
1.1943969537417594	2130.0	10.185584521873647	1233.0	-0.717525486448665	1975.0	1.0987124463519313	-1792.0	9.809932556713672	-16000.0	-1600.0	-0.9809932556713672	0.0	51297.0	3565.460205078125	0.7282608695652174	1236.0	0.3575757575757576	-580.0	-0.6407185628742516	-440.0	14.686380712557877	209.0	-190.0	2.3765589551305597	-1001.0	-2.6563695105476324	
0.913991094373471	2129.0	10.203199355361987	1232.0	-0.7081052039363801	1998.0	0.745554874310239	-1216.0	9.770692826486817	-15936.0	-1664.0	-1.020232985898222	0.0	51937.0	3584.991455078125	0.7217391304347827	1233.0	0.34545454545454546	-586.0	-0.6886227544910181	-416.0	12.170670321718228	296.0	-67.0	0.7605021939675015	-839.0	-3.954406322989046	
1.0374766334141183	2130.0	10.347258562901914	1220.0	-0.7174779492416588	1988.0	0.8632740649908032	-1408.0	9.927651747394236	-16192.0	-1536.0	-0.9417535254445125	0.0	52577.0	3604.522705078125	0.7304347826086957	1237.0	0.3616161616161616	-578.0	-0.6247504990019961	-448.0	1.2407777691050033	254.0	-62.0	1.4207088660902734	-126.0	-3.2063241275009364	
1.4145716739044516	2132.0	10.230390446857085	1229.0	-0.7389720655393723	1957.0	1.25567136725935	-2048.0	9.809932556713672	-16000.0	-1792.0	-1.0987124463519313	0.0	53217.0	3624.053955078125	0.7217391304347827	1233.0	0.3515151515151515	-583.0	-0.6447105788423154	-438.0	-2.9435737706971894	241.0	-67.0	1.7789935067539873	147.0	-2.966761980924207	
1.40275085789459	2136.0	10.21940015886855	1230.0	-0.7873929476636936	1958.0	1.2164316370324952	-1984.0	9.809932556713672	-16000.0	-1792.0	-1.0987124463519313	0.0	53857.0	3643.585205078125	0.717391304347826	1231.0	0.3616161616161616	-578.0	-0.6487025948103793	-436.0	2.7399427969503978	201.0	-87.0	1.6589362278477777	-223.0	-2.415232127589276	
1.0235892926296177	2127.0	10.212696766515359	1231.0	-0.6828178623001162	1989.0	0.8240343347639485	-1344.0	9.809932556713672	-16000.0	-1536.0	-0.9417535254445125	0.0	54497.0	3663.116455078125	0.7086956521739131	1227.0	0.35555555555555557	-581.0	-0.6746506986027945	-423.0	9.286794497449051	115.0	-92.0	1.22591847659872	-649.0	-1.1727158537197377	
0.9505590137637613	2126.0	10.238316134321904	1229.0	-0.671243778639625	1995.0	0.7847946045370937	-1280.0	9.809932556713672	-16000.0	-1536.0	-0.9417535254445125	0.0	55137.0	3682.647705078125	0.7260869565217392	1235.0	0.35555555555555557	-581.0	-0.6147704590818364	-453.0	5.215440611745549	112.0	-42.0	0.7578344245803528	-384.0	-1.086374938436847	
1.388975553363488	2129.0	10.144835854185747	1236.0	-0.7039389943582424	1959.0	1.25567136725935	-2048.0	9.809932556713672	-16000.0	-1600.0	-0.9809932556713672	0.0	55777.0	3702.178955078125	0.7195652173913043	1232.0	0.3575757575757576	-580.0	-0.656686626746507	-432.0	-4.732923984742339	60.0	-27.0	1.1937180632854276	265.0	-0.19601676775713936	
1.3035275779682884	2135.0	10.062658268279904	1243.0	-0.7779044065977587	1966.0	1.137952176578786	-1856.0	9.692213366033108	-15808.0	-1792.0	-1.0987124463519313	0.0	56417.0	3721.710205078125	0.717391304347826	1231.0	0.36363636363636365	-577.0	-0.6247504990019961	-448.0	-0.4318892937506665	44.0	-56.0	1.3194148171838769	-15.0	0.004318892937506665	
1.4372544112897998	2127.0	10.118993618089572	1238.0	-0.6796182425977723	1955.0	1.25567136725935	-2048.0	9.652973635806253	-15744.0	-1536.0	-0.9417535254445125	0.0	57057.0	3741.241455078125	0.7152173913043478	1230.0	0.3474747474747475	-585.0	-0.6427145708582835	-439.0	3.0002698311407467	-126.0	-73.0	1.2319870525776362	-237.0	2.555548632487072	
1.02189989342678	2127.0	10.042033317751935	1245.0	-0.6845413907797788	1989.0	0.9025137952176578	-1472.0	9.652973635806253	-15744.0	-1600.0	-0.9809932556713672	0.0	57697.0	3760.772705078125	0.7260869565217392	1235.0	0.34545454545454546	-586.0	-0.6626746506986029	-429.0	11.272686104087182	-180.0	-59.0	0.4134801164801849	-776.0	3.2941172454230068	
0.8137916495763282	2123.0	10.008694550755768	1248.0	-0.6387630898039077	2006.0	0.6670754138565297	-1088.0	9.53525444512569	-15552.0	-1472.0	-0.9025137952176578	0.0	58337.0	3780.303955078125	0.7347826086956522	1239.0	0.34545454545454546	-586.0	-0.6367265469061877	-442.0	7.416333975670455	-187.0	-7.0	-0.10198652541763908	-525.0	3.4391446450341703	
1.3743598667900838	2124.0	9.961036202439477	1251.0	-0.6456821838860174	1960.0	1.1771919068056407	-1920.0	9.53525444512569	-15552.0	-1536.0	-0.9417535254445125	0.0	58977.0	3799.835205078125	0.7260869565217392	1235.0	0.3333333333333333	-592.0	-0.6387225548902197	-441.0	-5.77195144434945	-157.0	56.0	-0.11035864574584531	334.0	3.114753734975814	
1.1674734481128517	2127.0	9.965937219459617	1251.0	-0.6838466162158413	1977.0	0.9809932556713672	-1600.0	9.574494175352545	-15616.0	-1536.0	-0.9417535254445125	0.0	59617.0	3819.366455078125	0.7260869565217392	1235.0	0.35555555555555557	-581.0	-0.6407185628742516	-440.0	-5.873250637806955	-116.0	78.0	-0.40820033856050586	340.0	2.4921925824236966	
1.2168361896042865	2124.0	10.06175901176652	1243.0	-0.6462501925646049	1973.0	1.0594727161250765	-1728.0	9.613733905579398	-15680.0	-1472.0	-0.9025137952176578	0.0	60257.0	3838.897705078125	0.7326086956521739	1238.0	0.35555555555555557	-581.0	-0.6167664670658684	-452.0	-0.043985796445710865	-113.0	67.0	-0.6471745352328291	-40.0	2.3882725575842287	
1.1674691305537352	2125.0	9.989840842141371	1249.0	-0.6595112376224463	1977.0	1.0594727161250765	-1728.0	9.496014714898834	-15488.0	-1536.0	-0.9417535254445125	0.0	60897.0	3858.428955078125	0.7282608695652174	1236.0	0.34545454545454546	-586.0	-0.660678642714571	-430.0	-2.683027330886682	-121.0	82.0	-0.6932517208097176	132.0	2.53633597673092	
1.277442295602125	2129.0	9.964198124270215	1251.0	-0.7068607042350112	1968.0	1.0987124463519313	-1792.0	9.574494175352545	-15616.0	-1664.0	-1.020232985898222	0.0	61537.0	3877.960205078125	0.7282608695652174	1236.0	0.36363636363636365	-577.0	-0.6506986027944113	-435.0	-1.8263875486147674	-117.0	93.0	-0.9153579308091827	76.0	2.4669330770070608	
1.1801540751810395	2130.0	9.978596552443728	1250.0	-0.7197377949285713	1976.0	1.0987124463519313	-1792.0	9.613733905579398	-15680.0	-1664.0	-1.020232985898222	0.0	62177.0	3897.491455078125	0.7282608695652174	1236.0	0.3616161616161616	-578.0	-0.6207584830339322	-450.0	-0.5970227626579804	-215.0	70.0	-0.7157139055679963	-3.0	3.9451337257254395	
1.2024640045537027	2120.0	9.890388041359863	1257.0	-0.5999148530348399	1974.0	1.020232985898222	-1664.0	9.496014714898834	-15488.0	-1472.0	-0.9025137952176578	0.0	62817.0	3917.022705078125	0.7304347826086957	1237.0	0.34545454545454546	-586.0	-0.6626746506986029	-429.0	-0.2791562776477674	-219.0	102.0	-1.2200309929407827	-24.0	4.002791562776478	
0.9207178074201215	2113.0	9.845621033150774	1261.0	-0.5188426356906765	1997.0	0.7847946045370937	-1280.0	9.45677498467198	-15424.0	-1344.0	-0.8240343347639485	0.0	63457.0	3936.553955078125	0.7239130434782609	1234.0	0.36363636363636365	-577.0	-0.656686626746507	-432.0	-1.4683250027086518	-176.0	115.0	-1.306007702584692	53.0	3.360690854589824	
1.0795710284734208	2114.0	9.867039122225544	1259.0	-0.5290881153604801	1984.0	0.9025137952176578	-1472.0	9.496014714898834	-15488.0	-1216.0	-0.745554874310239	0.0	64097.0	3956.085205078125	0.7347826086956522	1239.0	0.36363636363636365	-577.0	-0.6307385229540919	-445.0	-6.611803283366895	-111.0	89.0	-0.5186727905638623	388.0	2.4235324815028707	
1.1161562181001767	2119.0	9.806541410458447	1264.0	-0.5895682044373051	1981.0	0.9417535254445125	-1536.0	9.496014714898834	-15488.0	-1408.0	-0.8632740649908032	0.0	64737.0	3975.616455078125	0.7347826086956522	1239.0	0.3515151515151515	-583.0	-0.6307385229540919	-445.0	-5.297950390378822	-5.0	20.0	0.48885249872006653	302.0	0.7982266521927616	
1.287808578813737	2122.0	9.864760890198449	1259.0	-0.6234140643460225	1967.0	1.0987124463519313	-1792.0	9.496014714898834	-15488.0	-1472.0	-0.9025137952176578	0.0	65377.0	3995.147705078125	0.7282608695652174	1236.0	0.36767676767676766	-575.0	-0.6127744510978045	-454.0	-1.2381678412602999	27.0	19.0	0.24075181765790826	37.0	0.2709368114924509	
1.4345953235547955	2125.0	9.874711821285944	1258.0	-0.6579912659009899	1955.0	1.2949110974862048	-2112.0	9.496014714898834	-15488.0	-1536.0	-0.9417535254445125	0.0	481.0	4014.678955078125	0.7260869565217392	1235.0	0.3515151515151515	-583.0	-0.6407185628742516	-440.0	6.908877402436662	55.0	-29.0	0.4103918691389639	-494.0	-0.2363891542525035	
0.813188292718172	2123.0	9.947743319054545	1253.0	-0.6393786356895015	2006.0	0.6670754138565297	-1088.0	9.496014714898834	-15488.0	-1408.0	-0.8632740649908032	0.0	1121.0	4034.210205078125	0.7260869565217392	1235.0	0.3575757575757576	-580.0	-0.6347305389221558	-443.0	7.159891210864012	99.0	-7.0	0.08985428645015175	-511.0	-0.9081008132493246	
0.9233855302733585	2119.0	10.042095584590893	1245.0	-0.5891403695742489	1997.0	0.7847946045370937	-1280.0	9.613733905579398	-15680.0	-1408.0	-0.8632740649908032	0.0	1761.0	4053.741455078125	0.7260869565217392	1235.0	0.3595959595959596	-579.0	-0.6307385229540919	-445.0	-6.090259175370648	150.0	39.0	0.35343619688787287	352.0	-1.5512647086265219	
1.3511879675795362	2126.0	10.059527479868644	1243.0	-0.6690253756459998	1962.0	1.1771919068056407	-1920.0	9.692213366033108	-15808.0	-1600.0	-0.9809932556713672	0.0	2401.0	4073.272705078125	0.7217391304347827	1233.0	0.3393939393939394	-589.0	-0.656686626746507	-432.0	-7.861831853022267	157.0	-18.0	1.3355689240286837	468.0	-1.6400128601770019	
1.2671750959665622	2126.0	10.195343718090996	1232.0	-0.6685073419799061	1969.0	1.0987124463519313	-1792.0	9.809932556713672	-16000.0	-1472.0	-0.9025137952176578	0.0	3041.0	4092.803955078125	0.7326086956521739	1238.0	0.3515151515151515	-583.0	-0.6526946107784432	-434.0	-2.198951336204805	141.0	-26.0	1.0516386297390132	99.0	-1.4532956577406138	
1.5481821534134483	2126.0	10.250631927644754	1227.0	-0.6651443893098997	1946.0	1.3733905579399142	-2240.0	9.770692826486817	-15936.0	-1536.0	-0.9417535254445125	0.0	3681.0	4112.335205078125	0.7304347826086957	1237.0	0.3717171717171717	-573.0	-0.6387225548902197	-441.0	5.645377582928023	87.0	-21.0	0.39785910720012274	-412.0	-0.7104461712665426	
0.9145814985542782	2123.0	10.33586145510847	1221.0	-0.6344835222706012	1998.0	0.7847946045370937	-1280.0	9.888412017167381	-16128.0	-1472.0	-0.9025137952176578	0.0	4321.0	4131.866455078125	0.7326086956521739	1238.0	0.3474747474747475	-585.0	-0.6307385229540919	-445.0	10.761279651032558	110.0	1.0	-0.2740503637614612	-746.0	-1.1114150778791472	
0.9624961835861378	2120.0	10.285400291332438	1225.0	-0.5983644087447899	1994.0	0.7847946045370937	-1280.0	9.849172286940528	-16064.0	-1344.0	-0.8240343347639485	0.0	4961.0	4151.397705078125	0.7239130434782609	1234.0	0.3474747474747475	-585.0	-0.6546906187624751	-433.0	-1.8871982979209259	44.0	35.0	0.05638648279466678	79.0	0.018871982979209258	
1.4011497483700106	2121.0	10.24020412655852	1228.0	-0.6064780275157747	1958.0	1.25567136725935	-2048.0	9.809932556713672	-16000.0	-1280.0	-0.7847946045370937	0.0	5601.0	4170.928955078125	0.7304347826086957	1237.0	0.36363636363636365	-577.0	-0.6127744510978045	-454.0	-6.098422802593227	7.0	28.0	0.4319257288533184	354.0	0.6237218706114837	
1.4383382948549228	2126.0	10.240657646492647	1228.0	-0.666342570707006	1955.0	1.3341508277130594	-2176.0	9.849172286940528	-16064.0	-1472.0	-0.9025137952176578	0.0	6241.0	4190.460205078125	0.7217391304347827	1233.0	0.3616161616161616	-578.0	-0.6307385229540919	-445.0	1.8932150772479206	12.0	16.0	0.05865960248894281	-167.0	0.4677598644366463	
1.3288650855295239	2130.0	10.219446858997769	1230.0	-0.7158421817595461	1964.0	1.137952176578786	-1856.0	9.809932556713672	-16000.0	-1472.0	-0.9025137952176578	0.0	6881.0	4209.991455078125	0.7304347826086957	1237.0	0.3656565656565657	-576.0	-0.6327345309381238	-444.0	9.100732133020282	-80.0	9.0	-0.3940056401049815	-636.0	1.7949242376051586	
0.8279203331040911	2126.0	10.167636839822812	1235.0	-0.6731769583912127	2005.0	0.627835683629675	-1024.0	9.809932556713672	-16000.0	-1536.0	-0.9417535254445125	0.0	7521.0	4229.522705078125	0.7282608695652174	1236.0	0.3575757575757576	-580.0	-0.6087824351297406	-456.0	4.805439157415627	-128.0	62.0	-0.9188574685661197	-356.0	2.567915190174894	
1.314120092466255	2121.0	10.071264206274762	1242.0	-0.6090377232776499	1965.0	1.1771919068056407	-1920.0	9.692213366033108	-15808.0	-1280.0	-0.7847946045370937	0.0	8161.0	4249.053955078125	0.7347826086956522	1239.0	0.35555555555555557	-581.0	-0.6107784431137725	-455.0	-7.769877681465383	-214.0	139.0	-1.2503575968206793	464.0	4.001653149438228	
1.2035586820166169	2124.0	9.952293013058556	1252.0	-0.6474776276275612	1974.0	1.020232985898222	-1664.0	9.53525444512569	-15552.0	-1600.0	-0.9809932556713672	0.0	8801.0	4268.585205078125	0.7304347826086957	1237.0	0.35555555555555557	-581.0	-0.6506986027944113	-435.0	-4.5519306084694735	-169.0	114.0	-1.0721376935425329	254.0	3.2850630323204366	
1.1545450019627266	2121.0	9.964752827817648	1251.0	-0.6116985879672563	1978.0	0.9809932556713672	-1600.0	9.613733905579398	-15680.0	-1344.0	-0.8240343347639485	0.0	9441.0	4288.116455078125	0.7239130434782609	1234.0	0.34545454545454546	-586.0	-0.6227544910179642	-449.0	-3.425856610496886	-199.0	100.0	-0.958868341898004	181.0	3.730076056599266	
1.019839844990816	2123.0	9.882606375331283	1258.0	-0.6379634896040076	1989.0	0.8240343347639485	-1344.0	9.45677498467198	-15424.0	-1408.0	-0.8632740649908032	0.0	10081.0	4307.647705078125	0.741304347826087	1242.0	0.3595959595959596	-579.0	-0.6027944111776448	-459.0	-3.9305232073807406	-172.0	64.0	-0.3675875563090461	214.0	3.3244763347354045	
1.1422436592458982	2126.0	9.893049743127257	1257.0	-0.6727795960967501	1979.0	0.9025137952176578	-1472.0	9.45677498467198	-15424.0	-1600.0	-0.9809932556713672	0.0	10721.0	4327.178955078125	0.7347826086956522	1239.0	0.3616161616161616	-578.0	-0.6327345309381238	-444.0	-6.887970673501945	-199.0	73.0	-0.31310760191345166	407.0	3.7646971972293164	
1.250997157900626	2124.0	9.817215429898917	1263.0	-0.6483540187003175	1970.0	1.0987124463519313	-1792.0	9.37829552421827	-15296.0	-1472.0	-0.9025137952176578	0.0	11361.0	4346.710205078125	0.7369565217391304	1240.0	0.37777777777777777	-570.0	-0.6147704590818364	-453.0	-7.154262753098973	-228.0	36.0	0.24250637995583024	425.0	4.208424756808556	
1.2386914976246812	2127.0	9.76941596789028	1267.0	-0.6850996482364164	1971.0	1.0987124463519313	-1792.0	9.339055793991415	-15232.0	-1536.0	-0.9417535254445125	0.0	12001.0	4366.241455078125	0.7391304347826088	1241.0	0.3575757575757576	-580.0	-0.5988023952095809	-461.0	-6.440588625306754	-245.0	-2.0	0.7522075977670835	379.0	4.459843148610482	
1.3849804454223074	2123.0	9.814268593002938	1263.0	-0.6349954614229762	1959.0	1.2949110974862048	-2112.0	9.496014714898834	-15488.0	-1408.0	-0.8632740649908032	0.0	12641.0	4385.772705078125	0.7326086956521739	1238.0	0.37777777777777777	-570.0	-0.6227544910179642	-449.0	-8.860090109469054	-284.0	11.0	0.7019761165976974	537.0	5.077194056988227	
1.4342268331012271	2122.0	9.873996516287841	1258.0	-0.6218575255422536	1955.0	1.2949110974862048	-2112.0	9.45677498467198	-15424.0	-1472.0	-0.9025137952176578	0.0	13281.0	4405.303955078125	0.7326086956521739	1238.0	0.3838383838383838	-567.0	-0.6007984031936129	-460.0	-8.509492576429484	-260.0	2.0	0.8271078224875505	514.0	4.708669070250988	
1.6051465304667671	2121.0	9.906881763349881	1255.0	-0.6077712833268936	1941.0	1.4126302881667687	-2304.0	9.45677498467198	-15424.0	-1344.0	-0.8240343347639485	0.0	13921.0	4424.835205078125	0.7282608695652174	1236.0	0.3717171717171717	-573.0	-0.6347305389221558	-443.0	-6.033653283090561	-238.0	39.0	0.11345079940875297	352.0	4.349309916861324	
1.8142093513924782	2120.0	10.09750155777239	1239.0	-0.591726264402327	1924.0	1.7265481299816063	-2816.0	9.652973635806253	-15744.0	-1408.0	-0.8632740649908032	0.0	14561.0	4444.366455078125	0.7347826086956522	1239.0	0.3878787878787879	-565.0	-0.6187624750499002	-451.0	0.801252412980751	-261.0	-5.0	0.28341913244246836	-93.0	4.63077074583217	
1.0568839735289566	2117.0	10.00233957367481	1248.0	-0.5641065597086851	1986.0	0.9025137952176578	-1472.0	9.574494175352545	-15616.0	-1280.0	-0.7847946045370937	0.0	15201.0	4463.897705078125	0.7456521739130435	1244.0	0.37777777777777777	-570.0	-0.5988023952095809	-461.0	4.767071405181964	-213.0	-111.0	1.6258050487991604	-351.0	3.86107453309647	
1.2524063563281533	2106.0	10.178630990117634	1233.0	-0.4278583012343371	1970.0	1.020232985898222	-1664.0	9.809932556713672	-16000.0	-1088.0	-0.6670754138565297	0.0	15841.0	4483.428955078125	0.7347826086956522	1239.0	0.37575757575757573	-571.0	-0.6367265469061877	-442.0	2.4660790748879986	-250.0	-72.0	1.178736963107287	-201.0	4.446822098984961	
1.1779431324596292	2112.0	9.974304722455107	1250.0	-0.5029353527761535	1976.0	0.9809932556713672	-1600.0	9.53525444512569	-15552.0	-1216.0	-0.745554874310239	0.0	16481.0	4502.960205078125	0.7326086956521739	1238.0	0.3575757575757576	-580.0	-0.6427145708582835	-439.0	-3.181334479371057	-115.0	24.0	0.21464586423016752	165.0	2.4500642953640535	
1.4703981979036924	2103.0	10.063771537681054	1242.0	-0.39068239902969454	1952.0	1.3341508277130594	-2176.0	9.652973635806253	-15744.0	-1024.0	-0.627835683629675	0.0	17121.0	4522.491455078125	0.741304347826087	1242.0	0.3898989898989899	-564.0	-0.6007984031936129	-460.0	-4.486997406658129	-33.0	60.0	-0.1843241994042506	249.0	1.2159726356635394	
1.433830278513402	2106.0	10.028654758721135	1245.0	-0.42754382432644955	1955.0	1.2164316370324952	-1984.0	9.692213366033108	-15808.0	-1152.0	-0.7063151440833844	0.0	17761.0	4542.022705078125	0.7456521739130435	1244.0	0.3696969696969697	-574.0	-0.6247504990019961	-448.0	0.6104039731350602	62.0	33.0	-0.07651105743237267	-84.0	-0.2798682982864837	
1.1417134806090927	2104.0	10.107228607265569	1239.0	-0.4055828682778797	1979.0	0.9417535254445125	-1536.0	9.652973635806253	-15744.0	-1024.0	-0.627835683629675	0.0	18401.0	4561.553955078125	0.7369565217391304	1240.0	0.3898989898989899	-564.0	-0.5888223552894213	-466.0	6.879665069121541	146.0	-25.0	0.4078162492752307	-493.0	-1.6201274491703028	
0.9228704630934603	2104.0	10.172611769343066	1234.0	-0.40711746683226113	1997.0	0.745554874310239	-1216.0	9.888412017167381	-16128.0	-1024.0	-0.627835683629675	0.0	19041.0	4581.085205078125	0.7478260869565218	1245.0	0.37373737373737376	-572.0	-0.5928143712574852	-464.0	6.85356840464436	191.0	3.0	0.0172188980308296	-492.0	-2.304277128913364	
1.105751076856517	2108.0	10.121111248665995	1238.0	-0.45399643698573855	1982.0	0.9025137952176578	-1472.0	9.652973635806253	-15744.0	-1216.0	-0.745554874310239	0.0	19681.0	4600.616455078125	0.7391304347826088	1241.0	0.37777777777777777	-570.0	-0.6367265469061877	-442.0	-2.1750794632346664	202.0	-40.0	1.2969824660137506	97.0	-2.3812910304627106	
1.4234553601835573	2109.0	10.175899238156411	1233.0	-0.46231970702864833	1956.0	1.2164316370324952	-1984.0	9.770692826486817	-15936.0	-1280.0	-0.7847946045370937	0.0	20321.0	4620.147705078125	0.7304347826086957	1237.0	0.39191919191919194	-563.0	-0.6027944111776448	-459.0	-8.235766788420506	132.0	-57.0	1.9310933162340276	493.0	-1.25604537394089	
1.0933204276498243	2109.0	10.085025162998868	1241.0	-0.4665297971055611	1983.0	0.9417535254445125	-1536.0	9.770692826486817	-15936.0	-1280.0	-0.7847946045370937	0.0	20961.0	4639.678955078125	0.741304347826087	1242.0	0.3696969696969697	-574.0	-0.5988023952095809	-461.0	-2.797481508595053	133.0	-118.0	2.4677397544128694	139.0	-1.32563735221443	
1.348981342417242	2110.0	10.03133202719827	1245.0	-0.4765583120869772	1962.0	1.1771919068056407	-1920.0	9.574494175352545	-15616.0	-1152.0	-0.7063151440833844	0.0	21601.0	4659.210205078125	0.7347826086956522	1239.0	0.3616161616161616	-578.0	-0.6227544910179642	-449.0	-5.241806710085365	96.0	-146.0	3.035145387680699	299.0	-0.7384564576139753	
1.264013893729009	2115.0	10.009867237994282	1247.0	-0.5378635983213211	1969.0	1.0987124463519313	-1792.0	9.652973635806253	-15744.0	-1152.0	-0.7063151440833844	0.0	22241.0	4678.741455078125	0.7456521739130435	1244.0	0.39191919191919194	-563.0	-0.6147704590818364	-453.0	-4.591474844314286	5.0	-201.0	3.759108779239921	258.0	0.6390706419792647	
1.4704197856992742	2113.0	9.944253424272286	1252.0	-0.5123592919966697	1952.0	1.2949110974862048	-2112.0	9.574494175352545	-15616.0	-1216.0	-0.745554874310239	0.0	22881.0	4698.272705078125	0.741304347826087	1242.0	0.37575757575757573	-571.0	-0.6227544910179642	-449.0	-4.95119189203871	-38.0	-215.0	3.967880442417813	282.0	1.2966602078937712	
1.5188149974381007	2109.0	9.954505057198109	1251.0	-0.4635800524656859	1948.0	1.3733905579399142	-2240.0	9.45677498467198	-15424.0	-1088.0	-0.6670754138565297	0.0	23521.0	4717.803955078125	0.7434782608695653	1243.0	0.38181818181818183	-568.0	-0.6367265469061877	-442.0	-5.048496024704179	-110.0	-212.0	3.8858730174381306	289.0	2.3926902834409582	
1.5176061249422301	2108.0	9.844554405136542	1260.0	-0.452643454940176	1948.0	1.3733905579399142	-2240.0	9.45677498467198	-15424.0	-1088.0	-0.6670754138565297	0.0	24161.0	4737.335205078125	0.7347826086956522	1239.0	0.40404040404040403	-557.0	-0.6007984031936129	-460.0	-5.2420021683669065	-78.0	-180.0	3.4390486057053913	301.0	1.90793332966846	
1.602457219817948	2105.0	9.82992532531853	1261.0	-0.4157966564763459	1941.0	1.4126302881667687	-2304.0	9.45677498467198	-15424.0	-1024.0	-0.627835683629675	0.0	24801.0	4756.866455078125	0.7347826086956522	1239.0	0.3878787878787879	-565.0	-0.6167664670658684	-452.0	-2.171834364357133	65.0	-133.0	2.6077134481030235	99.0	-0.29767329133741727	
1.4935852085711472	2108.0	9.881617580865749	1257.0	-0.45251303234659473	1950.0	1.3733905579399142	-2240.0	9.53525444512569	-15552.0	-1152.0	-0.7063151440833844	0.0	25441.0	4776.397705078125	0.7326086956521739	1238.0	0.40404040404040403	-557.0	-0.6147704590818364	-453.0	2.6933797165953357	151.0	-137.0	2.3813839546962163	-219.0	-1.6543102230214668	
1.4466445296305706	2115.0	9.98179347000023	1249.0	-0.5363180296422461	1954.0	1.2949110974862048	-2112.0	9.613733905579398	-15680.0	-1344.0	-0.8240343347639485	0.0	26081.0	4795.928955078125	0.7217391304347827	1233.0	0.3939393939393939	-562.0	-0.6467065868263474	-437.0	5.267137090082349	225.0	-190.0	3.0418721515590392	-387.0	-2.80552308192744	
1.3011851699774557	2112.0	10.105935248655422	1239.0	-0.5003866271389722	1966.0	1.137952176578786	-1856.0	9.731453096259962	-15872.0	-1152.0	-0.7063151440833844	0.0	26721.0	4815.460205078125	0.7347826086956522	1239.0	0.37373737373737376	-572.0	-0.6267465069860281	-447.0	2.2918645255389816	275.0	-137.0	2.484766674351153	-194.0	-3.536226630046264	
1.4243216475805582	2119.0	10.141712849129355	1236.0	-0.5831348357557922	1956.0	1.25567136725935	-2048.0	9.770692826486817	-15936.0	-1408.0	-0.8632740649908032	0.0	27361.0	4834.991455078125	0.7391304347826088	1241.0	0.37575757575757573	-571.0	-0.6367265469061877	-442.0	-3.884375238419561	317.0	-106.0	2.475416676529243	208.0	-4.113247502368656	
1.6082904624678547	2124.0	10.18797273417361	1232.0	-0.6410735126118984	1941.0	1.491109748620478	-2432.0	9.770692826486817	-15936.0	-1408.0	-0.8632740649908032	0.0	28001.0	4854.522705078125	0.7369565217391304	1240.0	0.39595959595959596	-561.0	-0.6027944111776448	-459.0	-1.590706544139861	258.0	-105.0	2.2648912955375766	59.0	-3.238845786269628	
1.7541032011176303	2123.0	10.14820893990266	1235.0	-0.6279648303970259	1929.0	1.6088289393010422	-2624.0	9.770692826486817	-15936.0	-1408.0	-0.8632740649908032	0.0	28641.0	4874.053955078125	0.7326086956521739	1238.0	0.3878787878787879	-565.0	-0.6367265469061877	-442.0	8.357114820148166	224.0	-135.0	2.0016136303805205	-589.0	-2.8212137337528125	
1.254610822710889	2121.0	10.218778254128884	1230.0	-0.6081576754966622	1970.0	1.0987124463519313	-1792.0	9.849172286940528	-16064.0	-1408.0	-0.8632740649908032	0.0	29281.0	4893.585205078125	0.7347826086956522	1239.0	0.39191919191919194	-563.0	-0.6487025948103793	-436.0	12.896843082809134	219.0	-130.0	1.6076441994636297	-885.0	-2.7905653890029964	
1.0105423338874195	2122.0	10.187370317192268	1233.0	-0.6229606325253475	1990.0	0.8240343347639485	-1344.0	9.770692826486817	-15936.0	-1536.0	-0.9417535254445125	0.0	29921.0	4913.116455078125	0.7347826086956522	1239.0	0.3797979797979798	-569.0	-0.6227544910179642	-449.0	-1.521996421553885	187.0	-85.0	1.917065079693264	55.0	-2.1596849787502403	
1.5841531922842569	2126.0	10.188942040880821	1232.0	-0.6654015777888309	1943.0	1.4518700183936235	-2368.0	9.770692826486817	-15936.0	-1472.0	-0.9025137952176578	0.0	30561.0	4932.647705078125	0.7304347826086957	1237.0	0.36767676767676766	-575.0	-0.656686626746507	-432.0	-6.902016921445555	140.0	-61.0	1.903101260637166	406.0	-1.3910558764129213	
1.388363561387099	2125.0	10.13169186784803	1237.0	-0.6558837830570461	1959.0	1.2164316370324952	-1984.0	9.770692826486817	-15936.0	-1536.0	-0.9417535254445125	0.0	31201.0	4952.178955078125	0.7304347826086957	1237.0	0.402020202020202	-558.0	-0.6167664670658684	-452.0	-0.42887466806507185	87.0	-118.0	2.274899927437458	-15.0	-0.6497036487566118	
1.5827008182655655	2124.0	10.066562707479639	1242.0	-0.642543509320861	1943.0	1.4518700183936235	-2368.0	9.574494175352545	-15616.0	-1472.0	-0.9025137952176578	0.0	31841.0	4971.710205078125	0.7391304347826088	1241.0	0.39191919191919194	-563.0	-0.6207584830339322	-450.0	4.933965395118489	22.0	-123.0	1.9370650515447705	-364.0	0.2852611065050889	
1.2776663681089218	2121.0	10.084193107677718	1241.0	-0.6092729715071936	1968.0	1.137952176578786	-1856.0	9.613733905579398	-15680.0	-1408.0	-0.8632740649908032	0.0	32481.0	4991.241455078125	0.7369565217391304	1240.0	0.37373737373737376	-572.0	-0.6447105788423154	-438.0	11.353211784179404	-17.0	-141.0	1.7364243345909527	-782.0	0.8142245361506014	
1.1188217821738553	2124.0	10.014967773239443	1247.0	-0.64769824902418	1981.0	0.9417535254445125	-1536.0	9.652973635806253	-15744.0	-1472.0	-0.9025137952176578	0.0	33121.0	5010.772705078125	0.7326086956521739	1238.0	0.39191919191919194	-563.0	-0.6267465069860281	-447.0	5.246461424562736	0.0	-140.0	2.156803861195341	-384.0	0.6167369066669202	
1.2282993090583705	2122.0	10.012274938052569	1247.0	-0.6225340165650349	1972.0	1.0594727161250765	-1728.0	9.574494175352545	-15616.0	-1408.0	-0.8632740649908032	0.0	33761.0	5030.303955078125	0.7347826086956522	1239.0	0.3656565656565657	-576.0	-0.6327345309381238	-444.0	-2.4982229317181788	-27.0	-117.0	2.3345804506722883	121.0	1.104830138062429	
1.3130297325624576	2119.0	9.985455611894313	1249.0	-0.5858103272783237	1965.0	1.137952176578786	-1856.0	9.574494175352545	-15616.0	-1472.0	-0.9025137952176578	0.0	34401.0	5049.835205078125	0.741304347826087	1242.0	0.38181818181818183	-568.0	-0.6447105788423154	-438.0	-5.691848714367737	-11.0	-109.0	2.4466506154638723	329.0	0.8934203882843618	
1.422507259446973	2117.0	9.98276277670744	1249.0	-0.5606460948191785	1956.0	1.3341508277130594	-2176.0	9.613733905579398	-15680.0	-1472.0	-0.9025137952176578	0.0	35041.0	5069.366455078125	0.741304347826087	1242.0	0.397979797979798	-560.0	-0.6087824351297406	-456.0	-4.597545362339559	-15.0	-141.0	2.8478137620266954	258.0	0.9433138566652207	
1.385941498836241	2121.0	9.935694186406646	1253.0	-0.6096752094126312	1959.0	1.25567136725935	-2048.0	9.496014714898834	-15488.0	-1472.0	-0.9025137952176578	0.0	35681.0	5088.897705078125	0.7456521739130435	1244.0	0.38181818181818183	-568.0	-0.6427145708582835	-439.0	-1.2269265729163288	43.0	-174.0	3.143256489073656	38.0	0.02747839120444846	
1.3854523370110414	2118.0	9.922788635068297	1254.0	-0.5736645782310137	1959.0	1.25567136725935	-2048.0	9.53525444512569	-15552.0	-1344.0	-0.8240343347639485	0.0	36321.0	5108.428955078125	0.7391304347826088	1241.0	0.37575757575757573	-571.0	-0.6307385229540919	-445.0	-0.11485709479738322	71.0	-151.0	2.7380630877220002	-35.0	-0.40949781688472586	
1.4350672151435298	2120.0	9.983231863351307	1249.0	-0.5966603827090273	1955.0	1.2164316370324952	-1984.0	9.574494175352545	-15616.0	-1408.0	-0.8632740649908032	0.0	36961.0	5127.960205078125	0.7391304347826088	1241.0	0.3878787878787879	-565.0	-0.6067864271457086	-457.0	-0.9309778474738033	80.0	-138.0	2.6054378285537445	18.0	-0.5382187386355282	
1.5085823382754695	2122.0	9.994421669564861	1248.0	-0.619909718957741	1949.0	1.2949110974862048	-2112.0	9.652973635806253	-15744.0	-1472.0	-0.9025137952176578	0.0	37601.0	5147.491455078125	0.7478260869565218	1245.0	0.4	-559.0	-0.6027944111776448	-459.0	-1.4522062150991557	62.0	-122.0	2.3908846926282488	52.0	-0.25924219640414153	
1.4476314883992025	2125.0	9.959797327313419	1251.0	-0.6570100491922711	1954.0	1.3341508277130594	-2176.0	9.53525444512569	-15552.0	-1600.0	-0.9809932556713672	0.0	38241.0	5167.022705078125	0.7282608695652174	1236.0	0.36363636363636365	-577.0	-0.6526946107784432	-434.0	0.49488621662415333	-27.0	-133.0	2.3661401139176768	-74.0	1.0748990465790058	
1.2141706255306077	2119.0	9.853332648985525	1260.0	-0.58812014797773	1973.0	1.020232985898222	-1664.0	9.53525444512569	-15552.0	-1408.0	-0.8632740649908032	0.0	38881.0	5186.553955078125	0.7326086956521739	1238.0	0.39595959595959596	-561.0	-0.6187624750499002	-451.0	-1.664509215858513	-72.0	-110.0	2.14423002395606	67.0	1.780903647291665	
1.5674752984953302	2116.0	9.857667258054779	1259.0	-0.5483991768441373	1944.0	1.4126302881667687	-2304.0	9.417535254445125	-15360.0	-1280.0	-0.7847946045370937	0.0	39521.0	5206.085205078125	0.7478260869565218	1245.0	0.37777777777777777	-570.0	-0.6167664670658684	-452.0	-8.547326373200805	-37.0	-65.0	1.969904205106816	515.0	1.3174124272301073	
1.469827222738909	2118.0	9.82354313586668	1262.0	-0.5738132843657512	1952.0	1.3733905579399142	-2240.0	9.417535254445125	-15360.0	-1280.0	-0.7847946045370937	0.0	40161.0	5225.616455078125	0.741304347826087	1242.0	0.3898989898989899	-564.0	-0.6247504990019961	-448.0	-6.812036296007071	54.0	-66.0	1.919481736212296	401.0	-0.083970891792781	
1.482744874991243	2119.0	9.884486584213033	1257.0	-0.5851228661308485	1951.0	1.3341508277130594	-2176.0	9.417535254445125	-15360.0	-1472.0	-0.9025137952176578	0.0	40801.0	5245.147705078125	0.7456521739130435	1244.0	0.40404040404040403	-557.0	-0.6167664670658684	-452.0	-5.650380092684512	77.0	-62.0	1.7926528449058048	325.0	-0.4453973397575656	
1.4707947524915175	2119.0	9.909113295247758	1255.0	-0.5849961002454986	1952.0	1.3733905579399142	-2240.0	9.53525444512569	-15552.0	-1408.0	-0.8632740649908032	0.0	41441.0	5264.678955078125	0.7369565217391304	1240.0	0.39595959595959596	-561.0	-0.6087824351297406	-456.0	-5.092113457535391	99.0	-22.0	1.1674813675926392	288.0	-0.7855807665653306	
1.4833460730698411	2118.0	9.957389627255132	1251.0	-0.5723396309485572	1951.0	1.2949110974862048	-2112.0	9.574494175352545	-15616.0	-1344.0	-0.8240343347639485	0.0	42081.0	5284.210205078125	0.741304347826087	1242.0	0.40606060606060607	-556.0	-0.6267465069860281	-447.0	-4.469696687860664	148.0	-27.0	1.228933565095467	247.0	-1.5370520825510512	
1.6431733002144233	2123.0	10.02852244168835	1245.0	-0.6302709943882009	1938.0	1.4518700183936235	-2368.0	9.692213366033108	-15808.0	-1472.0	-0.9025137952176578	0.0	42721.0	5303.741455078125	0.7369565217391304	1240.0	0.4	-559.0	-0.6047904191616768	-458.0	-3.519616280192863	170.0	-43.0	1.416072059110054	185.0	-1.881153647084003	
1.7168112534975526	2126.0	10.039950682901273	1244.0	-0.6655649107564934	1932.0	1.5695892090741874	-2560.0	9.652973635806253	-15744.0	-1472.0	-0.9025137952176578	0.0	43361.0	5323.272705078125	0.7369565217391304	1240.0	0.3939393939393939	-562.0	-0.6067864271457086	-457.0	1.4202923263941674	183.0	-65.0	1.4099982477975153	-137.0	-2.1282713643285804	
1.1806281255493318	2126.0	10.075164783168214	1242.0	-0.6705746010333062	1976.0	1.020232985898222	-1664.0	9.692213366033108	-15808.0	-1664.0	-1.020232985898222	0.0	44001.0	5342.803955078125	0.7304347826086957	1237.0	0.38585858585858585	-566.0	-0.658682634730539	-431.0	8.644209475377307	195.0	-78.0	1.1094165431820628	-608.0	-2.3830200415218346	
1.254865118131501	2127.0	10.171447878764113	1234.0	-0.6809175929226099	1970.0	1.0594727161250765	-1728.0	9.809932556713672	-16000.0	-1408.0	-0.8632740649908032	0.0	44641.0	5362.335205078125	0.7239130434782609	1234.0	0.397979797979798	-560.0	-0.658682634730539	-431.0	-0.04600916694526657	121.0	-45.0	1.174484125592714	-41.0	-1.1706425699275056	
1.60768494683014	2123.0	10.138973313813263	1236.0	-0.6295213692007946	1941.0	1.4126302881667687	-2304.0	9.692213366033108	-15808.0	-1472.0	-0.9025137952176578	0.0	45281.0	5381.866455078125	0.741304347826087	1242.0	0.4	-559.0	-0.6347305389221558	-443.0	-9.155917277137092	73.0	0.0	1.1046695404838505	553.0	-0.3495054660118991	
1.4368794444975566	2121.0	10.154133747114098	1235.0	-0.6069814343489435	1955.0	1.3341508277130594	-2176.0	9.770692826486817	-15936.0	-1536.0	-0.9417535254445125	0.0	45921.0	5401.397705078125	0.7369565217391304	1240.0	0.4101010101010101	-554.0	-0.6467065868263474	-437.0	-5.384059551126199	75.0	5.0	0.7684024540508856	307.0	-0.41764229422257837	
1.4493165700429238	2123.0	10.154364398758597	1235.0	-0.6309511421192135	1954.0	1.2949110974862048	-2112.0	9.731453096259962	-15872.0	-1472.0	-0.9025137952176578	0.0	46561.0	5420.928955078125	0.7391304347826088	1241.0	0.40404040404040403	-557.0	-0.6387225548902197	-441.0	-1.8037849123379952	79.0	-44.0	1.256281482925443	74.0	-0.5142815425116012	
1.486496481409603	2124.0	10.20262516405623	1231.0	-0.6421449281236546	1951.0	1.3733905579399142	-2240.0	9.770692826486817	-15936.0	-1536.0	-0.9417535254445125	0.0	47201.0	5440.460205078125	0.7456521739130435	1244.0	0.39191919191919194	-563.0	-0.6067864271457086	-457.0	-1.2076691557976666	35.0	-90.0	1.8776789378475272	36.0	0.1489588208355432	
1.3890962247351193	2129.0	10.157026100525991	1235.0	-0.7038158851811237	1959.0	1.25567136725935	-2048.0	9.770692826486817	-15936.0	-1664.0	-1.020232985898222	0.0	47841.0	5459.991455078125	0.7347826086956522	1239.0	0.4121212121212121	-553.0	-0.6227544910179642	-449.0	0.8509923968576734	-50.0	-133.0	2.3273627283361615	-97.0	1.4211478707082295	
1.3878787171210158	2124.0	10.094882693827929	1240.0	-0.6442085304688236	1959.0	1.25567136725935	-2048.0	9.770692826486817	-15936.0	-1536.0	-0.9417535254445125	0.0	48481.0	5479.522705078125	0.7391304347826088	1241.0	0.397979797979798	-560.0	-0.6107784431137725	-455.0	-2.503970094682014	-165.0	-149.0	2.7307862005310266	123.0	3.203746925281421	
1.715839406185828	2123.0	9.978284146201947	1249.0	-0.630046716283351	1932.0	1.5695892090741874	-2560.0	9.53525444512569	-15552.0	-1408.0	-0.8632740649908032	0.0	49121.0	5499.053955078125	0.7347826086956522	1239.0	0.39191919191919194	-563.0	-0.6427145708582835	-439.0	-8.772044487283294	-252.0	-96.0	2.319513722951409	532.0	4.589621585557244	
1.6419730628367852	2126.0	9.870764544263274	1258.0	-0.668005154049481	1938.0	1.5695892090741874	-2560.0	9.221336603310851	-15040.0	-1536.0	-0.9417535254445125	0.0	49761.0	5518.585205078125	0.7326086956521739	1238.0	0.4202020202020202	-549.0	-0.6267465069860281	-447.0	-7.239407339869715	-217.0	-123.0	2.638932554356223	432.0	4.041975822448126	
1.641475265893353	2119.0	9.905666238288433	1255.0	-0.5833237656810735	1938.0	1.491109748620478	-2432.0	9.53525444512569	-15552.0	-1344.0	-0.8240343347639485	0.0	50401.0	5538.116455078125	0.7326086956521739	1238.0	0.40404040404040403	-557.0	-0.5988023952095809	-461.0	-4.742561926408328	-201.0	-118.0	2.3999234351428638	269.0	3.773661360708951	
1.5305453649901462	2119.0	9.785979740074128	1265.0	-0.5856299296722486	1947.0	1.4518700183936235	-2368.0	9.37829552421827	-15296.0	-1408.0	-0.8632740649908032	0.0	51041.0	5557.647705078125	0.7369565217391304	1240.0	0.41414141414141414	-552.0	-0.6447105788423154	-438.0	-5.45136304955769	-140.0	-53.0	1.5118535158455693	314.0	2.8529927179480485	
1.763876921368877	2121.0	9.928061417425283	1253.0	-0.6059721828771184	1928.0	1.5695892090741874	-2560.0	9.45677498467198	-15424.0	-1344.0	-0.8240343347639485	0.0	51681.0	5577.178955078125	0.7326086956521739	1238.0	0.4262626262626263	-546.0	-0.62874251497006	-446.0	-3.495654720659899	-47.0	-94.0	2.0470068165955073	186.0	1.4189869654575498	
1.7394896733237841	2119.0	9.952457476815512	1251.0	-0.5818757092214983	1930.0	1.6088289393010422	-2624.0	9.574494175352545	-15616.0	-1280.0	-0.7847946045370937	0.0	52321.0	5596.710205078125	0.7369565217391304	1240.0	0.41414141414141414	-552.0	-0.6067864271457086	-457.0	-4.260540884419927	-43.0	-111.0	2.3575489173873914	236.0	1.3657993251940093	
1.7157165760346385	2122.0	9.97804571120258	1249.0	-0.6180021361637722	1932.0	1.5695892090741874	-2560.0	9.652973635806253	-15744.0	-1408.0	-0.8632740649908032	0.0	52961.0	5616.241455078125	0.7304347826086957	1237.0	0.4121212121212121	-553.0	-0.6347305389221558	-443.0	-0.40717338646781226	91.0	-62.0	1.436242768419282	-17.0	-0.710757163473725	
1.6313481666454452	2125.0	10.041435776381569	1244.0	-0.6543564979191272	1939.0	1.491109748620478	-2432.0	9.652973635806253	-15744.0	-1536.0	-0.9417535254445125	0.0	53601.0	5635.772705078125	0.7260869565217392	1235.0	0.4	-559.0	-0.6267465069860281	-447.0	-3.264047330976415	91.0	-34.0	1.2152910900095546	169.0	-0.6821884240286389	
1.5820953026278508	2123.0	10.017563287119293	1246.0	-0.6309913659097572	1943.0	1.4126302881667687	-2304.0	9.652973635806253	-15744.0	-1408.0	-0.8632740649908032	0.0	54241.0	5655.303955078125	0.741304347826087	1242.0	0.4262626262626263	-546.0	-0.6007984031936129	-460.0	-5.540647913215833	133.0	-30.0	1.3393238063393933	317.0	-1.2982056881682222	
1.679982562347976	2120.0	10.088019713328757	1240.0	-0.5931633507372084	1935.0	1.648068669527897	-2688.0	9.652973635806253	-15744.0	-1472.0	-0.9025137952176578	0.0	54881.0	5674.835205078125	0.7282608695652174	1236.0	0.4262626262626263	-546.0	-0.62874251497006	-446.0	-3.5927165520256437	129.0	-27.0	1.1563368122801327	190.0	-1.2568484998789833	
1.5345447904904432	2127.0	10.092643378575183	1240.0	-0.6789088412009098	1947.0	1.3733905579399142	-2240.0	9.770692826486817	-15936.0	-1536.0	-0.9417535254445125	0.0	55521.0	5694.366455078125	0.7260869565217392	1235.0	0.41818181818181815	-550.0	-0.660678642714571	-430.0	-2.511854658491072	150.0	-96.0	2.1283672485100555	120.0	-1.5870487537953175	
1.839335739124266	2129.0	10.06258429703749	1242.0	-0.7002579080721172	1922.0	1.648068669527897	-2688.0	9.652973635806253	-15744.0	-1664.0	-1.020232985898222	0.0	56161.0	5713.897705078125	0.741304347826087	1242.0	0.4222222222222222	-548.0	-0.6047904191616768	-458.0	0.8576266516225668	85.0	-104.0	1.9742476530754125	-99.0	-0.6321504110029177	
1.64391028112156	2129.0	10.029953051684558	1245.0	-0.7025384751056735	1938.0	1.5303494788473329	-2496.0	9.613733905579398	-15680.0	-1600.0	-0.9809932556713672	0.0	56801.0	5733.428955078125	0.7304347826086957	1237.0	0.4262626262626263	-546.0	-0.6347305389221558	-443.0	5.558842748281731	49.0	-123.0	1.9099994432779166	-405.0	-0.13163405485924318	
1.5095585031463106	2127.0	10.032184583582435	1245.0	-0.6797632920242785	1949.0	1.3733905579399142	-2240.0	9.574494175352545	-15616.0	-1600.0	-0.9809932556713672	0.0	57441.0	5752.960205078125	0.7326086956521739	1238.0	0.4303030303030303	-544.0	-0.6107784431137725	-455.0	2.5701886305303017	39.0	-127.0	2.171896134675806	-210.0	0.05034374107112285	
1.5448011962282149	2125.0	9.921256841458785	1254.0	-0.6564237569725274	1946.0	1.3733905579399142	-2240.0	9.574494175352545	-15616.0	-1536.0	-0.9417535254445125	0.0	58081.0	5772.491455078125	0.7239130434782609	1234.0	0.4121212121212121	-553.0	-0.6267465069860281	-447.0	-3.939636416608668	64.0	-105.0	2.310354000973193	214.0	-0.26478614533961675	
1.7521767767306464	2125.0	9.929261375776992	1253.0	-0.654269955824321	1929.0	1.5695892090741874	-2560.0	9.574494175352545	-15616.0	-1536.0	-0.9417535254445125	0.0	58721.0	5792.022705078125	0.7347826086956522	1239.0	0.4262626262626263	-546.0	-0.6427145708582835	-439.0	-4.554751974430429	67.0	-97.0	2.235051108869614	254.0	-0.30426236618725466	
1.739989629046775	2127.0	9.905603971449475	1255.0	-0.6787247868866035	1930.0	1.5695892090741874	-2560.0	9.496014714898834	-15488.0	-1536.0	-0.9417535254445125	0.0	59361.0	5811.553955078125	0.7326086956521739	1238.0	0.43434343434343436	-542.0	-0.6167664670658684	-452.0	-2.1297026999029587	69.0	-111.0	2.277379461874288	96.0	-0.35893110988309973	
1.7269426703045765	2122.0	9.880277522126384	1257.0	-0.6188675571118347	1931.0	1.648068669527897	-2688.0	9.496014714898834	-15488.0	-1472.0	-0.9025137952176578	0.0	60001.0	5831.085205078125	0.7347826086956522	1239.0	0.4222222222222222	-548.0	-0.6367265469061877	-442.0	1.0157198385257211	67.0	-118.0	2.1621888493985106	-109.0	-0.3599670843168161	
1.580767917539907	2123.0	9.883470577376603	1257.0	-0.6323455668580635	1943.0	1.4518700183936235	-2368.0	9.53525444512569	-15552.0	-1408.0	-0.8632740649908032	0.0	60641.0	5850.616455078125	0.7326086956521739	1238.0	0.4303030303030303	-544.0	-0.6367265469061877	-442.0	2.7497059116078746	69.0	-126.0	2.162660178735023	-222.0	-0.4077251959982081	
1.5927158812600744	2122.0	9.870795677682754	1258.0	-0.6203046434467161	1942.0	1.4126302881667687	-2304.0	9.496014714898834	-15488.0	-1536.0	-0.9417535254445125	0.0	61281.0	5870.147705078125	0.7326086956521739	1238.0	0.43434343434343436	-542.0	-0.6067864271457086	-457.0	-5.742142601572075	105.0	-91.0	2.2508563447523504	331.0	-0.8703352279766747	
2.007350688452423	2124.0	9.850710877297171	1259.0	-0.6404555289208171	1908.0	1.883507050889025	-3072.0	9.496014714898834	-15488.0	-1536.0	-0.9417535254445125	0.0	61921.0	5889.678955078125	0.7347826086956522	1239.0	0.41818181818181815	-550.0	-0.6487025948103793	-436.0	-8.147363697773885	126.0	-27.0	1.4715151585671762	487.0	-1.1656746519956454	
1.9357706248256998	2124.0	10.010661389845772	1246.0	-0.6395718244315983	1914.0	1.8050275904353157	-2944.0	9.613733905579398	-15680.0	-1472.0	-0.9025137952176578	0.0	62561.0	5909.210205078125	0.7282608695652174	1236.0	0.4121212121212121	-553.0	-0.6487025948103793	-436.0	-3.100730770510958	192.0	6.0	0.6656689743962734	157.0	-2.2199432626370963	
1.729369050414551	2128.0	10.052371580886016	1243.0	-0.6894115093496447	1931.0	1.6088289393010422	-2624.0	9.574494175352545	-15616.0	-1536.0	-0.9417535254445125	0.0	63201.0	5928.741455078125	0.7282608695652174	1236.0	0.4383838383838384	-540.0	-0.6087824351297406	-456.0	-1.1149505455041242	246.0	7.0	0.5453178780142878	27.0	-3.0610938405525636	
1.6697455856262282	2131.0	10.151839948377264	1235.0	-0.7251576386358685	1936.0	1.491109748620478	-2432.0	9.770692826486817	-15936.0	-1664.0	-1.020232985898222	0.0	63841.0	5948.272705078125	0.7326086956521739	1238.0	0.43434343434343436	-542.0	-0.6367265469061877	-442.0	-2.314464631806285	263.0	12.0	0.5641837450034823	105.0	-3.30765383276939	
1.658155318461838	2130.0	10.224989209773598	1229.0	-0.7124938559224647	1937.0	1.5695892090741874	-2560.0	9.809932556713672	-16000.0	-1664.0	-1.020232985898222	0.0	64481.0	5967.803955078125	0.7260869565217392	1235.0	0.43434343434343436	-542.0	-0.6506986027944113	-435.0	-2.546210213117756	190.0	-8.0	0.8357526660374468	121.0	-2.1950702172604575	
1.7195996477224207	2132.0	10.248615480681636	1227.0	-0.7357395354629471	1932.0	1.5695892090741874	-2560.0	9.888412017167381	-16128.0	-1664.0	-1.020232985898222	0.0	65121.0	5987.335205078125	0.7326086956521739	1238.0	0.4303030303030303	-544.0	-0.6127744510978045	-454.0	-2.1882984059578603	107.0	-64.0	1.5999279175762238	99.0	-0.9362919208833872	
1.694613360378288	2132.0	10.18815668568889	1232.0	-0.7365939862863159	1934.0	1.6088289393010422	-2624.0	9.809932556713672	-16000.0	-1664.0	-1.020232985898222	0.0	225.0	6006.866455078125	0.7195652173913043	1232.0	0.42424242424242425	-547.0	-0.6347305389221558	-443.0	-0.31710273173552034	28.0	-90.0	1.811436959599722	-22.0	0.24651703492191795	
1.7424073740385164	2129.0	10.125505275572614	1237.0	-0.7005979819376233	1930.0	1.648068669527897	-2688.0	9.692213366033108	-15808.0	-1472.0	-0.9025137952176578	0.0	865.0	6026.397705078125	0.7282608695652174	1236.0	0.4383838383838384	-540.0	-0.6207584830339322	-450.0	-2.7187831605800605	-27.0	-78.0	1.7652237964241635	135.0	1.1070357403510478	
1.8383617330329831	2125.0	10.01286957167904	1246.0	-0.6525720243022771	1922.0	1.7265481299816063	-2816.0	9.652973635806253	-15744.0	-1472.0	-0.9025137952176578	0.0	1505.0	6045.928955078125	0.7304347826086957	1237.0	0.43434343434343436	-542.0	-0.6067864271457086	-457.0	-3.1941112330467374	-35.0	-71.0	1.6884921838788713	166.0	1.2334620248779962	
1.8382475380000265	2128.0	9.964823891316167	1250.0	-0.6891982013694884	1922.0	1.648068669527897	-2688.0	9.692213366033108	-15808.0	-1600.0	-0.9809932556713672	0.0	2145.0	6065.460205078125	0.7326086956521739	1238.0	0.42828282828282827	-545.0	-0.6407185628742516	-440.0	-0.7005028322540745	-4.0	-59.0	1.3538863097955443	3.0	0.7370430511362291	
1.8258190475728922	2130.0	9.91678599430816	1254.0	-0.7138992507860085	1923.0	1.7265481299816063	-2816.0	9.53525444512569	-15552.0	-1600.0	-0.9809932556713672	0.0	2785.0	6084.991455078125	0.7239130434782609	1234.0	0.44646464646464645	-536.0	-0.6327345309381238	-444.0	0.30771696841232254	2.0	-38.0	0.9725218230725869	-63.0	0.635706100277854	
1.8009599079390652	2133.0	9.83266201163303	1261.0	-0.7511336603223512	1925.0	1.6873083997547516	-2752.0	9.53525444512569	-15552.0	-1600.0	-0.9809932556713672	0.0	3425.0	6104.522705078125	0.7260869565217392	1235.0	0.41818181818181815	-550.0	-0.6447105788423154	-438.0	-0.20364783162637334	40.0	-40.0	1.0612156913739654	-30.0	0.06287298021740442	
1.8988471676591905	2130.0	9.903118437842492	1255.0	-0.7133056451498022	1917.0	1.8050275904353157	-2944.0	9.496014714898834	-15488.0	-1600.0	-0.9809932556713672	0.0	4065.0	6124.053955078125	0.7326086956521739	1238.0	0.4303030303030303	-544.0	-0.6487025948103793	-436.0	-2.055581916838366	-12.0	-15.0	0.7836627290129786	91.0	0.8722668457843533	
1.9114049645761888	2132.0	9.915539335827233	1254.0	-0.7371522437429535	1916.0	1.765787860208461	-2880.0	9.53525444512569	-15552.0	-1600.0	-0.9809932556713672	0.0	4705.0	6143.585205078125	0.7326086956521739	1238.0	0.4484848484848485	-535.0	-0.6367265469061877	-442.0	0.13596703557384615	-10.0	-6.0	0.49741511822997797	-52.0	0.8199331053096609	
1.7404787908719745	2130.0	9.918509522787824	1254.0	-0.714735418068221	1930.0	1.648068669527897	-2688.0	9.53525444512569	-15552.0	-1664.0	-1.020232985898222	0.0	5345.0	6163.116455078125	0.7326086956521739	1238.0	0.42828282828282827	-545.0	-0.6147704590818364	-453.0	4.48480631074549	35.0	-4.0	0.19212732303729307	-336.0	0.09203406617011166	
1.5333488706719216	2132.0	9.910981858468352	1255.0	-0.740978379455585	1947.0	1.3733905579399142	-2240.0	9.53525444512569	-15552.0	-1600.0	-0.9809932556713672	0.0	5985.0	6182.647705078125	0.7282608695652174	1236.0	0.42828282828282827	-545.0	-0.6407185628742516	-440.0	2.593384988685296	66.0	-1.0	0.2976520513976584	-213.0	-0.3605346103431267	
1.8021601453167033	2130.0	9.990419909058103	1248.0	-0.713399500661071	1925.0	1.648068669527897	-2688.0	9.574494175352545	-15616.0	-1536.0	-0.9417535254445125	0.0	6625.0	6202.178955078125	0.7347826086956522	1239.0	0.44646464646464645	-536.0	-0.6087824351297406	-456.0	-3.4752000477333844	45.0	-13.0	0.8871599495106702	183.0	0.019542875002048668	
1.802769978513534	2133.0	10.015515706736696	1246.0	-0.7492870226655698	1925.0	1.6873083997547516	-2752.0	9.496014714898834	-15488.0	-1664.0	-1.020232985898222	0.0	7265.0	6221.710205078125	0.7369565217391304	1240.0	0.4404040404040404	-539.0	-0.6107784431137725	-455.0	-2.3087696306501697	63.0	-36.0	1.1617545490307803	107.0	-0.2658856877239165	
1.8636044745772857	2132.0	10.01404617996614	1246.0	-0.7366451802015535	1920.0	1.7265481299816063	-2816.0	9.809932556713672	-16000.0	-1664.0	-1.020232985898222	0.0	7905.0	6241.241455078125	0.7282608695652174	1236.0	0.43636363636363634	-541.0	-0.6407185628742516	-440.0	-0.8565977865250032	89.0	-29.0	0.9715533529370838	12.0	-0.6758446685225826	
1.7905828308296625	2135.0	9.99185830240918	1248.0	-0.7737418537278523	1926.0	1.6873083997547516	-2752.0	9.613733905579398	-15680.0	-1664.0	-1.020232985898222	0.0	8545.0	6260.772705078125	0.7282608695652174	1236.0	0.4383838383838384	-540.0	-0.6107784431137725	-455.0	2.254334115799261	107.0	-30.0	0.7809755666256462	-191.0	-0.9807182461009584	
1.6562310528544126	2133.0	9.994089834307056	1248.0	-0.7509666706464574	1937.0	1.4518700183936235	-2368.0	9.53525444512569	-15552.0	-1536.0	-0.9417535254445125	0.0	9185.0	6280.303955078125	0.7369565217391304	1240.0	0.4262626262626263	-546.0	-0.6187624750499002	-451.0	3.687657026176497	54.0	-25.0	0.5740104273151563	-284.0	-0.1889678250146167	
1.7661955827845692	2133.0	10.016254361799408	1246.0	-0.7496453800722322	1928.0	1.6088289393010422	-2624.0	9.613733905579398	-15680.0	-1728.0	-1.0594727161250765	0.0	9825.0	6299.835205078125	0.7217391304347827	1233.0	0.43636363636363634	-541.0	-0.656686626746507	-432.0	0.9337447343652353	55.0	-71.0	1.4559462602580246	-104.0	-0.17663782757178925	
1.88811239399401	2134.0	10.001840366916156	1247.0	-0.7606185446800547	1918.0	1.8442673206621703	-3008.0	9.574494175352545	-15616.0	-1792.0	-1.0987124463519313	0.0	10465.0	6319.366455078125	0.7239130434782609	1234.0	0.4444444444444444	-537.0	-0.6247504990019961	-448.0	-0.40511133423292034	82.0	-67.0	1.5055864831532604	-17.0	-0.5738956547185073	
1.7060959088483962	2139.0	10.031106309907047	1245.0	-0.8223870139570236	1933.0	1.5303494788473329	-2496.0	9.613733905579398	-15680.0	-1728.0	-1.0594727161250765	0.0	11105.0	6338.897705078125	0.7260869565217392	1235.0	0.4262626262626263	-546.0	-0.6227544910179642	-449.0	2.5549856643400934	97.0	-82.0	1.533576763559639	-210.0	-0.831633506833515	
1.7909448449445562	2135.0	10.028429041429913	1245.0	-0.773372526196496	1926.0	1.6873083997547516	-2752.0	9.574494175352545	-15616.0	-1728.0	-1.0594727161250765	0.0	11745.0	6358.428955078125	0.7260869565217392	1235.0	0.4303030303030303	-544.0	-0.6427145708582835	-439.0	0.4101233883838727	38.0	-40.0	1.0172804844232295	-70.0	0.08715351896787231	
1.8389780425684887	2131.0	10.002109935335003	1247.0	-0.7249626141968685	1922.0	1.765787860208461	-2880.0	9.613733905579398	-15680.0	-1664.0	-1.020232985898222	0.0	12385.0	6377.960205078125	0.7282608695652174	1236.0	0.44242424242424244	-538.0	-0.6347305389221558	-443.0	-2.0359475347472697	-24.0	-32.0	1.0298683595094424	90.0	1.0545800076668643	
