Device	Device	Device	Device	Device	Device	Device	Device	Device	Device	Device	Device	Device	Device	Device	Device	Device	Device	Device	Device	Device	Device	Device	Device	Device	Device	Device	
Low Noise Accelerometer X	Low Noise Accelerometer X	Low Noise Accelerometer Z	Low Noise Accelerometer Z	Low Noise Accelerometer Y	Low Noise Accelerometer Y	Wide Range Accelerometer X	Wide Range Accelerometer X	Wide Range Accelerometer Z	Wide Range Accelerometer Z	Wide Range Accelerometer Y	Wide Range Accelerometer Y	Event_Marker	Timestamp	Timestamp	Magnetometer Z	Magnetometer Z	Magnetometer X	Magnetometer X	Magnetometer Y	Magnetometer Y	Gyroscope Y	Gyroscope Y	Gyroscope Z	Gyroscope Z	Gyroscope X	Gyroscope X	
CAL	UNCAL	UNCAL	CAL	CAL	UNCAL	UNCAL	CAL	CAL	UNCAL	CAL	UNCAL	CAL	CAL	UNCAL	UNCAL	CAL	CAL	UNCAL	CAL	UNCAL	CAL	UNCAL	CAL	UNCAL	UNCAL	CAL	
m/(s^2)	no units	no units	m/(s^2)	m/(s^2)	no units	no units	m/(s^2)	m/(s^2)	no units	m/(s^2)	no units	no units	ms	no units	no units	local_flux	local_flux	no units	local_flux	no units	deg/s	no units	deg/s	no units	no units	deg/s	
0.9180338716918351	1986.0	1255.0	9.888235047918293	1.0116771470274264	1996.0	-1408.0	0.8632740649908032	9.37829552421827	-15296.0	0.9025137952176578	1472.0	0.0	177.581787109375	5819.0	1257.0	0.7739130434782608	0.3616161616161616	-578.0	-0.5389221556886228	-491.0	18.463113566694492	179.0	0.5062420006109598	-84.0	-1248.0	-2.2378630748304427	
0.8587702622388478	1988.0	1243.0	10.036225965771152	0.9884680345692564	2001.0	-1088.0	0.6670754138565297	9.53525444512569	-15552.0	0.8632740649908032	1408.0	0.0	197.113037109375	6459.0	1261.0	0.782608695652174	0.3292929292929293	-594.0	-0.5409181636726548	-490.0	13.059802378675052	267.0	0.21620840106007178	-36.0	-897.0	-3.522233004775344	
0.9814197367963091	1993.0	1242.0	10.04714620356586	0.9295627678373564	1991.0	-1408.0	0.8632740649908032	9.731453096259962	-15872.0	0.7063151440833844	1152.0	0.0	216.644287109375	7099.0	1260.0	0.7804347826086957	0.33131313131313134	-593.0	-0.5568862275449102	-482.0	9.229703358633104	317.0	0.12339644635428715	-10.0	-648.0	-4.2443882883391835	
1.017761424900244	1997.0	1248.0	9.974219810459152	0.8810041497029912	1988.0	-1280.0	0.7847946045370937	9.692213366033108	-15808.0	0.7063151440833844	1152.0	0.0	236.175537109375	7739.0	1262.0	0.7847826086956522	0.34545454545454546	-586.0	-0.532934131736527	-494.0	10.016345733217385	269.0	-0.2154279475474669	7.0	-699.0	-3.5222166892713376	
1.1152909880645918	1996.0	1247.0	9.984201874966129	0.8941274587507888	1980.0	-1472.0	0.9025137952176578	9.613733905579398	-15680.0	0.627835683629675	1024.0	0.0	255.706787109375	8379.0	1262.0	0.7847826086956522	0.3292929292929293	-594.0	-0.5369261477045909	-492.0	14.25840210174358	184.0	0.637014202437215	-73.0	-974.0	-2.27186158755736	
1.1022569819997432	1997.0	1255.0	9.887164557597776	0.8809785527453725	1981.0	-1536.0	0.9417535254445125	9.53525444512569	-15552.0	0.6670754138565297	1088.0	0.0	275.238037109375	9019.0	1257.0	0.7739130434782608	0.33535353535353535	-591.0	-0.5568862275449102	-482.0	21.776008342169952	144.0	1.2888545071931583	-153.0	-1463.0	-1.738672630950217	
0.5415724109734728	1998.0	1255.0	9.898729036892071	0.8634391590569684	2027.0	-960.0	0.5885959534028203	9.45677498467198	-15424.0	0.745554874310239	1216.0	0.0	294.769287109375	9659.0	1256.0	0.7717391304347826	0.3212121212121212	-598.0	-0.5848303393213574	-468.0	22.188887753734797	239.0	1.0480477094880618	-135.0	-1491.0	-3.1876683452179564	
0.22568467455957586	2000.0	1248.0	9.990939308482693	0.837105998866567	2053.0	-448.0	0.27467811158798283	9.53525444512569	-15552.0	0.5493562231759657	896.0	0.0	314.300537109375	10299.0	1261.0	0.782608695652174	0.3232323232323232	-597.0	-0.530938123752495	-495.0	8.914808903256029	138.0	-0.32340432790953255	14.0	-626.0	-1.5188058837093665	
0.5794720330108232	1997.0	1243.0	10.044034902912925	0.8773194067086348	2024.0	-256.0	0.15695892090741875	9.652973635806253	-15744.0	0.7063151440833844	1152.0	0.0	333.831787109375	10939.0	1259.0	0.7782608695652175	0.3111111111111111	-603.0	-0.5848303393213574	-468.0	-5.955555134828863	65.0	-1.281863124503028	144.0	343.0	-0.2598360836327	
0.9444854857320086	1994.0	1246.0	9.999362308266962	0.91666739360264	1994.0	-1216.0	0.745554874310239	9.574494175352545	-15616.0	0.7063151440833844	1152.0	0.0	353.363037109375	11579.0	1259.0	0.7782608695652175	0.31717171717171716	-600.0	-0.5389221556886228	-491.0	-5.601180080709117	59.0	-1.2352152996432013	139.0	320.0	-0.17212508132218643	
0.8107392233944735	1993.0	1242.0	10.050593260525185	0.9278904332729312	2005.0	-1088.0	0.6670754138565297	9.574494175352545	-15616.0	0.7847946045370937	1280.0	0.0	372.894287109375	12219.0	1260.0	0.7804347826086957	0.296969696969697	-610.0	-0.532934131736527	-494.0	1.7558126128273202	82.0	-0.338966747100363	46.0	-159.0	-0.5955048941891098	
0.8593800954356788	1991.0	1241.0	10.061321763449744	0.9525805125647575	2001.0	-1344.0	0.8240343347639485	9.692213366033108	-15808.0	0.8240343347639485	1344.0	0.0	392.425537109375	12859.0	1255.0	0.7695652173913043	0.28888888888888886	-614.0	-0.56686626746507	-477.0	9.051642397303892	114.0	0.7169390665654038	-57.0	-634.0	-1.1551552072430011	
0.4456029405220985	1995.0	1239.0	10.09502742017178	0.9005870264985048	2035.0	-832.0	0.510116492949111	9.652973635806253	-15744.0	0.7847946045370937	1280.0	0.0	411.956787109375	13499.0	1262.0	0.7847826086956522	0.31717171717171716	-600.0	-0.5528942115768464	-484.0	12.503404932480409	225.0	0.7241349562048958	-69.0	-860.0	-2.8778857603514205	
0.3725791379949166	1997.0	1240.0	10.084791353955696	0.8756580422689034	2041.0	-384.0	0.23543838136112813	9.731453096259962	-15872.0	0.627835683629675	1024.0	0.0	431.488037109375	14139.0	1263.0	0.7869565217391304	0.296969696969697	-610.0	-0.5349301397205589	-493.0	5.871743689510573	240.0	0.8050189565494933	-43.0	-428.0	-3.0397060300509997	
0.6166562619366189	2000.0	1241.0	10.068392045528805	0.8417902421107986	2021.0	-576.0	0.3531575720416922	9.731453096259962	-15872.0	0.7063151440833844	1152.0	0.0	451.019287109375	14779.0	1260.0	0.7804347826086957	0.31717171717171716	-600.0	-0.5628742514970061	-479.0	-1.220325681097235	217.0	0.31012184567834844	22.0	34.0	-2.6189754504133624	
0.837427862618793	1999.0	1229.0	10.210004636236095	0.8574622767957776	2003.0	-1024.0	0.627835683629675	9.731453096259962	-15872.0	0.627835683629675	1024.0	0.0	470.550537109375	15419.0	1260.0	0.7804347826086957	0.31717171717171716	-600.0	-0.5409181636726548	-490.0	-1.3949591475347358	210.0	1.157597989704371	-34.0	46.0	-2.510765237421991	
1.094418321253713	2001.0	1223.0	10.27845239883731	0.8366202734659702	1982.0	-1408.0	0.8632740649908032	9.888412017167381	-16128.0	0.5885959534028203	960.0	0.0	490.081787109375	16059.0	1263.0	0.7869565217391304	0.29292929292929293	-612.0	-0.5688622754491018	-476.0	6.774404177817799	261.0	2.374159856760151	-151.0	-486.0	-3.3681242699150604	
0.6680941633209252	2008.0	1227.0	10.23997810087022	0.7476349395093811	2017.0	-1280.0	0.7847946045370937	9.849172286940528	-16064.0	0.5885959534028203	960.0	0.0	509.613037109375	16699.0	1254.0	0.7673913043478261	0.27474747474747474	-621.0	-0.6147704590818364	-453.0	17.446275155147582	344.0	2.6264196694478783	-214.0	-1182.0	-4.7372003941370275	
0.11935971479438062	2009.0	1229.0	10.226915869129787	0.7299687799356269	2062.0	-256.0	0.15695892090741875	9.849172286940528	-16064.0	0.5885959534028203	960.0	0.0	529.144287109375	17339.0	1260.0	0.7804347826086957	0.28484848484848485	-616.0	-0.5429141716566867	-489.0	14.617067323699215	341.0	2.0568897483052275	-163.0	-998.0	-4.663280939396688	
0.3631911784337039	2010.0	1230.0	10.21003969070416	0.7201901400166797	2042.0	64.0	-0.03923973022685469	9.849172286940528	-16064.0	0.5493562231759657	896.0	0.0	548.675537109375	17979.0	1259.0	0.7782608695652175	0.2868686868686869	-615.0	-0.564870259481038	-478.0	-0.32475980371561286	186.0	0.37885618250449327	12.0	-24.0	-2.1564482194533383	
0.887294877392335	2006.0	1227.0	10.235069300495208	0.7738742441885137	1999.0	-1024.0	0.627835683629675	9.849172286940528	-16064.0	0.5885959534028203	960.0	0.0	568.206787109375	18619.0	1257.0	0.7739130434782608	0.301010101010101	-608.0	-0.5828343313373254	-469.0	-7.440384587912216	6.0	-0.25489229081003995	80.0	441.0	0.6523506139399587	
0.5945811989685437	2007.0	1229.0	10.216836483315788	0.7587165864613974	2023.0	-1152.0	0.7063151440833844	9.809932556713672	-16000.0	0.5885959534028203	960.0	0.0	587.738037109375	19259.0	1261.0	0.782608695652174	0.298989898989899	-609.0	-0.5409181636726548	-490.0	-1.3752186174454586	10.0	0.09002330887594204	29.0	46.0	0.5308624523341504	
0.5328998445238148	2007.0	1235.0	10.14492609704551	0.7573806690542472	2028.0	-512.0	0.3139178418148375	9.849172286940528	-16064.0	0.5493562231759657	896.0	0.0	607.269287109375	19899.0	1263.0	0.7869565217391304	0.296969696969697	-610.0	-0.5489021956087825	-486.0	-0.5863408989314853	-41.0	-0.07087171504284194	34.0	-5.0	1.2986390743885545	
0.592643980683769	2004.0	1242.0	10.057647975894506	0.7932499075175897	2023.0	-768.0	0.47087676272225626	9.692213366033108	-15808.0	0.5493562231759657	896.0	0.0	626.800537109375	20539.0	1255.0	0.7695652173913043	0.3111111111111111	-603.0	-0.5588822355289422	-481.0	-2.837482121291795	-92.0	-0.35001650313554644	61.0	142.0	2.096815885851701	
0.6415240366886785	2001.0	1238.0	10.104708782840431	0.8303538944603511	2019.0	-704.0	0.4316370324954016	9.652973635806253	-15744.0	0.5493562231759657	896.0	0.0	646.331787109375	21179.0	1262.0	0.7847826086956522	0.30505050505050507	-606.0	-0.5568862275449102	-482.0	-4.181352238736483	-83.0	-1.07559556393722	116.0	229.0	1.9733724577485818	
0.5315681418767546	2005.0	1244.0	10.034737009984573	0.780361846699336	2028.0	-576.0	0.3531575720416922	9.652973635806253	-15744.0	0.627835683629675	1024.0	0.0	665.863037109375	21819.0	1259.0	0.7782608695652175	0.30303030303030304	-607.0	-0.5788423153692616	-471.0	-3.98493728473774	-37.0	-0.6864686601578592	91.0	216.0	1.2717885363454764	
0.5680197074545299	2004.0	1244.0	10.033759919922492	0.7927647842255773	2025.0	-640.0	0.39239730226854685	9.652973635806253	-15744.0	0.5885959534028203	960.0	0.0	685.394287109375	22459.0	1257.0	0.7739130434782608	0.30707070707070705	-605.0	-0.5628742514970061	-479.0	-3.4115480932237157	-17.0	0.17034847363242295	32.0	179.0	0.9618721349246326	
0.6039885875457801	2003.0	1248.0	9.984021844499434	0.8046752850433434	2022.0	-768.0	0.47087676272225626	9.613733905579398	-15680.0	0.5493562231759657	896.0	0.0	704.925537109375	23099.0	1259.0	0.7782608695652175	0.30303030303030304	-607.0	-0.5389221556886228	-491.0	-3.7319847626018645	-19.0	0.32636666951625276	23.0	200.0	0.9954947525689845	
0.6769003538195637	2005.0	1252.0	9.934260419011766	0.7808104029090359	2016.0	-768.0	0.47087676272225626	9.574494175352545	-15616.0	0.5885959534028203	960.0	0.0	724.456787109375	23739.0	1262.0	0.7847826086956522	0.30303030303030304	-607.0	-0.5748502994011977	-473.0	-4.022953735097806	-23.0	0.32919214617779874	24.0	219.0	1.0592409441950845	
0.6271583279767695	2000.0	1255.0	9.897482378411143	0.8401861661000234	2020.0	-832.0	0.510116492949111	9.496014714898834	-15488.0	0.5885959534028203	960.0	0.0	743.988037109375	24379.0	1255.0	0.7695652173913043	0.3191919191919192	-599.0	-0.5708582834331338	-475.0	-3.2910758067899746	-11.0	0.030681258877569645	41.0	171.0	0.8694126592085842	
0.676775364888816	2003.0	1251.0	9.945973795353275	0.8050226723253122	2016.0	-704.0	0.4316370324954016	9.417535254445125	-15360.0	0.5885959534028203	960.0	0.0	763.519287109375	25019.0	1261.0	0.782608695652174	0.3151515151515151	-601.0	-0.5449101796407186	-488.0	-3.264632687710469	18.0	0.046483403340966845	41.0	169.0	0.42808358923451917	
0.6526402534847766	2006.0	1252.0	9.934991290719609	0.7685269178516821	2018.0	-768.0	0.47087676272225626	9.692213366033108	-15808.0	0.627835683629675	1024.0	0.0	783.050537109375	25659.0	1259.0	0.7782608695652175	0.301010101010101	-608.0	-0.5708582834331338	-475.0	-3.013106832832954	78.0	0.02050159373779839	44.0	152.0	-0.4869791978313663	
0.5804589917794553	2007.0	1245.0	10.022038760226113	0.7566273871586097	2024.0	-640.0	0.39239730226854685	9.731453096259962	-15872.0	0.510116492949111	832.0	0.0	802.581787109375	26299.0	1258.0	0.7760869565217391	0.3151515151515151	-601.0	-0.5469061876247505	-487.0	-2.3726918018285446	118.0	0.21015836081411082	30.0	110.0	-1.1017483671528174	
0.7505318307640182	2005.0	1248.0	9.981544094247319	0.782019554430836	2010.0	-896.0	0.5493562231759657	9.53525444512569	-15552.0	0.745554874310239	1216.0	0.0	822.113037109375	26939.0	1258.0	0.7760869565217391	0.30505050505050507	-606.0	-0.5888223552894213	-466.0	-4.467751003398004	71.0	0.2524188066091795	35.0	247.0	-0.3659688777987196	
0.9208395361531689	2000.0	1246.0	10.001285354971644	0.8441610079473925	1996.0	-1152.0	0.7063151440833844	9.652973635806253	-15744.0	0.47087676272225626	768.0	0.0	841.644287109375	27579.0	1260.0	0.7804347826086957	0.3111111111111111	-603.0	-0.5708582834331338	-475.0	-2.522200748825177	9.0	0.48408747891160375	8.0	121.0	0.5575413991232329	
0.7140694712884518	2001.0	1243.0	10.042280241013783	0.8304550633880824	2013.0	-960.0	0.5885959534028203	9.613733905579398	-15680.0	0.5885959534028203	960.0	0.0	861.175537109375	28219.0	1255.0	0.7695652173913043	0.2909090909090909	-613.0	-0.5548902195608784	-483.0	4.037015907966848	106.0	1.0011201350786672	-53.0	-307.0	-0.9833359385473491	
0.7377240559855244	1999.0	1247.0	9.992549948945594	0.8542906918565398	2011.0	-960.0	0.5885959534028203	9.613733905579398	-15680.0	0.7063151440833844	1152.0	0.0	880.706787109375	28859.0	1260.0	0.7804347826086957	0.30303030303030304	-607.0	-0.5748502994011977	-473.0	5.744616386197615	194.0	1.2056723309330766	-71.0	-419.0	-2.338814985154752	
0.5064568656018742	2003.0	1248.0	9.985991591333335	0.8037196652922434	2030.0	-448.0	0.27467811158798283	9.613733905579398	-15680.0	0.6670754138565297	1088.0	0.0	900.238037109375	29499.0	1259.0	0.7782608695652175	0.30505050505050507	-606.0	-0.5908183632734532	-465.0	8.56017410981619	269.0	1.505112002238857	-101.0	-603.0	-3.5076549730373254	
0.408688118473822	2005.0	1252.0	9.939677222804992	0.7781824485935108	2038.0	-448.0	0.27467811158798283	9.574494175352545	-15616.0	0.627835683629675	1024.0	0.0	919.769287109375	30139.0	1256.0	0.7717391304347826	0.31313131313131315	-602.0	-0.5768463073852296	-472.0	8.015415476551752	239.0	1.8246263275062387	-121.0	-567.0	-3.045933622446126	
0.6035102196183715	2005.0	1254.0	9.911357236456702	0.7798474697414733	2022.0	-640.0	0.39239730226854685	9.45677498467198	-15424.0	0.5885959534028203	960.0	0.0	939.300537109375	30779.0	1258.0	0.7760869565217391	0.296969696969697	-610.0	-0.5429141716566867	-489.0	2.9039342719254524	159.0	2.071746202834813	-117.0	-233.0	-1.7780887723770493	
0.7252998831175065	2003.0	1253.0	9.920608429255836	0.8052542638466247	2012.0	-896.0	0.5493562231759657	9.496014714898834	-15488.0	0.6670754138565297	1088.0	0.0	958.831787109375	31419.0	1260.0	0.7804347826086957	0.30303030303030304	-607.0	-0.5728542914171657	-474.0	-1.6541534309818644	119.0	1.4800967850572755	-58.0	64.0	-1.1241428763365693	
0.846721056163073	1998.0	1252.0	9.929144317056867	0.8667947983105124	2002.0	-1216.0	0.745554874310239	9.53525444512569	-15552.0	0.7063151440833844	1152.0	0.0	978.363037109375	32059.0	1259.0	0.7782608695652175	0.2909090909090909	-613.0	-0.5568862275449102	-482.0	1.9065229875234917	168.0	0.6923684498320762	-20.0	-169.0	-1.9049967888105963	
0.871463841984385	1997.0	1248.0	9.97717443071	0.8795707200763412	2000.0	-1216.0	0.745554874310239	9.574494175352545	-15616.0	0.6670754138565297	1088.0	0.0	997.894287109375	32699.0	1262.0	0.7847826086956522	0.3111111111111111	-603.0	-0.5449101796407186	-488.0	8.082213223907626	239.0	0.830471956913958	-55.0	-572.0	-3.046601599919685	
0.8112348615583477	1999.0	1244.0	10.027643377840903	0.8553767342012212	2005.0	-1024.0	0.627835683629675	9.613733905579398	-15680.0	0.6670754138565297	1088.0	0.0	1017.425537109375	33339.0	1257.0	0.7739130434782608	0.30303030303030304	-607.0	-0.5828343313373254	-469.0	15.749620194280528	306.0	1.2071461054410726	-113.0	-1072.0	-4.142287076467521	
0.5798469998030662	2003.0	1246.0	10.008894773888398	0.8046825984598059	2024.0	-576.0	0.3531575720416922	9.574494175352545	-15616.0	0.5885959534028203	960.0	0.0	1036.956787109375	33979.0	1259.0	0.7782608695652175	0.296969696969697	-610.0	-0.5548902195608784	-483.0	21.23742552713124	347.0	1.1649803987647755	-134.0	-1430.0	-4.82073927428272	
0.2635994080538337	2006.0	1243.0	10.05258249511741	0.7658124214413508	2050.0	-192.0	0.11771919068056406	9.731453096259962	-15872.0	0.5885959534028203	960.0	0.0	1056.488037109375	34619.0	1258.0	0.7760869565217391	0.27070707070707073	-623.0	-0.5688622754491018	-476.0	19.195524775085076	351.0	1.1596051137019745	-124.0	-1297.0	-4.861156768663399	
0.10717040833095058	2010.0	1230.0	10.215210276143148	0.717681638170042	2063.0	64.0	-0.03923973022685469	9.849172286940528	-16064.0	0.5493562231759657	896.0	0.0	1076.019287109375	35259.0	1258.0	0.7760869565217391	0.2808080808080808	-618.0	-0.5788423153692616	-471.0	12.157280682301359	358.0	0.3643701353539709	-38.0	-839.0	-4.897238206062557	
0.09570944765642449	2013.0	1227.0	10.252742538516221	0.6817977728737744	2064.0	192.0	-0.11771919068056406	9.770692826486817	-15936.0	0.4316370324954016	704.0	0.0	1095.550537109375	35899.0	1256.0	0.7717391304347826	0.2868686868686869	-615.0	-0.5688622754491018	-476.0	0.881143597419728	380.0	-0.396647082925114	66.0	-105.0	-5.119077595670015	
0.31576565522704403	2016.0	1225.0	10.27340640581854	0.6480603953092509	2046.0	-256.0	0.15695892090741875	9.888412017167381	-16128.0	0.39239730226854685	640.0	0.0	1115.081787109375	36539.0	1258.0	0.7760869565217391	0.2767676767676768	-620.0	-0.5748502994011977	-473.0	-6.693390656188593	339.0	-0.29920006585284276	93.0	389.0	-4.41975810864724	
0.4142735420417912	2021.0	1222.0	10.30919957300221	0.5891624419938133	2038.0	-384.0	0.23543838136112813	9.809932556713672	-16000.0	0.4316370324954016	704.0	0.0	1134.613037109375	37179.0	1259.0	0.7782608695652175	0.2787878787878788	-619.0	-0.5808383233532934	-470.0	-5.957975974840613	274.0	0.1198164735258781	59.0	342.0	-3.4385190995671837	
0.41500404661025336	2024.0	1219.0	10.346485617021049	0.5533980291664333	2038.0	-448.0	0.27467811158798283	9.927651747394236	-16192.0	0.3531575720416922	576.0	0.0	1154.144287109375	37819.0	1257.0	0.7739130434782608	0.29494949494949496	-611.0	-0.5568862275449102	-482.0	-4.1681494147176625	223.0	0.2940530114305096	37.0	226.0	-2.680751965928869	
0.4400032866317354	2030.0	1220.0	10.335233543968535	0.48124634420961704	2036.0	-448.0	0.27467811158798283	9.888412017167381	-16128.0	0.23543838136112813	384.0	0.0	1173.675537109375	38459.0	1259.0	0.7782608695652175	0.29494949494949496	-611.0	-0.5528942115768464	-484.0	-4.52460596387063	171.0	0.6920250074623633	10.0	250.0	-1.8863128757225107	
0.4396412725168416	2030.0	1223.0	10.298662804947801	0.48087701667826077	2036.0	-512.0	0.3139178418148375	9.888412017167381	-16128.0	0.27467811158798283	448.0	0.0	1193.206787109375	39099.0	1252.0	0.7630434782608696	0.2909090909090909	-613.0	-0.5848303393213574	-468.0	-5.811563467827294	133.0	0.33868927406778737	38.0	334.0	-1.2954965326221075	
0.5483882948328949	2025.0	1226.0	10.25868392574209	0.5418056619647859	2027.0	-576.0	0.3531575720416922	9.770692826486817	-15936.0	0.4316370324954016	704.0	0.0	1212.738037109375	39739.0	1255.0	0.7695652173913043	0.28888888888888886	-614.0	-0.5528942115768464	-484.0	-6.173086013690812	88.0	0.33647481740437496	38.0	358.0	-0.6074706607756394	
0.48743096861795354	2025.0	1226.0	10.25991501751328	0.5412083996203483	2032.0	-512.0	0.3139178418148375	9.888412017167381	-16128.0	0.3531575720416922	576.0	0.0	1232.269287109375	40379.0	1260.0	0.7804347826086957	0.2909090909090909	-613.0	-0.5608782435129741	-480.0	-4.194067553866923	113.0	0.6337343630234435	10.0	229.0	-1.0074889822560076	
0.46219902097144183	2023.0	1231.0	10.198979352521798	0.564443109036137	2034.0	-512.0	0.3139178418148375	9.770692826486817	-15936.0	0.3139178418148375	512.0	0.0	1251.800537109375	41019.0	1257.0	0.7739130434782608	0.2909090909090909	-613.0	-0.6027944111776448	-459.0	-4.387759665129969	112.0	1.2013296076289999	-27.0	242.0	-0.9903429356680921	
0.4990233945619019	2027.0	1233.0	10.174813944776067	0.516376927610247	2031.0	-512.0	0.3139178418148375	9.731453096259962	-15872.0	0.3139178418148375	512.0	0.0	1271.331787109375	41659.0	1262.0	0.7847826086956522	0.2868686868686869	-615.0	-0.5548902195608784	-483.0	-4.279880888559998	130.0	1.51961439383258	-48.0	235.0	-1.2651859819889248	
0.5352336173964147	2026.0	1235.0	10.149456362033497	0.5285336467822508	2028.0	-640.0	0.39239730226854685	9.770692826486817	-15936.0	0.3139178418148375	512.0	0.0	1290.863037109375	42299.0	1258.0	0.7760869565217391	0.2909090909090909	-613.0	-0.5808383233532934	-470.0	-4.689244437986299	115.0	1.7938531853056203	-65.0	262.0	-1.0329554643653842	
0.7066381590280378	2026.0	1229.0	10.219150783115637	0.5309446364093884	2014.0	-960.0	0.5885959534028203	9.809932556713672	-16000.0	0.3139178418148375	512.0	0.0	1310.394287109375	42939.0	1256.0	0.7717391304347826	0.296969696969697	-610.0	-0.5848303393213574	-468.0	-4.210103615585348	102.0	1.9325062837968772	-77.0	231.0	-0.8400282414106864	
0.6219142118626256	2032.0	1230.0	10.210114675251264	0.4577178792325845	2021.0	-832.0	0.510116492949111	9.770692826486817	-15936.0	0.23543838136112813	384.0	0.0	1329.925537109375	43579.0	1259.0	0.7782608695652175	0.29494949494949496	-611.0	-0.5489021956087825	-486.0	-2.9453585067219596	144.0	1.6601363025447011	-63.0	148.0	-1.491458962461298	
0.5975334401562074	2033.0	1231.0	10.198655300618862	0.445311284998112	2023.0	-704.0	0.4316370324954016	9.731453096259962	-15872.0	0.23543838136112813	384.0	0.0	1349.456787109375	44219.0	1258.0	0.7760869565217391	0.296969696969697	-610.0	-0.5628742514970061	-479.0	-4.322988612367607	68.0	0.8702034065577189	-7.0	238.0	-0.3217891252831681	
0.7076078475602043	2028.0	1223.0	10.29276913115584	0.5075941312329435	2014.0	-768.0	0.47087676272225626	9.888412017167381	-16128.0	0.27467811158798283	448.0	0.0	1368.988037109375	44859.0	1250.0	0.7586956521739131	0.301010101010101	-608.0	-0.5828343313373254	-469.0	-4.544009872769786	3.0	0.8010652488015914	-4.0	253.0	0.6690142432143898	
0.6590984407884213	2035.0	1228.0	10.234471817867142	0.42218871463474833	2018.0	-832.0	0.510116492949111	9.809932556713672	-16000.0	0.15695892090741875	256.0	0.0	1388.519287109375	45499.0	1253.0	0.7652173913043478	0.3151515151515151	-601.0	-0.5548902195608784	-483.0	-2.6152410521331797	55.0	1.0882630173251508	-30.0	127.0	-0.1411479697068051	
0.5604742001611592	2032.0	1234.0	10.162584781661474	0.456628180179672	2026.0	-576.0	0.3531575720416922	9.652973635806253	-15744.0	0.23543838136112813	384.0	0.0	1408.050537109375	46139.0	1258.0	0.7760869565217391	0.29292929292929293	-612.0	-0.5788423153692616	-471.0	-1.176564276412616	-8.0	1.2646466962479257	-51.0	34.0	0.8026401674789551	
0.49818085374004134	2028.0	1241.0	10.077530409053479	0.5033474740737182	2031.0	-448.0	0.27467811158798283	9.652973635806253	-15744.0	0.3531575720416922	576.0	0.0	1427.581787109375	46779.0	1253.0	0.7652173913043478	0.30707070707070705	-605.0	-0.5848303393213574	-468.0	-2.6674642475212416	-87.0	1.3803225127276886	-55.0	132.0	2.01907007973757	
0.7165282330917994	2022.0	1244.0	10.035097129660262	0.5773957716998096	2013.0	-896.0	0.5493562231759657	9.613733905579398	-15680.0	0.4316370324954016	704.0	0.0	1447.113037109375	47419.0	1256.0	0.7717391304347826	0.301010101010101	-608.0	-0.5568862275449102	-482.0	-4.399691794269767	-99.0	1.4036301472644936	-49.0	245.0	2.218901860908477	
0.6927529770230956	2024.0	1241.0	10.072637175388207	0.5534370340542334	2015.0	-896.0	0.5493562231759657	9.574494175352545	-15616.0	0.3531575720416922	576.0	0.0	1466.644287109375	48059.0	1256.0	0.7717391304347826	0.30707070707070705	-605.0	-0.5568862275449102	-482.0	-1.7062162681552022	80.0	1.8198142127381174	-82.0	68.0	-0.5304663544287141	
0.6082574199235965	2024.0	1234.0	10.159692428249581	0.5534626310118521	2022.0	-704.0	0.4316370324954016	9.731453096259962	-15872.0	0.3531575720416922	576.0	0.0	1486.175537109375	48699.0	1253.0	0.7652173913043478	0.3212121212121212	-598.0	-0.56686626746507	-477.0	1.4007078974715093	184.0	2.536407470178989	-140.0	-135.0	-2.1432846455146395	
0.6452067824448043	2030.0	1237.0	10.123813644162341	0.4811841801696858	2019.0	-832.0	0.510116492949111	9.731453096259962	-15872.0	0.3139178418148375	512.0	0.0	1505.706787109375	49339.0	1255.0	0.7695652173913043	0.31313131313131315	-602.0	-0.5768463073852296	-472.0	3.5245355913439784	280.0	3.0466922544355977	-180.0	-274.0	-3.6245989680807402	
0.9496206055068259	2025.0	1235.0	10.140846502990055	0.5446396108440048	1994.0	-1152.0	0.7063151440833844	9.770692826486817	-15936.0	0.3139178418148375	512.0	0.0	1525.238037109375	49979.0	1258.0	0.7760869565217391	0.296969696969697	-610.0	-0.5828343313373254	-469.0	12.678618104213824	194.0	3.96144662095435	-287.0	-869.0	-2.408155002334914	
0.2432504435410857	2030.0	1234.0	10.168509588872913	0.4776115762277543	2052.0	-128.0	0.07847946045370938	9.770692826486817	-15936.0	0.23543838136112813	384.0	0.0	1544.769287109375	50619.0	1253.0	0.7652173913043478	0.2828282828282828	-617.0	-0.62874251497006	-446.0	24.20079183957734	346.0	4.3464275854759755	-360.0	-1621.0	-4.835163811931896	
0.3050567869165622	2032.0	1229.0	10.228706598801683	0.4547352242186281	2047.0	-192.0	0.11771919068056406	9.809932556713672	-16000.0	0.23543838136112813	384.0	0.0	1564.300537109375	51259.0	1250.0	0.7586956521739131	0.2909090909090909	-613.0	-0.6067864271457086	-457.0	17.41824195415798	306.0	3.8496307206087743	-297.0	-1179.0	-4.158973294066295	
0.18375628524262694	2037.0	1229.0	10.232360957340896	0.3933177989318592	2057.0	0.0	0.0	9.809932556713672	-16000.0	0.19619865113427343	320.0	0.0	1583.831787109375	51899.0	1257.0	0.7739130434782608	0.2828282828282828	-617.0	-0.594810379241517	-463.0	6.756496074569204	231.0	3.196735520070963	-207.0	-484.0	-2.911671424624019	
0.5614438886933257	2034.0	1228.0	10.236203129701675	0.433277675003227	2026.0	-640.0	0.39239730226854685	9.770692826486817	-15936.0	0.19619865113427343	320.0	0.0	1603.363037109375	52539.0	1253.0	0.7652173913043478	0.296969696969697	-610.0	-0.5928143712574852	-464.0	-2.983358238072106	124.0	2.1603589109027252	-97.0	151.0	-1.1868964556420927	
0.4759743255025438	2030.0	1225.0	10.2735436572046	0.4809891557306858	2033.0	-448.0	0.27467811158798283	9.888412017167381	-16128.0	0.3139178418148375	512.0	0.0	1622.894287109375	53179.0	1258.0	0.7760869565217391	0.29292929292929293	-612.0	-0.5628742514970061	-479.0	-2.6477214550794397	29.0	2.0492189065041	-95.0	130.0	0.254614096680072	
0.31664489530139417	2032.0	1234.0	10.167509148746223	0.4542391308019218	2046.0	-320.0	0.19619865113427343	9.731453096259962	-15872.0	0.27467811158798283	448.0	0.0	1642.425537109375	53819.0	1254.0	0.7673913043478261	0.2808080808080808	-618.0	-0.564870259481038	-478.0	0.5825587881545999	10.0	2.487495134879461	-140.0	-80.0	0.5112846782781498	
0.5601100272667072	2031.0	1236.0	10.137965853981617	0.4684265419450132	2026.0	-576.0	0.3531575720416922	9.692213366033108	-15808.0	0.3139178418148375	512.0	0.0	1661.956787109375	54459.0	1257.0	0.7739130434782608	0.29292929292929293	-612.0	-0.5708582834331338	-475.0	-2.392613537403289	-115.0	2.3486564338955973	-122.0	115.0	2.4421770859443757	
0.5100038285294612	2025.0	1241.0	10.076568885701137	0.539600666901342	2030.0	-640.0	0.39239730226854685	9.652973635806253	-15744.0	0.3531575720416922	576.0	0.0	1681.488037109375	55099.0	1256.0	0.7717391304347826	0.2808080808080808	-618.0	-0.5708582834331338	-475.0	-3.2884426069862407	-175.0	2.4044892434941385	-124.0	174.0	3.363682905157315	
0.4852653602672655	2028.0	1247.0	10.004635149366248	0.5024893665421182	2032.0	-576.0	0.3531575720416922	9.45677498467198	-15424.0	0.27467811158798283	448.0	0.0	1701.019287109375	55739.0	1252.0	0.7630434782608696	0.2727272727272727	-622.0	-0.596806387225549	-462.0	-3.0342622435983633	-164.0	1.8987376817233117	-91.0	157.0	3.1938407212952997	
0.5452465216113657	2023.0	1250.0	9.965641143577487	0.5629402019530932	2027.0	-576.0	0.3531575720416922	9.496014714898834	-15488.0	0.3531575720416922	576.0	0.0	1720.550537109375	56379.0	1251.0	0.7608695652173914	0.298989898989899	-609.0	-0.5768463073852296	-472.0	-3.706432263278694	-174.0	2.059377094887956	-99.0	201.0	3.352653676244955	
0.4967176858235588	2021.0	1246.0	10.01491013235668	0.5870439890251757	2031.0	-576.0	0.3531575720416922	9.574494175352545	-15616.0	0.39239730226854685	640.0	0.0	1740.081787109375	57019.0	1259.0	0.7782608695652175	0.29494949494949496	-611.0	-0.5748502994011977	-473.0	-3.312891407750643	-130.0	2.1786947421647134	-107.0	175.0	2.6795167467771264	
0.5095146667042616	2022.0	1242.0	10.06366333436279	0.5756112980829595	2030.0	-512.0	0.3139178418148375	9.692213366033108	-15808.0	0.39239730226854685	640.0	0.0	1759.613037109375	57659.0	1260.0	0.7804347826086957	0.2909090909090909	-613.0	-0.5868263473053893	-467.0	-2.639855058383578	-28.0	1.9690170879660398	-92.0	130.0	1.1214555848043681	
0.4612379675575082	2025.0	1241.0	10.077553759118087	0.539122857025792	2034.0	-448.0	0.27467811158798283	9.652973635806253	-15744.0	0.3531575720416922	576.0	0.0	1779.144287109375	58299.0	1255.0	0.7695652173913043	0.301010101010101	-608.0	-0.5808383233532934	-470.0	-2.175898692328654	60.0	2.1251943802947544	-101.0	99.0	-0.22158702068127623	
0.5106071853876175	2025.0	1236.0	10.13752011740236	0.5402162127869358	2030.0	-576.0	0.3531575720416922	9.731453096259962	-15872.0	0.3139178418148375	512.0	0.0	1798.675537109375	58939.0	1263.0	0.7869565217391304	0.29494949494949496	-611.0	-0.5728542914171657	-474.0	-2.372590833750238	58.0	2.377547483269689	-117.0	112.0	-0.18920184831649003	
0.5351237399225744	2031.0	1241.0	10.07750705898887	0.46757209112164444	2028.0	-576.0	0.3531575720416922	9.692213366033108	-15808.0	0.23543838136112813	384.0	0.0	1818.206787109375	59579.0	1258.0	0.7760869565217391	0.28484848484848485	-616.0	-0.5928143712574852	-464.0	-3.5267909145819267	-12.0	2.5352342875497835	-125.0	188.0	0.886978935761789	
0.6693397350692855	2026.0	1235.0	10.146747960136885	0.5298476239400134	2017.0	-704.0	0.4316370324954016	9.652973635806253	-15744.0	0.27467811158798283	448.0	0.0	1837.738037109375	60219.0	1255.0	0.7695652173913043	0.3090909090909091	-604.0	-0.5628742514970061	-479.0	-3.2461125028875526	-20.0	2.85565973615066	-148.0	170.0	1.0058451554471266	
0.6445947904684153	2026.0	1238.0	10.110669657824626	0.5292393914708821	2019.0	-896.0	0.5493562231759657	9.770692826486817	-15936.0	0.3139178418148375	512.0	0.0	1857.269287109375	60859.0	1261.0	0.782608695652174	0.30707070707070705	-605.0	-0.5608782435129741	-480.0	-3.319602544385564	-22.0	1.6151801019064462	-65.0	174.0	1.0369983068126771	
0.6684885591291921	2023.0	1239.0	10.097271669777802	0.5654889275902746	2017.0	-832.0	0.510116492949111	9.692213366033108	-15808.0	0.3531575720416922	576.0	0.0	1876.800537109375	61499.0	1258.0	0.7760869565217391	0.298989898989899	-609.0	-0.6007984031936129	-460.0	-3.4260106632546816	-47.0	1.3375119140381848	-47.0	181.0	1.4182905248834974	
0.5963072974238709	2024.0	1232.0	10.184319139284307	0.5535893968972021	2023.0	-640.0	0.39239730226854685	9.731453096259962	-15872.0	0.3531575720416922	576.0	0.0	1896.331787109375	62139.0	1249.0	0.7565217391304347	0.29494949494949496	-611.0	-0.6107784431137725	-455.0	-2.7735896026034195	-16.0	1.0560901600880697	-30.0	138.0	0.9402834245431446	
0.510611502946734	2027.0	1238.0	10.113616494720606	0.5158808341935407	2030.0	-576.0	0.3531575720416922	9.53525444512569	-15552.0	0.39239730226854685	640.0	0.0	1915.863037109375	62779.0	1257.0	0.7739130434782608	0.301010101010101	-608.0	-0.5528942115768464	-484.0	-3.1911571129522334	-84.0	1.2386865862412089	-43.0	166.0	1.9786796319660245	
0.4990298709005765	2030.0	1236.0	10.138958510753437	0.47987385972015445	2031.0	-448.0	0.27467811158798283	9.731453096259962	-15872.0	0.3139178418148375	512.0	0.0	1935.394287109375	63419.0	1258.0	0.7760869565217391	0.296969696969697	-610.0	-0.5808383233532934	-470.0	-3.7538983502778667	-101.0	1.492398727257768	-58.0	203.0	2.242862177419129	
0.5702328089554984	2023.0	1245.0	10.026099938570235	0.563794652776462	2025.0	-640.0	0.39239730226854685	9.613733905579398	-15680.0	0.27467811158798283	448.0	0.0	1954.925537109375	64059.0	1254.0	0.7673913043478261	0.30505050505050507	-606.0	-0.5688622754491018	-476.0	-4.672106339756085	-123.0	1.4229819429221933	-50.0	263.0	2.5866450177701847	
0.6554588706234596	2026.0	1249.0	9.976330729727698	0.5280046429914633	2018.0	-832.0	0.510116492949111	9.574494175352545	-15616.0	0.3139178418148375	512.0	0.0	1974.456787109375	64699.0	1258.0	0.7760869565217391	0.28888888888888886	-614.0	-0.5908183632734532	-465.0	-4.6898373657800345	-84.0	1.7777773405336759	-72.0	264.0	1.9936664344943023	
0.6676438595277733	2023.0	1246.0	10.01193994539609	0.5646271633504434	2017.0	-768.0	0.47087676272225626	9.574494175352545	-15616.0	0.39239730226854685	640.0	0.0	1993.988037109375	65339.0	1260.0	0.7804347826086957	0.30303030303030304	-607.0	-0.5988023952095809	-461.0	-3.379559178474619	-11.0	1.9258951738106886	-85.0	178.0	0.8702974929254307	
0.6560708625998487	2030.0	1248.0	9.989474716065414	0.479949431690267	2018.0	-768.0	0.47087676272225626	9.652973635806253	-15744.0	0.19619865113427343	320.0	0.0	2013.519287109375	443.0	1254.0	0.7673913043478261	0.3111111111111111	-603.0	-0.5568862275449102	-482.0	-3.1010808818558413	-7.0	2.2087966194045863	-105.0	160.0	0.8066762080581023	
0.6049949753304361	2022.0	1259.0	9.854459399744734	0.5744740618230406	2022.0	-640.0	0.39239730226854685	9.496014714898834	-15488.0	0.39239730226854685	640.0	0.0	2033.050537109375	1083.0	1254.0	0.7673913043478261	0.298989898989899	-609.0	-0.5608782435129741	-480.0	-5.173769120951561	-32.0	1.7531389491934517	-66.0	295.0	1.2076312273311887	
0.8369926702825486	2021.0	1255.0	9.898303801375828	0.5892806755599571	2003.0	-1216.0	0.745554874310239	9.45677498467198	-15424.0	0.4316370324954016	704.0	0.0	2052.581787109375	1723.0	1253.0	0.7652173913043478	0.3212121212121212	-598.0	-0.5848303393213574	-468.0	-5.852523828590193	-2.0	1.8636087386598206	-69.0	339.0	0.7581450101490198	
0.8016271470494546	2022.0	1246.0	10.00899310850011	0.5779857206277846	2006.0	-1088.0	0.6670754138565297	9.613733905579398	-15680.0	0.3531575720416922	576.0	0.0	2072.113037109375	2363.0	1254.0	0.7673913043478261	0.30707070707070705	-605.0	-0.6047904191616768	-458.0	-3.3239100214545396	126.0	1.9004204738497725	-78.0	173.0	-1.213909188758839	
0.704709575861496	2027.0	1246.0	10.012155030330849	0.5168072002787908	2014.0	-896.0	0.5493562231759657	9.613733905579398	-15680.0	0.3531575720416922	576.0	0.0	2091.644287109375	3003.0	1259.0	0.7782608695652175	0.3191919191919192	-599.0	-0.5828343313373254	-469.0	-2.578612458508856	246.0	1.5167539645507213	-51.0	123.0	-3.0464572214225165	
0.6200976649494822	2029.0	1242.0	10.063116414170226	0.4923743094658957	2021.0	-640.0	0.39239730226854685	9.613733905579398	-15680.0	0.27467811158798283	448.0	0.0	2111.175537109375	3643.0	1251.0	0.7608695652173914	0.3090909090909091	-604.0	-0.5928143712574852	-464.0	-3.080723466551832	237.0	1.8160906730056767	-69.0	156.0	-2.90455398206452	
0.6211837072941635	2029.0	1233.0	10.172828631232427	0.4934822920599645	2021.0	-704.0	0.4316370324954016	9.849172286940528	-16064.0	0.23543838136112813	384.0	0.0	2130.706787109375	4283.0	1250.0	0.7586956521739131	0.2909090909090909	-613.0	-0.5808383233532934	-470.0	-3.7094447553990464	161.0	2.248396541960228	-98.0	198.0	-1.7423732330543746	
0.6455731141188146	2032.0	1236.0	10.136480760501321	0.45721812910764703	2019.0	-896.0	0.5493562231759657	9.731453096259962	-15872.0	0.27467811158798283	448.0	0.0	2150.238037109375	4923.0	1256.0	0.7717391304347826	0.30303030303030304	-607.0	-0.5608782435129741	-480.0	-4.259494496145575	95.0	3.0261381075639826	-150.0	235.0	-0.733070454278088	
0.7057977769857355	2028.0	1238.0	10.109915436052173	0.5057474935761621	2014.0	-960.0	0.5885959534028203	9.692213366033108	-15808.0	0.3139178418148375	512.0	0.0	2169.769287109375	5563.0	1252.0	0.7630434782608696	0.31717171717171716	-600.0	-0.5808383233532934	-470.0	-3.5946579358093365	21.0	3.9243517189340476	-216.0	193.0	0.3857564652896523	
0.8028511310022329	2030.0	1244.0	10.035281081175542	0.4818752980253921	2006.0	-1024.0	0.627835683629675	9.652973635806253	-15744.0	0.23543838136112813	384.0	0.0	2189.300537109375	6203.0	1259.0	0.7782608695652175	0.31717171717171716	-600.0	-0.5708582834331338	-475.0	-5.9295925651620225	-9.0	3.259017016167852	-162.0	345.0	0.8653795758417343	
1.071175402601373	2026.0	1239.0	10.089861769086069	0.5332971187048261	1984.0	-1408.0	0.8632740649908032	9.652973635806253	-15744.0	0.27467811158798283	448.0	0.0	2208.831787109375	6843.0	1254.0	0.7673913043478261	0.3111111111111111	-603.0	-0.6007984031936129	-460.0	-7.043470522783034	-16.0	2.267816600768253	-91.0	417.0	0.9829822337449406	
0.8406408755657431	2034.0	1238.0	10.108637644151768	0.4347939900164521	2003.0	-960.0	0.5885959534028203	9.770692826486817	-15936.0	0.19619865113427343	320.0	0.0	2228.363037109375	7483.0	1252.0	0.7630434782608696	0.32727272727272727	-595.0	-0.5848303393213574	-468.0	-3.9956736812470006	105.0	1.9343995591720882	-78.0	217.0	-0.8877999171799255	
0.9131560872517014	2020.0	1229.0	10.213534461097392	0.6052428090979487	1997.0	-1280.0	0.7847946045370937	9.770692826486817	-15936.0	0.39239730226854685	640.0	0.0	2247.894287109375	8123.0	1248.0	0.7543478260869565	0.3232323232323232	-597.0	-0.5988023952095809	-461.0	-5.269977770054351	-30.0	1.3712467037577543	-40.0	301.0	1.1781750628716463	
0.875747785819109	2025.0	1241.0	10.06918233507401	0.5431842409679672	2000.0	-1280.0	0.7847946045370937	9.692213366033108	-15808.0	0.3139178418148375	512.0	0.0	2267.425537109375	8763.0	1253.0	0.7652173913043478	0.31717171717171716	-600.0	-0.6047904191616768	-458.0	-4.201708453429401	27.0	1.6314220403668267	-60.0	231.0	0.30057221761414193	
0.8516061980763949	2025.0	1239.0	10.094055264462975	0.5431915543844297	2002.0	-1088.0	0.6670754138565297	9.692213366033108	-15808.0	0.3531575720416922	576.0	0.0	2286.956787109375	9403.0	1253.0	0.7652173913043478	0.3393939393939394	-589.0	-0.5868263473053893	-467.0	-4.420980206660908	50.0	1.5407357198439944	-52.0	245.0	-0.047044950785101965	
1.0467924721153963	2026.0	1239.0	10.090354205794544	0.533058213767051	1986.0	-1472.0	0.9025137952176578	9.731453096259962	-15872.0	0.3139178418148375	512.0	0.0	2306.488037109375	10043.0	1252.0	0.7630434782608696	0.33535353535353535	-591.0	-0.5568862275449102	-482.0	-5.253155659687214	67.0	1.4590722992165597	-42.0	299.0	-0.2972783293346868	
0.9368279421852397	2026.0	1241.0	10.068189678302192	0.531736923192826	1995.0	-1216.0	0.745554874310239	9.692213366033108	-15808.0	0.27467811158798283	448.0	0.0	2326.019287109375	10683.0	1259.0	0.7782608695652175	0.3191919191919192	-599.0	-0.5868263473053893	-467.0	-3.243068739861086	140.0	0.9887683022813456	-17.0	167.0	-1.4276453582287656	
1.0477664782066793	2030.0	1235.0	10.140068931152992	0.485372329997211	1986.0	-1344.0	0.8240343347639485	9.770692826486817	-15936.0	0.3139178418148375	512.0	0.0	2345.550537109375	11323.0	1254.0	0.7673913043478261	0.33131313131313134	-593.0	-0.5908183632734532	-465.0	-2.1797743289114475	189.0	0.629730318500165	4.0	97.0	-2.1835254506272355	
0.8294212576344796	2037.0	1233.0	10.170550399205332	0.39915634307442205	2004.0	-1088.0	0.6670754138565297	9.692213366033108	-15808.0	0.19619865113427343	320.0	0.0	2365.081787109375	11963.0	1257.0	0.7739130434782608	0.3393939393939394	-589.0	-0.5548902195608784	-483.0	-0.3341682487746754	208.0	1.307437769334537	-49.0	-23.0	-2.4909548954590215	
0.804180674869735	2031.0	1234.0	10.157421979577355	0.47106180967700084	2006.0	-1152.0	0.7063151440833844	9.809932556713672	-16000.0	0.23543838136112813	384.0	0.0	2384.613037109375	12603.0	1256.0	0.7717391304347826	0.32525252525252524	-596.0	-0.564870259481038	-478.0	-0.5862854981862294	150.0	1.3046924625390455	-50.0	-6.0	-1.606304445398366	
1.071668881985689	2031.0	1240.0	10.078863697742662	0.4729511089298135	1984.0	-1536.0	0.9417535254445125	9.652973635806253	-15744.0	0.27467811158798283	448.0	0.0	2404.144287109375	13243.0	1255.0	0.7695652173913043	0.33535353535353535	-591.0	-0.5728542914171657	-474.0	-2.7704331285472796	87.0	1.4033896376663302	-49.0	137.0	-0.6262880641517896	
1.4125385881846024	2027.0	1240.0	10.07101584382654	0.5244740985369788	1956.0	-2176.0	1.3341508277130594	9.692213366033108	-15808.0	0.27467811158798283	448.0	0.0	2423.675537109375	13883.0	1258.0	0.7760869565217391	0.32727272727272727	-595.0	-0.5608782435129741	-480.0	4.829039676901589	-7.0	1.7468152510038244	-111.0	-357.0	0.7273750024705279	
0.7898106485987093	2028.0	1249.0	9.97409919782982	0.5052294599100683	2007.0	-1024.0	0.627835683629675	9.574494175352545	-15616.0	0.23543838136112813	384.0	0.0	2443.206787109375	14523.0	1256.0	0.7717391304347826	0.3212121212121212	-598.0	-0.594810379241517	-463.0	21.065246134864005	154.0	2.498829995617463	-230.0	-1416.0	-1.883656263630009	
0.5709697898626352	2029.0	1245.0	10.027530548566443	0.49152717205898944	2025.0	-640.0	0.39239730226854685	9.613733905579398	-15680.0	0.19619865113427343	320.0	0.0	2462.738037109375	15163.0	1252.0	0.7630434782608696	0.3191919191919192	-599.0	-0.5868263473053893	-467.0	22.112395944957232	126.0	2.423906652050781	-231.0	-1484.0	-1.4682722484229564	
0.3995609306718958	2027.0	1249.0	9.981739750166053	0.5134515610252468	2039.0	-384.0	0.23543838136112813	9.574494175352545	-15616.0	0.27467811158798283	448.0	0.0	2482.269287109375	15803.0	1256.0	0.7717391304347826	0.31313131313131315	-602.0	-0.5748502994011977	-473.0	14.477106075131065	107.0	1.3845435018243684	-127.0	-987.0	-1.1029459656942764	
0.5827970822111715	2028.0	1247.0	10.002665402532347	0.5034449862932182	2024.0	-704.0	0.4316370324954016	9.613733905579398	-15680.0	0.3139178418148375	512.0	0.0	2501.800537109375	16443.0	1255.0	0.7695652173913043	0.30707070707070705	-605.0	-0.6027944111776448	-459.0	0.7396247720071683	45.0	0.30895057084233496	6.0	-92.0	-0.022605373195356854	
0.93633878036004	2023.0	1242.0	10.055284126963844	0.5677475543744435	1995.0	-1152.0	0.7063151440833844	9.652973635806253	-15744.0	0.3139178418148375	512.0	0.0	2521.331787109375	17083.0	1253.0	0.7652173913043478	0.3232323232323232	-597.0	-0.5908183632734532	-465.0	-8.361225390832324	-38.0	-0.9222175079252213	127.0	501.0	1.3307605428817073	
0.7902803814078851	2022.0	1239.0	10.09457105123606	0.5787280323987285	2007.0	-1024.0	0.627835683629675	9.613733905579398	-15680.0	0.3531575720416922	576.0	0.0	2540.863037109375	17723.0	1256.0	0.7717391304347826	0.3191919191919192	-599.0	-0.5768463073852296	-472.0	-5.750062404317612	-43.0	-0.7921536981710576	106.0	331.0	1.380694540392986	
0.8153938164623239	2025.0	1236.0	10.131364658546422	0.5432025245091234	2005.0	-1088.0	0.6670754138565297	9.692213366033108	-15808.0	0.3531575720416922	576.0	0.0	2560.394287109375	18363.0	1259.0	0.7782608695652175	0.30505050505050507	-606.0	-0.5908183632734532	-465.0	-2.1644155191291836	56.0	0.14295119661140215	31.0	97.0	-0.16086535051213025	
0.9505902940389924	2027.0	1229.0	10.214464851030256	0.5212891056675598	1994.0	-1216.0	0.745554874310239	9.731453096259962	-15872.0	0.39239730226854685	640.0	0.0	2579.925537109375	19003.0	1252.0	0.7630434782608696	0.3292929292929293	-594.0	-0.5588822355289422	-481.0	0.4352142122303376	128.0	0.2906768198919935	12.0	-73.0	-1.2819186820462578	
0.7693043134618406	2035.0	1224.0	10.281016838039983	0.42375622356321085	2009.0	-1024.0	0.627835683629675	9.966891477621092	-16256.0	0.19619865113427343	320.0	0.0	2599.456787109375	19643.0	1256.0	0.7717391304347826	0.3232323232323232	-597.0	-0.5608782435129741	-480.0	6.047204471250868	267.0	0.34446512546177255	-12.0	-440.0	-3.452107025701102	
0.6354416973117905	2036.0	1223.0	10.296153921276208	0.4105207754629883	2020.0	-768.0	0.47087676272225626	9.927651747394236	-16192.0	0.23543838136112813	384.0	0.0	2618.988037109375	20283.0	1255.0	0.7695652173913043	0.3090909090909091	-604.0	-0.6087824351297406	-456.0	9.427424697800857	252.0	0.48988141985999656	-38.0	-660.0	-3.2577723458373242	
0.4767199415279135	2040.0	1229.0	10.2271670218373	0.3600509178264231	2033.0	-384.0	0.23543838136112813	9.731453096259962	-15872.0	0.15695892090741875	256.0	0.0	2638.519287109375	20923.0	1250.0	0.7586956521739131	0.298989898989899	-609.0	-0.6247504990019961	-448.0	9.639391324862277	176.0	0.578817838652914	-48.0	-673.0	-2.1039984759862658	
0.5013463735367107	2041.0	1228.0	10.239103266468437	0.34836835182173814	2031.0	-512.0	0.3139178418148375	9.770692826486817	-15936.0	0.07847946045370938	128.0	0.0	2658.050537109375	21563.0	1256.0	0.7717391304347826	0.301010101010101	-608.0	-0.5868263473053893	-467.0	-4.433937876804314	31.0	-0.044134255228464536	53.0	245.0	0.2420580099467504	
0.87794577586317	2037.0	1235.0	10.145185033107893	0.39938793459573463	2000.0	-1088.0	0.6670754138565297	9.731453096259962	-15872.0	0.15695892090741875	256.0	0.0	2677.581787109375	22203.0	1258.0	0.7760869565217391	0.3090909090909091	-604.0	-0.594810379241517	-463.0	-5.525859993427849	31.0	-0.26798655087398526	73.0	316.0	0.2529772311129857	
0.6953237750798414	2041.0	1237.0	10.125451555738437	0.34917160872986946	2015.0	-832.0	0.510116492949111	9.731453096259962	-15872.0	0.11771919068056406	192.0	0.0	2697.113037109375	22843.0	1255.0	0.7695652173913043	0.2808080808080808	-618.0	-0.5608782435129741	-480.0	-1.7319604402300737	124.0	-0.08565891555721522	47.0	68.0	-1.199410433620513	
0.6465665492261213	2045.0	1241.0	10.07862918379188	0.30002304166752936	2019.0	-704.0	0.4316370324954016	9.652973635806253	-15744.0	0.0	0.0	0.0	2716.644287109375	23483.0	1257.0	0.7739130434782608	0.3111111111111111	-603.0	-0.5848303393213574	-468.0	-2.7671795256559166	100.0	0.39158167727967585	19.0	136.0	-0.8240392313594106	
0.647902569432298	2049.0	1234.0	10.164914648171063	0.2527064854290456	2019.0	-768.0	0.47087676272225626	9.770692826486817	-15936.0	0.03923973022685469	64.0	0.0	2736.175537109375	24123.0	1255.0	0.7695652173913043	0.3151515151515151	-601.0	-0.6047904191616768	-458.0	-4.733167862932621	98.0	0.2123551568054671	40.0	264.0	-0.7739610970360731	
0.7198446471739149	2049.0	1244.0	10.041534874643192	0.25219210847118306	2013.0	-768.0	0.47087676272225626	9.652973635806253	-15744.0	0.11771919068056406	192.0	0.0	2755.706787109375	24763.0	1256.0	0.7717391304347826	0.301010101010101	-608.0	-0.596806387225549	-462.0	-7.1479107906027535	50.0	0.5011447811400201	30.0	422.0	-0.0197756449456835	
0.7794551592848885	2040.0	1246.0	10.013777375197206	0.3609443735375919	2008.0	-1088.0	0.6670754138565297	9.652973635806253	-15744.0	0.15695892090741875	256.0	0.0	2775.238037109375	25403.0	1256.0	0.7717391304347826	0.31313131313131315	-602.0	-0.5608782435129741	-480.0	-6.0558192966015385	55.0	0.8179821357038669	4.0	351.0	-0.1067421872621215	
0.7292304479555695	2035.0	1253.0	9.928238349235604	0.4198277000201044	2012.0	-896.0	0.5493562231759657	9.574494175352545	-15616.0	0.15695892090741875	256.0	0.0	2794.769287109375	26043.0	1253.0	0.7652173913043478	0.32727272727272727	-595.0	-0.5928143712574852	-464.0	-4.505267150259272	98.0	1.5158335970384842	-48.0	250.0	-0.7762401041628066	
0.7906769359957103	2038.0	1252.0	9.939912808802765	0.3844143311829244	2007.0	-1152.0	0.7063151440833844	9.53525444512569	-15552.0	0.11771919068056406	192.0	0.0	2814.300537109375	26683.0	1251.0	0.7608695652173914	0.30505050505050507	-606.0	-0.5748502994011977	-473.0	-3.5660206643801793	84.0	1.6068624725845249	-59.0	189.0	-0.5727048123676051	
0.7537318910336189	2034.0	1251.0	9.95188797020825	0.4323574034316957	2010.0	-960.0	0.5885959534028203	9.53525444512569	-15552.0	0.19619865113427343	320.0	0.0	2833.831787109375	27323.0	1255.0	0.7695652173913043	0.3151515151515151	-601.0	-0.564870259481038	-478.0	-3.991958789240777	59.0	1.6063061368514115	-58.0	217.0	-0.1882172942368698	
0.8758900449863223	2035.0	1250.0	9.961854468005487	0.42163045717811076	2000.0	-1152.0	0.7063151440833844	9.53525444512569	-15552.0	0.19619865113427343	320.0	0.0	2853.363037109375	27963.0	1250.0	0.7586956521739131	0.298989898989899	-609.0	-0.6067864271457086	-457.0	-5.441866956262245	61.0	0.9138337766634539	-5.0	311.0	-0.20413646351722547	
1.0466804358619979	2030.0	1244.0	10.030356714090791	0.48426434740314217	1986.0	-1408.0	0.8632740649908032	9.692213366033108	-15808.0	0.23543838136112813	384.0	0.0	2872.894287109375	28603.0	1259.0	0.7782608695652175	0.33131313131313134	-593.0	-0.5788423153692616	-471.0	-4.730064998787478	87.0	0.355372219733099	30.0	264.0	-0.6066917454493876	
0.9375670818719347	2033.0	1242.0	10.057668476957522	0.4473017531786559	1995.0	-1280.0	0.7847946045370937	9.652973635806253	-15744.0	0.19619865113427343	320.0	0.0	2892.425537109375	29243.0	1256.0	0.7717391304347826	0.3232323232323232	-597.0	-0.5568862275449102	-482.0	-1.846705006498308	189.0	0.17176608496455845	33.0	75.0	-2.186856143851367	
0.8768489396206977	2032.0	1239.0	10.095231872750075	0.4591183984851534	2000.0	-1152.0	0.7063151440833844	9.574494175352545	-15616.0	0.15695892090741875	256.0	0.0	2911.956787109375	29883.0	1255.0	0.7695652173913043	0.32727272727272727	-595.0	-0.6067864271457086	-457.0	-0.931926892969229	215.0	-0.04100252247215416	44.0	15.0	-2.5914411873440724	
0.7314046914244903	2036.0	1236.0	10.13571097201913	0.4098759759115445	2012.0	-896.0	0.5493562231759657	9.692213366033108	-15808.0	0.23543838136112813	384.0	0.0	2931.488037109375	30523.0	1249.0	0.7565217391304347	0.33131313131313134	-593.0	-0.6087824351297406	-456.0	-1.6364109195811114	207.0	-0.011829858120184333	45.0	61.0	-2.462723343275672	
0.781142399708168	2039.0	1231.0	10.196392635301507	0.37483559131395205	2008.0	-960.0	0.5885959534028203	9.809932556713672	-16000.0	0.23543838136112813	384.0	0.0	2951.019287109375	31163.0	1257.0	0.7739130434782608	0.3292929292929293	-594.0	-0.5788423153692616	-471.0	-3.7158100377371883	166.0	0.1529308659683888	42.0	197.0	-1.818355207607419	
0.8421148373800167	2046.0	1238.0	10.111498864144181	0.290259028581507	2003.0	-1152.0	0.7063151440833844	9.692213366033108	-15808.0	0.07847946045370938	128.0	0.0	2970.550537109375	31803.0	1249.0	0.7565217391304347	0.3414141414141414	-588.0	-0.6007984031936129	-460.0	-4.734067759426477	136.0	0.700303276515777	9.0	264.0	-1.351898866131971	
0.9040353757884497	2045.0	1229.0	10.219741554435826	0.30400885363959207	1998.0	-1216.0	0.745554874310239	9.849172286940528	-16064.0	0.03923973022685469	64.0	0.0	2990.081787109375	32443.0	1253.0	0.7652173913043478	0.3434343434343434	-587.0	-0.56686626746507	-477.0	-4.190046283383745	107.0	0.9446468711943907	-11.0	229.0	-0.9162744421091283	
0.8784500491452771	2047.0	1241.0	10.074427905060103	0.27820347833723447	2000.0	-1088.0	0.6670754138565297	9.652973635806253	-15744.0	0.07847946045370938	128.0	0.0	3009.613037109375	33083.0	1254.0	0.7673913043478261	0.3292929292929293	-594.0	-0.594810379241517	-463.0	-4.402225216523908	105.0	1.1830853511248123	-26.0	243.0	-0.8837344018271565	
0.9874448905432675	2045.0	1245.0	10.022974084512251	0.3028752740879045	1991.0	-1344.0	0.8240343347639485	9.613733905579398	-15680.0	0.11771919068056406	192.0	0.0	3029.144287109375	33723.0	1248.0	0.7543478260869565	0.3151515151515151	-601.0	-0.6187624750499002	-451.0	-3.9199854442949342	80.0	1.4491549162130353	-47.0	212.0	-0.5083286626673169	
1.1210618463909385	2042.0	1246.0	10.007360131277292	0.3401998824272846	1980.0	-1728.0	1.0594727161250765	9.574494175352545	-15616.0	0.15695892090741875	256.0	0.0	3048.675537109375	34363.0	1258.0	0.7760869565217391	0.34545454545454546	-586.0	-0.5628742514970061	-479.0	1.532904511506594	47.0	1.394385315868769	-70.0	-143.0	-0.06095642154092146	
0.8897946560072885	2046.0	1247.0	10.00080177366503	0.28962885586298814	1999.0	-1152.0	0.7063151440833844	9.692213366033108	-15808.0	0.11771919068056406	192.0	0.0	3068.206787109375	35003.0	1252.0	0.7630434782608696	0.33131313131313134	-593.0	-0.5748502994011977	-473.0	7.114556829641061	95.0	1.634803985364195	-110.0	-507.0	-0.8468109675359544	
0.7792267692189753	2046.0	1254.0	9.917686014471455	0.2876920194031693	2008.0	-1088.0	0.6670754138565297	9.53525444512569	-15552.0	0.11771919068056406	192.0	0.0	3087.738037109375	35643.0	1248.0	0.7543478260869565	0.3393939393939394	-589.0	-0.5868263473053893	-467.0	5.352795042619253	68.0	1.5460942015019676	-97.0	-392.0	-0.4185469618330367	
0.7300924177934538	2043.0	1254.0	9.917955582890302	0.32334794988635557	2012.0	-960.0	0.5885959534028203	9.53525444512569	-15552.0	0.15695892090741875	256.0	0.0	3107.269287109375	36283.0	1253.0	0.7652173913043478	0.33131313131313134	-593.0	-0.6187624750499002	-451.0	-0.9007903126853566	-6.0	1.2466695584105312	-51.0	16.0	0.7694641768911121	
0.9619716001534933	2043.0	1252.0	9.937657926840279	0.3258637651494557	1993.0	-1216.0	0.745554874310239	9.574494175352545	-15616.0	0.03923973022685469	64.0	0.0	3126.800537109375	36923.0	1248.0	0.7543478260869565	0.32525252525252524	-596.0	-0.6027944111776448	-459.0	-8.332550584565682	-137.0	0.4398464447484549	32.0	501.0	2.8361772168722728	
1.1074180071292588	2040.0	1256.0	9.885227016230347	0.36293849842636705	1981.0	-1600.0	0.9809932556713672	9.417535254445125	-15360.0	0.15695892090741875	256.0	0.0	3146.331787109375	37563.0	1249.0	0.7565217391304347	0.3515151515151515	-583.0	-0.5868263473053893	-467.0	-9.20363137058737	-180.0	0.15947139292742946	53.0	558.0	3.4988804201697525	
1.1684960047158313	2040.0	1255.0	9.896186170799403	0.36365886994792335	1976.0	-1728.0	1.0594727161250765	9.496014714898834	-15488.0	0.11771919068056406	192.0	0.0	3165.863037109375	38203.0	1254.0	0.7673913043478261	0.3515151515151515	-583.0	-0.5628742514970061	-479.0	-6.46678420945342	-187.0	0.549435921556338	14.0	380.0	3.577975826885409	
1.5214192345496362	2028.0	1248.0	9.971516342915814	0.5125197172204375	1947.0	-2304.0	1.4126302881667687	9.574494175352545	-15616.0	0.27467811158798283	448.0	0.0	3185.394287109375	38843.0	1250.0	0.7586956521739131	0.33535353535353535	-591.0	-0.5928143712574852	-464.0	-0.2650980190958475	-225.0	0.0946806919850175	14.0	-24.0	4.0939057330426705	
0.960736822302924	2030.0	1249.0	9.971129010869232	0.4828126342353359	1993.0	-1344.0	0.8240343347639485	9.45677498467198	-15424.0	0.27467811158798283	448.0	0.0	3204.925537109375	39483.0	1250.0	0.7586956521739131	0.34949494949494947	-584.0	-0.5988023952095809	-461.0	11.13986379961811	-26.0	0.2165626868364705	-39.0	-769.0	0.9532401452737811	
0.8404038503815969	2036.0	1242.0	10.060353528789525	0.4102123930688195	2003.0	-1024.0	0.627835683629675	9.613733905579398	-15680.0	0.15695892090741875	256.0	0.0	3224.456787109375	40123.0	1249.0	0.7565217391304347	0.34545454545454546	-586.0	-0.5728542914171657	-474.0	11.281443720844926	124.0	-0.22677415401361267	-4.0	-780.0	-1.3295444752312628	
0.8421062022617838	2042.0	1234.0	10.159306109507689	0.338929785768297	2003.0	-1088.0	0.6670754138565297	9.692213366033108	-15808.0	0.11771919068056406	192.0	0.0	3243.988037109375	40763.0	1254.0	0.7673913043478261	0.32525252525252524	-596.0	-0.5908183632734532	-465.0	6.341416494215522	181.0	-0.702844166599734	53.0	-459.0	-2.147064355056224	
0.9042810360908287	2047.0	1229.0	10.220218424434561	0.27991969340043454	1998.0	-1280.0	0.7847946045370937	9.770692826486817	-15936.0	0.07847946045370938	128.0	0.0	3263.519287109375	41403.0	1252.0	0.7630434782608696	0.3515151515151515	-583.0	-0.5688622754491018	-476.0	3.0538369779784786	201.0	-0.7167338956075486	70.0	-245.0	-2.4183710693995564	
0.8808721116961351	2051.0	1225.0	10.270425586501485	0.23199490469281953	2000.0	-1152.0	0.7063151440833844	9.927651747394236	-16192.0	0.03923973022685469	64.0	0.0	3283.050537109375	42043.0	1256.0	0.7717391304347826	0.32525252525252524	-596.0	-0.5728542914171657	-474.0	2.9463556709207013	208.0	-0.6150396190144919	64.0	-238.0	-2.5237601346559755	
0.9296401314476463	2052.0	1226.0	10.257488901743658	0.22030502527167203	1996.0	-1152.0	0.7063151440833844	9.809932556713672	-16000.0	0.0	0.0	0.0	3302.581787109375	42683.0	1256.0	0.7717391304347826	0.32525252525252524	-596.0	-0.5708582834331338	-475.0	3.6319583875062453	167.0	-0.20794041392828358	32.0	-282.0	-1.9070420173351388	
0.7713902672525033	2051.0	1223.0	10.297022044370111	0.23116605082706948	2009.0	-960.0	0.5885959534028203	9.809932556713672	-16000.0	-0.03923973022685469	-64.0	0.0	3322.113037109375	43323.0	1252.0	0.7630434782608696	0.3393939393939394	-589.0	-0.5748502994011977	-473.0	4.3093648430162395	137.0	-0.4532488987796326	44.0	-326.0	-1.4575423176316835	
0.8814733097747333	2050.0	1219.0	10.343328629543585	0.24477813987511082	2000.0	-1152.0	0.7063151440833844	9.966891477621092	-16256.0	0.03923973022685469	64.0	0.0	3341.644287109375	43963.0	1252.0	0.7630434782608696	0.34545454545454546	-586.0	-0.5628742514970061	-479.0	2.6852892171561225	160.0	-1.3607035984031957	113.0	-221.0	-1.7911114473046412	
0.7351757268588742	2050.0	1219.0	10.346283249794435	0.24334471024846074	2012.0	-896.0	0.5493562231759657	9.888412017167381	-16128.0	0.07847946045370938	128.0	0.0	3361.175537109375	44603.0	1253.0	0.7652173913043478	0.3292929292929293	-594.0	-0.6127744510978045	-454.0	3.6337726472337324	195.0	-1.1355602020049311	95.0	-283.0	-2.3329156732403984	
0.6744554258280789	2048.0	1215.0	10.395798456927865	0.26732904485165576	2017.0	-768.0	0.47087676272225626	9.966891477621092	-16256.0	0.0	0.0	0.0	3380.706787109375	45243.0	1253.0	0.7652173913043478	0.3434343434343434	-587.0	-0.5888223552894213	-466.0	6.481301837498658	195.0	-0.3142579787748064	27.0	-468.0	-2.361390965143048	
0.4908594189534676	2048.0	1221.0	10.32635025419996	0.2647986027556306	2032.0	-512.0	0.3139178418148375	9.888412017167381	-16128.0	0.03923973022685469	64.0	0.0	3400.238037109375	45883.0	1256.0	0.7717391304347826	0.3292929292929293	-594.0	-0.5608782435129741	-480.0	7.940720350611644	135.0	0.44721481645940153	-33.0	-562.0	-1.463437621757067	
0.4052799782888455	2049.0	1224.0	10.291741478658258	0.25154852782248305	2039.0	-320.0	0.19619865113427343	9.888412017167381	-16128.0	0.03923973022685469	64.0	0.0	3419.769287109375	46523.0	1254.0	0.7673913043478261	0.3111111111111111	-603.0	-0.5928143712574852	-464.0	6.041489813352723	37.0	0.8796015799445269	-57.0	-437.0	0.04604898019346897	
0.6116858702591105	2047.0	1229.0	10.22612766493626	0.2770528341471344	2022.0	-704.0	0.4316370324954016	9.770692826486817	-15936.0	0.03923973022685469	64.0	0.0	3439.300537109375	47163.0	1250.0	0.7586956521739131	0.3373737373737374	-590.0	-0.5588822355289422	-481.0	-1.0326644295391136	-40.0	1.3551036162821724	-59.0	25.0	1.2878931842193455	
0.8422333499720897	2045.0	1236.0	10.135640921825303	0.30254982705532324	2003.0	-1216.0	0.745554874310239	9.770692826486817	-15936.0	0.03923973022685469	64.0	0.0	3458.831787109375	47803.0	1255.0	0.7695652173913043	0.33131313131313134	-593.0	-0.5588822355289422	-481.0	-7.527308934649176	-117.0	1.4604366924114358	-39.0	449.0	2.5239422908674047	
0.9017275082705485	2038.0	1241.0	10.071789553357318	0.38684360435121834	1998.0	-1216.0	0.745554874310239	9.692213366033108	-15808.0	0.11771919068056406	192.0	0.0	3478.363037109375	48443.0	1254.0	0.7673913043478261	0.33131313131313134	-593.0	-0.596806387225549	-462.0	-7.644784043500071	-161.0	1.3219048691659487	-31.0	457.0	3.194318562868461	
0.85296812363727	2041.0	1244.0	10.036918992751637	0.3498627265855757	2002.0	-1216.0	0.745554874310239	9.652973635806253	-15744.0	0.11771919068056406	192.0	0.0	3497.894287109375	49083.0	1251.0	0.7608695652173914	0.34545454545454546	-586.0	-0.5708582834331338	-475.0	-4.9861719465706695	-81.0	1.35045220996996	-42.0	283.0	1.9510024038763534	
0.8666098041193916	2042.0	1233.0	10.171003919139459	0.3392917998831908	2001.0	-1280.0	0.7847946045370937	9.692213366033108	-15808.0	0.15695892090741875	256.0	0.0	3517.425537109375	49723.0	1255.0	0.7695652173913043	0.3414141414141414	-588.0	-0.5708582834331338	-475.0	-5.1432193455050195	-102.0	0.6739443748708842	3.0	293.0	2.271964512846685	
0.9268409433249871	2041.0	1238.0	10.10858316066768	0.3513180964616133	1996.0	-1152.0	0.7063151440833844	9.613733905579398	-15680.0	0.11771919068056406	192.0	0.0	3536.956787109375	50363.0	1254.0	0.7673913043478261	0.32727272727272727	-595.0	-0.5988023952095809	-461.0	-5.336458253862014	-40.0	0.7101199303231123	4.0	305.0	1.3309311224625746	
0.9515945230440902	2045.0	1239.0	10.096854217616432	0.30325557174395457	1994.0	-1216.0	0.745554874310239	9.613733905579398	-15680.0	0.07847946045370938	128.0	0.0	3556.488037109375	51003.0	1252.0	0.7630434782608696	0.3515151515151515	-583.0	-0.5888223552894213	-466.0	-3.6515027403035334	-44.0	0.3205484990371296	22.0	195.0	1.3749180692281304	
0.9146559544206736	2044.0	1241.0	10.072973944999287	0.31469557610263327	1997.0	-1216.0	0.745554874310239	9.731453096259962	-15872.0	0.11771919068056406	192.0	0.0	3576.019287109375	51643.0	1256.0	0.7717391304347826	0.3191919191919192	-599.0	-0.5868263473053893	-467.0	-3.601430307128177	-78.0	0.20642402455298137	28.0	192.0	1.8915276110560726	
0.9141667925954738	2041.0	1242.0	10.06006839366094	0.3507062072842508	1997.0	-1088.0	0.6670754138565297	9.613733905579398	-15680.0	0.11771919068056406	192.0	0.0	3595.550537109375	52283.0	1252.0	0.7630434782608696	0.33535353535353535	-591.0	-0.5928143712574852	-464.0	-3.4997416015800034	-34.0	0.30107707022396013	23.0	185.0	1.2213092030880437	
0.8902665475960223	2041.0	1238.0	10.109321815730393	0.3509597390549508	1999.0	-1280.0	0.7847946045370937	9.652973635806253	-15744.0	0.11771919068056406	192.0	0.0	3615.081787109375	52923.0	1254.0	0.7673913043478261	0.3616161616161616	-578.0	-0.5568862275449102	-482.0	-3.4573387875029735	1.0	0.4693436475108574	13.0	182.0	0.6885657833122922	
0.9151343223480821	2042.0	1235.0	10.14563855304202	0.3395233914045033	1997.0	-1216.0	0.745554874310239	9.770692826486817	-15936.0	0.15695892090741875	256.0	0.0	3634.613037109375	53563.0	1252.0	0.7630434782608696	0.32525252525252524	-596.0	-0.6007984031936129	-460.0	-2.6120237398373463	97.0	0.5138902732628026	10.0	126.0	-0.7799634127917406	
0.9274550940809345	2046.0	1238.0	10.10977533566452	0.2910951958637195	1996.0	-1152.0	0.7063151440833844	9.613733905579398	-15680.0	0.03923973022685469	64.0	0.0	3654.144287109375	54203.0	1252.0	0.7630434782608696	0.3191919191919192	-599.0	-0.6027944111776448	-459.0	-1.4051144980712897	156.0	0.8555880236088325	-16.0	47.0	-1.6893709082512265	
1.1353176776290075	2048.0	1235.0	10.14263723266195	0.2694060551270059	1979.0	-1472.0	0.9025137952176578	9.692213366033108	-15808.0	0.03923973022685469	64.0	0.0	3673.675537109375	54843.0	1249.0	0.7565217391304347	0.3474747474747475	-585.0	-0.5528942115768464	-484.0	2.522951568619791	156.0	0.7621046703446444	-28.0	-209.0	-1.7286515689181372	
1.0263206774514588	2049.0	1230.0	10.206042864550678	0.25690194867303334	1988.0	-1472.0	0.9025137952176578	9.809932556713672	-16000.0	0.07847946045370938	128.0	0.0	3693.206787109375	55483.0	1254.0	0.7673913043478261	0.3292929292929293	-594.0	-0.5628742514970061	-479.0	11.680348061184807	237.0	1.4783752670889991	-115.0	-806.0	-3.0521646973418863	
0.8440542144443496	2050.0	1226.0	10.258735560224585	0.243558018228617	2003.0	-960.0	0.5885959534028203	9.849172286940528	-16064.0	0.11771919068056406	192.0	0.0	3712.738037109375	56123.0	1253.0	0.7652173913043478	0.3373737373737374	-590.0	-0.5888223552894213	-466.0	15.392193290925505	274.0	1.8122554872312546	-153.0	-1048.0	-3.6520207922248447	
0.611819494308091	2053.0	1234.0	10.166607043231247	0.20416980754406805	2022.0	-832.0	0.510116492949111	9.731453096259962	-15872.0	0.0	0.0	0.0	3732.269287109375	56763.0	1253.0	0.7652173913043478	0.3474747474747475	-585.0	-0.5748502994011977	-473.0	12.800981017095953	233.0	1.4429232645259162	-118.0	-879.0	-3.002534524999857	
0.47735136252032645	2053.0	1237.0	10.132744706107125	0.20248650285494918	2033.0	-448.0	0.27467811158798283	9.692213366033108	-15808.0	-0.03923973022685469	-64.0	0.0	3751.800537109375	57403.0	1255.0	0.7695652173913043	0.3212121212121212	-598.0	-0.5788423153692616	-471.0	3.8002981447684747	126.0	0.6549503980743538	-28.0	-292.0	-1.285151270421069	
0.8549118182607194	2047.0	1234.0	10.16025206615029	0.27882633763929077	2002.0	-1088.0	0.6670754138565297	9.692213366033108	-15808.0	0.03923973022685469	64.0	0.0	3771.331787109375	58043.0	1251.0	0.7608695652173914	0.32525252525252524	-596.0	-0.6047904191616768	-458.0	-5.211562380161629	10.0	0.1471377822872244	43.0	296.0	0.5692258899613121	
0.879178394934181	2049.0	1237.0	10.123665760419817	0.2546067548065519	2000.0	-1088.0	0.6670754138565297	9.613733905579398	-15680.0	0.03923973022685469	64.0	0.0	3790.863037109375	58683.0	1248.0	0.7543478260869565	0.3393939393939394	-589.0	-0.6087824351297406	-456.0	-2.3335794815439543	-8.0	0.6705122858593997	-6.0	109.0	0.8142103195302686	
0.6707167720870681	2049.0	1247.0	10.005949009039409	0.2513449710642767	2017.0	-768.0	0.47087676272225626	9.613733905579398	-15680.0	0.07847946045370938	128.0	0.0	3810.394287109375	59323.0	1255.0	0.7695652173913043	0.33535353535353535	-591.0	-0.5548902195608784	-483.0	-0.5743838357856782	-48.0	1.0184902918423233	-39.0	-5.0	1.4049833820840925	
0.8278762763784134	2048.0	1257.0	9.880607272032508	0.2637113415082055	2004.0	-1024.0	0.627835683629675	9.53525444512569	-15552.0	0.07847946045370938	128.0	0.0	3829.925537109375	59963.0	1250.0	0.7586956521739131	0.3393939393939394	-589.0	-0.5888223552894213	-466.0	-4.153215088305602	-128.0	1.0539902042674123	-28.0	229.0	2.6575017326321055	
0.9009130315829446	2052.0	1262.0	9.819132470203332	0.21563418995762174	1998.0	-1088.0	0.6670754138565297	9.417535254445125	-15360.0	0.03923973022685469	64.0	0.0	3849.456787109375	60603.0	1255.0	0.7695652173913043	0.3111111111111111	-603.0	-0.6187624750499002	-451.0	-5.1156637662783515	-157.0	1.058356535458607	-25.0	292.0	3.108190858195103	
0.8018061054691575	2049.0	1272.0	9.698484448636684	0.24958121879407041	2006.0	-1024.0	0.627835683629675	9.260576333537706	-15104.0	0.0	0.0	0.0	3868.988037109375	61243.0	1253.0	0.7652173913043478	0.33535353535353535	-591.0	-0.5748502994011977	-473.0	-5.268371773301203	-141.0	1.3785689280140987	-45.0	302.0	2.866371930660769	
0.885556046543287	2039.0	1275.0	9.657805831142609	0.3704938597407143	1999.0	-1280.0	0.7847946045370937	9.182096873083998	-14976.0	0.11771919068056406	192.0	0.0	3888.519287109375	61883.0	1250.0	0.7586956521739131	0.31313131313131315	-602.0	-0.6067864271457086	-457.0	-7.026380586886996	-166.0	1.6956122684381478	-59.0	417.0	3.264180155678756	
0.9098096705393994	2035.0	1272.0	9.692930393457397	0.41928041268816063	1997.0	-1280.0	0.7847946045370937	9.339055793991415	-15232.0	0.19619865113427343	320.0	0.0	3908.050537109375	62523.0	1253.0	0.7652173913043478	0.3414141414141414	-588.0	-0.5588822355289422	-481.0	-7.0357322368107695	-144.0	1.09495452001793	-18.0	417.0	2.9296729117217204	
0.9957446489802406	2031.0	1263.0	9.799965342042464	0.469402883042757	1990.0	-1344.0	0.8240343347639485	9.339055793991415	-15232.0	0.3139178418148375	512.0	0.0	3927.581787109375	63163.0	1255.0	0.7695652173913043	0.3333333333333333	-592.0	-0.5608782435129741	-480.0	-7.615846302606662	-45.0	1.3754686408569645	-30.0	454.0	1.429770630326447	
1.1441109154502969	2039.0	1254.0	9.908630418848755	0.3755876543068458	1978.0	-1536.0	0.9417535254445125	9.496014714898834	-15488.0	0.15695892090741875	256.0	0.0	3947.113037109375	63803.0	1251.0	0.7608695652173914	0.3434343434343434	-587.0	-0.6067864271457086	-457.0	-5.650786581359663	150.0	1.327346655469146	-28.0	324.0	-1.5556594345666317	
1.4019482324661934	2042.0	1242.0	10.050458094490805	0.3434397259201723	1957.0	-1984.0	1.2164316370324952	9.574494175352545	-15616.0	0.15695892090741875	256.0	0.0	3966.644287109375	64443.0	1255.0	0.7695652173913043	0.3575757575757576	-580.0	-0.5508982035928145	-485.0	3.596569645742233	302.0	1.375902294877625	-68.0	-280.0	-3.9599200690809964	
1.098626928087528	2050.0	1238.0	10.107282018702664	0.24458920994982958	1982.0	-1472.0	0.9025137952176578	9.770692826486817	-15936.0	-0.03923973022685469	-64.0	0.0	3986.175537109375	65083.0	1252.0	0.7630434782608696	0.3232323232323232	-597.0	-0.5848303393213574	-468.0	17.589882961496627	438.0	1.5341805930554864	-138.0	-1193.0	-6.168294266877324	
0.9514868043498081	2051.0	1246.0	10.012953103230926	0.23012632678665065	1994.0	-1344.0	0.8240343347639485	9.574494175352545	-15616.0	0.0	0.0	0.0	4005.706787109375	187.0	1252.0	0.7630434782608696	0.3191919191919192	-599.0	-0.6327345309381238	-444.0	25.47705628344845	417.0	1.062412686937155	-144.0	-1707.0	-5.927774365115854	
0.6963193689667064	2055.0	1243.0	10.055648167688119	0.17980883199305425	2015.0	-832.0	0.510116492949111	9.692213366033108	-15808.0	-0.07847946045370938	-128.0	0.0	4025.238037109375	827.0	1255.0	0.7695652173913043	0.3373737373737374	-590.0	-0.5568862275449102	-482.0	25.721375803038086	473.0	0.2548887832914293	-89.0	-1724.0	-6.7819285869277195	
0.8802968189722354	2064.0	1243.0	10.054100807368867	0.07319939795015801	2000.0	-1280.0	0.7847946045370937	9.692213366033108	-15808.0	-0.03923973022685469	-64.0	0.0	4044.769287109375	1467.0	1255.0	0.7695652173913043	0.31717171717171716	-600.0	-0.6047904191616768	-458.0	19.236690675033906	524.0	-1.3017310255750256	47.0	-1303.0	-7.492747134887222	
0.625967606851878	2065.0	1230.0	10.217983030230402	0.060246735286485435	2021.0	-704.0	0.4316370324954016	9.809932556713672	-16000.0	-0.15695892090741875	-256.0	0.0	4064.300537109375	2107.0	1250.0	0.7586956521739131	0.31313131313131315	-602.0	-0.5888223552894213	-466.0	15.16236794492156	590.0	-2.5522189658576764	152.0	-1039.0	-8.455806188954918	
0.44311073966396153	2072.0	1237.0	10.138013626157827	-0.026718876823709797	2036.0	-448.0	0.27467811158798283	9.849172286940528	-16064.0	-0.27467811158798283	-448.0	0.0	4083.831787109375	2747.0	1256.0	0.7717391304347826	0.31313131313131315	-602.0	-0.564870259481038	-478.0	10.093144467064208	632.0	-3.8979876120348087	267.0	-710.0	-9.043897224138323	
0.528683703989909	2068.0	1231.0	10.20847783572216	0.02303426599953033	2029.0	-448.0	0.27467811158798283	9.888412017167381	-16128.0	-0.23543838136112813	-384.0	0.0	4103.363037109375	3387.0	1253.0	0.7652173913043478	0.30505050505050507	-606.0	-0.5748502994011977	-473.0	4.754199291235255	525.0	-3.7863946335569714	280.0	-361.0	-7.363131346524521	
0.4080878015297375	2064.0	1216.0	10.39283997437073	0.07186469944575166	2039.0	-448.0	0.27467811158798283	10.006131207847945	-16320.0	-0.11771919068056406	-192.0	0.0	4122.894287109375	4027.0	1253.0	0.7652173913043478	0.3090909090909091	-604.0	-0.6027944111776448	-459.0	4.741875268947364	429.0	-3.4091573147351766	251.0	-359.0	-5.902932060674265	
0.30958854983322315	2063.0	1223.0	10.309239561823551	0.08209189557439907	2047.0	-192.0	0.11771919068056406	9.927651747394236	-16192.0	-0.07847946045370938	-128.0	0.0	4142.425537109375	4667.0	1257.0	0.7739130434782608	0.3090909090909091	-604.0	-0.5828343313373254	-469.0	6.993411237031458	404.0	-2.7115081261978107	193.0	-505.0	-5.545219283472977	
0.07855838463371899	2065.0	1220.0	10.350965319573532	0.05610246595773517	2066.0	128.0	-0.07847946045370938	9.966891477621092	-16256.0	-0.19619865113427343	-320.0	0.0	4161.956787109375	5307.0	1255.0	0.7695652173913043	0.298989898989899	-609.0	-0.6007984031936129	-460.0	7.895162209376325	384.0	-1.8569020618694334	131.0	-563.0	-5.250054283690723	
0.10366534334948303	2065.0	1214.0	10.423614360906525	0.05708002595822274	2064.0	192.0	-0.11771919068056406	10.006131207847945	-16320.0	-0.23543838136112813	-384.0	0.0	4181.488037109375	5947.0	1250.0	0.7586956521739131	0.3191919191919192	-599.0	-0.6067864271457086	-457.0	2.8051678567856797	306.0	-0.9653832802351028	92.0	-230.0	-4.012842553092572	
0.3858985435287056	2074.0	1208.0	10.49323873179484	-0.04783513327086088	2041.0	-256.0	0.15695892090741875	10.0453709380748	-16384.0	-0.27467811158798283	-448.0	0.0	4201.019287109375	6587.0	1251.0	0.7608695652173914	0.29494949494949496	-611.0	-0.6227544910179642	-449.0	-3.098869538978006	232.0	-0.07474365771238656	57.0	156.0	-2.8283268939638324	
0.3487164733824682	2072.0	1211.0	10.456929777838084	-0.024473657969722173	2044.0	-192.0	0.11771919068056406	10.084610668301655	-16448.0	-0.27467811158798283	-448.0	0.0	4220.550537109375	7227.0	1251.0	0.7608695652173914	0.30303030303030304	-607.0	-0.6107784431137725	-455.0	-3.474518752692819	128.0	0.6827342642356526	4.0	182.0	-1.2428213523970262	
0.6026664011514664	2063.0	1219.0	10.352091306682828	0.08545119153617428	2023.0	-704.0	0.4316370324954016	9.966891477621092	-16256.0	-0.15695892090741875	-256.0	0.0	4240.081787109375	7867.0	1251.0	0.7608695652173914	0.3212121212121212	-598.0	-0.6067864271457086	-457.0	-1.4502605306364953	-15.0	1.4143699341419613	-60.0	52.0	0.91184100834819	
0.45625462320265064	2066.0	1223.0	10.307000246570805	0.04739158484231287	2035.0	-512.0	0.3139178418148375	9.927651747394236	-16192.0	-0.11771919068056406	-192.0	0.0	4259.613037109375	8507.0	1257.0	0.7739130434782608	0.3191919191919192	-599.0	-0.5708582834331338	-475.0	2.8704958479516716	-121.0	2.143611371790209	-133.0	-228.0	2.4808007449425364	
0.28266936176343205	2062.0	1243.0	10.065688636727769	0.09143538721382766	2049.0	-128.0	0.07847946045370938	9.692213366033108	-15808.0	-0.11771919068056406	-192.0	0.0	4279.144287109375	9147.0	1251.0	0.7608695652173914	0.301010101010101	-608.0	-0.6167664670658684	-452.0	2.3642215922676906	-122.0	2.1482546874705504	-131.0	-195.0	2.501072612974662	
0.6353728366495562	2060.0	1248.0	9.997120202754923	0.11837312316512912	2020.0	-704.0	0.4316370324954016	9.613733905579398	-15680.0	-0.03923973022685469	-64.0	0.0	4298.675537109375	9787.0	1255.0	0.7695652173913043	0.3212121212121212	-598.0	-0.564870259481038	-478.0	-5.373206400482862	-185.0	0.9692922597781659	-19.0	309.0	3.5366217978451333	
0.7201032601536431	2057.0	1250.0	9.970300876596667	0.15509681245184043	2013.0	-832.0	0.510116492949111	9.574494175352545	-15616.0	-0.03923973022685469	-64.0	0.0	4318.206787109375	10427.0	1256.0	0.7717391304347826	0.3232323232323232	-597.0	-0.5688622754491018	-476.0	-8.613342382669314	-220.0	0.25897021983726165	42.0	520.0	4.101342549301979	
0.5373605879986834	2061.0	1253.0	9.938377152886968	0.1047573774088565	2028.0	-640.0	0.39239730226854685	9.613733905579398	-15680.0	-0.15695892090741875	-256.0	0.0	4337.738037109375	11067.0	1258.0	0.7760869565217391	0.3090909090909091	-604.0	-0.5708582834331338	-475.0	-4.506261590669604	-65.0	0.47221157586025014	15.0	251.0	1.7028572927127799	
0.6112312489068422	2060.0	1246.0	10.021993132143887	0.11838043658159161	2022.0	-832.0	0.510116492949111	9.613733905579398	-15680.0	-0.03923973022685469	-64.0	0.0	4357.269287109375	11707.0	1251.0	0.7608695652173914	0.3232323232323232	-597.0	-0.5888223552894213	-466.0	-4.911000860914604	-23.0	0.5409252636159072	14.0	277.0	1.0681214154532526	
0.5147877280871758	2061.0	1238.0	10.121723284699112	0.10636511012786286	2030.0	-576.0	0.3531575720416922	9.770692826486817	-15936.0	-0.07847946045370938	-128.0	0.0	4376.800537109375	12347.0	1257.0	0.7739130434782608	0.3232323232323232	-597.0	-0.5848303393213574	-468.0	-4.991041423258249	62.0	-0.03147804405029481	56.0	281.0	-0.2238538443225506	
0.539414160095973	2062.0	1237.0	10.133659529330249	0.09468254412317786	2028.0	-576.0	0.3531575720416922	9.849172286940528	-16064.0	-0.23543838136112813	-384.0	0.0	4396.331787109375	12987.0	1255.0	0.7695652173913043	0.3090909090909091	-604.0	-0.6147704590818364	-453.0	-4.106145066346209	37.0	0.596371720195261	9.0	224.0	0.1475253289904583	
0.4673622048805158	2067.0	1233.0	10.18508999981349	0.03423536542043405	2034.0	-448.0	0.27467811158798283	9.692213366033108	-15808.0	-0.15695892090741875	-256.0	0.0	4415.863037109375	13627.0	1249.0	0.7565217391304347	0.3232323232323232	-597.0	-0.6047904191616768	-458.0	-4.374038037850549	20.0	1.1743900081175547	-29.0	242.0	0.40875939178534965	
0.5524611188381711	2067.0	1235.0	10.15898597865334	0.034825314348409075	2027.0	-576.0	0.3531575720416922	9.770692826486817	-15936.0	-0.15695892090741875	-256.0	0.0	4435.394287109375	14267.0	1255.0	0.7695652173913043	0.3151515151515151	-601.0	-0.56686626746507	-477.0	-5.187931146444236	-38.0	1.7804594435499252	-68.0	296.0	1.2990276004378265	
0.5883006924395572	2062.0	1236.0	10.144864902253543	0.09528346317584664	2024.0	-640.0	0.39239730226854685	9.770692826486817	-15936.0	-0.07847946045370938	-128.0	0.0	4454.925537109375	14907.0	1251.0	0.7608695652173914	0.31717171717171716	-600.0	-0.6107784431137725	-455.0	-5.275155362339901	-37.0	2.2818912376834306	-101.0	302.0	1.284690717121498	
0.7098446956363132	2058.0	1235.0	10.153639225053942	0.14477941752015552	2014.0	-832.0	0.510116492949111	9.731453096259962	-15872.0	-0.07847946045370938	-128.0	0.0	4474.456787109375	15547.0	1252.0	0.7630434782608696	0.3373737373737374	-590.0	-0.56686626746507	-477.0	-5.168506346643475	-27.0	2.355514635121703	-106.0	295.0	1.131532972211682	
0.6983945288595781	2066.0	1237.0	10.131412430722632	0.04805710574040042	2015.0	-896.0	0.5493562231759657	9.731453096259962	-15872.0	-0.11771919068056406	-192.0	0.0	4493.988037109375	16187.0	1250.0	0.7586956521739131	0.3393939393939394	-589.0	-0.5788423153692616	-471.0	-4.379444784012044	31.0	2.335881121465217	-106.0	243.0	0.24151307901882768	
0.7466777043450061	2066.0	1241.0	10.081666571944703	0.04804247890747541	2011.0	-960.0	0.5885959534028203	9.613733905579398	-15680.0	-0.15695892090741875	-256.0	0.0	4513.519287109375	16827.0	1255.0	0.7695652173913043	0.3191919191919192	-599.0	-0.594810379241517	-463.0	-4.378328538335041	10.0	2.1281252166412212	-93.0	243.0	0.5608935515430462	
0.7225339578227339	2065.0	1238.0	10.118491312674545	0.060217481620635435	2013.0	-896.0	0.5493562231759657	9.692213366033108	-15808.0	-0.19619865113427343	-320.0	0.0	4533.050537109375	17467.0	1252.0	0.7630434782608696	0.32727272727272727	-595.0	-0.56686626746507	-477.0	-4.757963922466216	-17.0	2.123129480115317	-92.0	268.0	0.9753362932170576	
0.7828814508408443	2062.0	1240.0	10.092164423224764	0.09670226596957174	2008.0	-896.0	0.5493562231759657	9.731453096259962	-15872.0	-0.11771919068056406	-192.0	0.0	4552.581787109375	18107.0	1257.0	0.7739130434782608	0.33131313131313134	-593.0	-0.5688622754491018	-476.0	-5.727947009272278	-19.0	1.784625971719596	-65.0	331.0	1.0154543750356886	
0.8684630502850246	2062.0	1238.0	10.114821387425591	0.0977846516060218	2001.0	-960.0	0.5885959534028203	9.731453096259962	-15872.0	-0.11771919068056406	-192.0	0.0	4572.113037109375	18747.0	1254.0	0.7673913043478261	0.33535353535353535	-591.0	-0.596806387225549	-462.0	-4.263245346098727	17.0	1.4647038166771122	-49.0	235.0	0.45327884129368695	
0.7697181382861313	2059.0	1245.0	10.030744104879675	0.13210100797382673	2009.0	-960.0	0.5885959534028203	9.731453096259962	-15872.0	-0.07847946045370938	-128.0	0.0	4591.644287109375	19387.0	1248.0	0.7543478260869565	0.3474747474747475	-585.0	-0.5768463073852296	-472.0	-0.3499415898100354	49.0	1.9164532320097034	-96.0	-20.0	-0.0725462114783255	
0.6243924026819969	2062.0	1240.0	10.095365261829851	0.09514938387403414	2021.0	-704.0	0.4316370324954016	9.652973635806253	-15744.0	-0.03923973022685469	-64.0	0.0	4611.175537109375	20027.0	1255.0	0.7695652173913043	0.3212121212121212	-598.0	-0.5688622754491018	-476.0	-0.8600011952084374	76.0	1.9683792360587402	-96.0	13.0	-0.4780920032570411	
0.6490188346907942	2063.0	1239.0	10.10730150646099	0.08346681786934915	2019.0	-704.0	0.4316370324954016	9.770692826486817	-15936.0	-0.03923973022685469	-64.0	0.0	4630.706787109375	20667.0	1252.0	0.7630434782608696	0.32727272727272727	-595.0	-0.6167664670658684	-452.0	-3.6189471074518433	54.0	1.997092803651371	-86.0	193.0	-0.11590178367833329	
0.7594660501074761	2063.0	1233.0	10.178227019314319	0.08528054515204928	2010.0	-960.0	0.5885959534028203	9.849172286940528	-16064.0	-0.07847946045370938	-128.0	0.0	4650.238037109375	21307.0	1255.0	0.7695652173913043	0.3474747474747475	-585.0	-0.5608782435129741	-480.0	-5.365577576520353	51.0	2.2517657229746386	-95.0	307.0	-0.05280810256179268	
0.7834956015967917	2067.0	1240.0	10.093356598221604	0.03647936537167794	2008.0	-1024.0	0.627835683629675	9.692213366033108	-15808.0	-0.11771919068056406	-192.0	0.0	4669.769287109375	21947.0	1256.0	0.7717391304347826	0.3474747474747475	-585.0	-0.5768463073852296	-472.0	-4.667898372579759	19.0	2.4685971409864007	-114.0	262.0	0.4269071206079269	
0.7813062466709634	2059.0	1250.0	9.969546654824216	0.13160491455712045	2008.0	-1024.0	0.627835683629675	9.574494175352545	-15616.0	-0.11771919068056406	-192.0	0.0	4689.300537109375	22587.0	1250.0	0.7586956521739131	0.3474747474747475	-585.0	-0.5828343313373254	-469.0	-4.785089527115	-29.0	2.2976270869482467	-104.0	270.0	1.1581170549669675	
0.8543300491981451	2057.0	1249.0	9.9797827210403	0.15653389878672178	2002.0	-1088.0	0.6670754138565297	9.574494175352545	-15616.0	-0.03923973022685469	-64.0	0.0	4708.831787109375	23227.0	1250.0	0.7586956521739131	0.3474747474747475	-585.0	-0.5588822355289422	-481.0	-5.8042970984665825	-10.0	1.9603327643280073	-76.0	336.0	0.8793357466500652	
0.8789607987660589	2060.0	1250.0	9.967815342989683	0.12051595418864175	2000.0	-1216.0	0.745554874310239	9.613733905579398	-15680.0	-0.11771919068056406	-192.0	0.0	4728.363037109375	23867.0	1253.0	0.7652173913043478	0.32525252525252524	-596.0	-0.6047904191616768	-458.0	-5.702664255099549	58.0	2.4144180446699637	-104.0	329.0	-0.15590111410299692	
0.9404116043653162	2065.0	1251.0	9.95558617987509	0.06076720675806671	1995.0	-1216.0	0.745554874310239	9.652973635806253	-15744.0	-0.11771919068056406	-192.0	0.0	4747.894287109375	24507.0	1251.0	0.7608695652173914	0.3474747474747475	-585.0	-0.6107784431137725	-455.0	-4.584291190762265	89.0	2.685273677440213	-126.0	256.0	-0.6385677344802101	
1.0998746586154464	2069.0	1247.0	10.00210006662845	0.014634205083764298	1982.0	-1472.0	0.9025137952176578	9.652973635806253	-15744.0	-0.15695892090741875	-256.0	0.0	4767.425537109375	25147.0	1252.0	0.7630434782608696	0.35555555555555557	-581.0	-0.5728542914171657	-474.0	-0.03167869702905976	108.0	2.4099557907338505	-128.0	-41.0	-0.9730672434479604	
0.7830193924489413	2070.0	1247.0	10.008740178837995	-5.161392268896586E-4	2008.0	-960.0	0.5885959534028203	9.731453096259962	-15872.0	-0.23543838136112813	-384.0	0.0	4786.956787109375	25787.0	1252.0	0.7630434782608696	0.33535353535353535	-591.0	-0.5928143712574852	-464.0	3.4177859939310893	144.0	2.5815792863787093	-154.0	-266.0	-1.5550904074678282	
0.7115707940916405	2075.0	1238.0	10.121121881022459	-0.06034777204403967	2014.0	-832.0	0.510116492949111	9.731453096259962	-15872.0	-0.27467811158798283	-448.0	0.0	4806.488037109375	26427.0	1250.0	0.7586956521739131	0.3393939393939394	-589.0	-0.6067864271457086	-457.0	-1.714327475995497	151.0	2.088460225375501	-97.0	68.0	-1.6102331510955583	
0.9316140489849106	2072.0	1230.0	10.213496616370037	-0.021079013828378193	1996.0	-1152.0	0.7063151440833844	9.809932556713672	-16000.0	-0.23543838136112813	-384.0	0.0	4826.019287109375	27067.0	1248.0	0.7543478260869565	0.3474747474747475	-585.0	-0.6127744510978045	-454.0	-7.626639547964455	130.0	1.4227137140683594	-26.0	453.0	-1.2317183953948803	
0.870417538806265	2073.0	1233.0	10.17839540411986	-0.03409018382375077	2001.0	-1088.0	0.6670754138565297	9.809932556713672	-16000.0	-0.27467811158798283	-448.0	0.0	4845.550537109375	27707.0	1249.0	0.7565217391304347	0.3434343434343434	-587.0	-0.5928143712574852	-464.0	-5.765254893159207	147.0	2.113098749815909	-80.0	332.0	-1.5088873750227807	
0.8576183991460041	2071.0	1236.0	10.141594013454627	-0.010489803584837046	2002.0	-960.0	0.5885959534028203	9.770692826486817	-15936.0	-0.19619865113427343	-320.0	0.0	4865.081787109375	28347.0	1250.0	0.7586956521739131	0.3616161616161616	-578.0	-0.5888223552894213	-466.0	-3.344179788522167	105.0	2.6236882678966102	-127.0	175.0	-0.8943148561071738	
0.9909940122504127	2068.0	1239.0	10.101599567539179	0.026588586400305564	1991.0	-1408.0	0.8632740649908032	9.770692826486817	-15936.0	-0.15695892090741875	-256.0	0.0	4884.613037109375	28987.0	1244.0	0.7456521739130435	0.35353535353535354	-582.0	-0.6127744510978045	-454.0	-1.7944067951485174	40.0	3.1359505062396043	-171.0	75.0	0.07878056985262587	
0.9779535298468892	2066.0	1244.0	10.040417684193457	0.04994274828498178	1992.0	-1280.0	0.7847946045370937	9.652973635806253	-15744.0	-0.15695892090741875	-256.0	0.0	4904.144287109375	29627.0	1254.0	0.7673913043478261	0.36363636363636365	-577.0	-0.56686626746507	-477.0	0.6120595904080434	93.0	3.6303889492337613	-213.0	-82.0	-0.751367744193054	
0.9536955882916603	2068.0	1245.0	10.029196744560423	0.02549157393093049	1994.0	-1280.0	0.7847946045370937	9.652973635806253	-15744.0	-0.15695892090741875	-256.0	0.0	4923.675537109375	30267.0	1249.0	0.7565217391304347	0.3575757575757576	-580.0	-0.6027944111776448	-459.0	0.4627069585217306	148.0	3.3444088859999055	-191.0	-73.0	-1.5863761190148753	
1.0144072542042228	2066.0	1245.0	10.027488782790499	0.05017799651452554	1989.0	-1408.0	0.8632740649908032	9.613733905579398	-15680.0	-0.15695892090741875	-256.0	0.0	4943.206787109375	30907.0	1251.0	0.7608695652173914	0.3575757575757576	-580.0	-0.5708582834331338	-475.0	-0.8062250126726768	170.0	2.636515379214487	-137.0	9.0	-1.9082875597592048	
0.9417433070123765	2067.0	1242.0	10.065775266936026	0.037786029112978015	1995.0	-1280.0	0.7847946045370937	9.692213366033108	-15808.0	-0.23543838136112813	-384.0	0.0	4962.738037109375	31547.0	1252.0	0.7630434782608696	0.34545454545454546	-586.0	-0.5688622754491018	-476.0	-0.6882681101671624	184.0	2.366957621599996	-119.0	1.0	-2.1223948854382524	
0.9667382294747422	2071.0	1241.0	10.078426816565267	-0.010030277250443267	1993.0	-1344.0	0.8240343347639485	9.692213366033108	-15808.0	-0.23543838136112813	-384.0	0.0	4982.269287109375	32187.0	1249.0	0.7565217391304347	0.35353535353535354	-582.0	-0.594810379241517	-463.0	-1.5628581202218648	163.0	2.0702258346936673	-96.0	58.0	-1.794257350356717	
0.9296811482592523	2071.0	1245.0	10.030404486267	-0.010881071365580822	1996.0	-1216.0	0.745554874310239	9.692213366033108	-15808.0	-0.23543838136112813	-384.0	0.0	5001.800537109375	32827.0	1249.0	0.7565217391304347	0.3656565656565657	-576.0	-0.5848303393213574	-468.0	-2.596865954618344	104.0	2.136284251342241	-98.0	126.0	-0.886578868970927	
0.9168712147012003	2064.0	1243.0	10.053362152306153	0.07355775535682053	1997.0	-1216.0	0.745554874310239	9.692213366033108	-15808.0	-0.15695892090741875	-256.0	0.0	5021.331787109375	33467.0	1251.0	0.7608695652173914	0.34949494949494947	-584.0	-0.6027944111776448	-459.0	-3.019894078614212	57.0	2.0921563416344395	-95.0	154.0	-0.16751969039256515	
1.0144007778655482	2063.0	1242.0	10.06334421681313	0.08668106440461809	1989.0	-1280.0	0.7847946045370937	9.731453096259962	-15872.0	-0.19619865113427343	-320.0	0.0	5040.863037109375	34107.0	1248.0	0.7543478260869565	0.3696969696969697	-574.0	-0.5988023952095809	-461.0	-4.146240287951087	94.0	2.0581270097745747	-86.0	227.0	-0.7189938708847478	
1.1626463729639729	2071.0	1234.0	10.159819047279179	-0.007257273508411835	1977.0	-1664.0	1.020232985898222	9.692213366033108	-15808.0	-0.19619865113427343	-320.0	0.0	5060.394287109375	34747.0	1252.0	0.7630434782608696	0.3656565656565657	-576.0	-0.5688622754491018	-476.0	-2.306496334077967	170.0	1.4815639483417165	-53.0	106.0	-1.893284846545152	
0.9804833110920291	2064.0	1221.0	10.320316480020345	0.07686341959787073	1992.0	-1344.0	0.8240343347639485	9.927651747394236	-16192.0	-0.15695892090741875	-256.0	0.0	5079.925537109375	35387.0	1252.0	0.7630434782608696	0.35353535353535354	-582.0	-0.6267465069860281	-447.0	3.112786163103082	153.0	1.3788972524291143	-72.0	-247.0	-1.6889225384371147	
0.7749393889596485	2074.0	1217.0	10.375647527397039	-0.04512063686052947	2009.0	-1024.0	0.627835683629675	10.006131207847945	-16320.0	-0.27467811158798283	-448.0	0.0	5099.456787109375	36027.0	1250.0	0.7586956521739131	0.3434343434343434	-587.0	-0.6067864271457086	-457.0	8.210084708909665	260.0	1.658935473103982	-110.0	-580.0	-3.367271949750694	
0.543422220714503	2074.0	1216.0	10.392515922467796	-0.04726712459227336	2028.0	-704.0	0.4316370324954016	9.927651747394236	-16192.0	-0.3531575720416922	-576.0	0.0	5118.988037109375	36667.0	1251.0	0.7608695652173914	0.3656565656565657	-576.0	-0.5748502994011977	-473.0	6.447885247463011	236.0	1.5720812464387584	-97.0	-465.0	-2.9846309437293836	
0.7763960805374565	2078.0	1209.0	10.474123238116466	-0.09231408392189447	2009.0	-960.0	0.5885959534028203	10.163090128755364	-16576.0	-0.3139178418148375	-512.0	0.0	5138.519287109375	37307.0	1250.0	0.7586956521739131	0.3575757575757576	-580.0	-0.6187624750499002	-451.0	-0.44255621921912136	213.0	1.2880383896762757	-47.0	-16.0	-2.5659166431310028	
