Device	Device	Device	Device	Device	Device	Device	Device	Device	Device	Device	Device	Device	Device	Device	Device	Device	Device	Device	Device	Device	Device	Device	Device	Device	Device	Device	
Low Noise Accelerometer X	Low Noise Accelerometer X	Low Noise Accelerometer Z	Low Noise Accelerometer Z	Low Noise Accelerometer Y	Low Noise Accelerometer Y	Wide Range Accelerometer X	Wide Range Accelerometer X	Wide Range Accelerometer Z	Wide Range Accelerometer Z	Wide Range Accelerometer Y	Wide Range Accelerometer Y	Event_Marker	Timestamp	Timestamp	Magnetometer Z	Magnetometer Z	Magnetometer X	Magnetometer X	Magnetometer Y	Magnetometer Y	Gyroscope Y	Gyroscope Y	Gyroscope Z	Gyroscope Z	Gyroscope X	Gyroscope X	
UNCAL	CAL	UNCAL	CAL	UNCAL	CAL	UNCAL	CAL	CAL	UNCAL	CAL	UNCAL	CAL	CAL	UNCAL	CAL	UNCAL	CAL	UNCAL	CAL	UNCAL	CAL	UNCAL	CAL	UNCAL	UNCAL	CAL	
no units	m/(s^2)	no units	m/(s^2)	no units	m/(s^2)	no units	m/(s^2)	m/(s^2)	no units	m/(s^2)	no units	no units	ms	no units	local_flux	no units	local_flux	no units	local_flux	no units	deg/s	no units	deg/s	no units	no units	deg/s	
2038.0	-0.401793901756145	1233.0	10.195656887982688	2105.0	0.3750470635972051	1216.0	-0.745554874310239	9.809932556713672	-16000.0	0.11771919068056406	192.0	0.0	1593.414306640625	52213.0	0.7717391304347826	1256.0	0.17373737373737375	-671.0	-0.5808383233532934	-470.0	-0.5049052414410201	-52.0	0.23161092669734085	13.0	-10.0	1.465125098041787	
2037.0	-0.3413214198072869	1236.0	10.1576166221914	2100.0	0.3873195785298651	832.0	-0.510116492949111	9.692213366033108	-15808.0	0.15695892090741875	256.0	0.0	1612.945556640625	52853.0	0.7804347826086957	1260.0	0.15555555555555556	-680.0	-0.56686626746507	-477.0	2.8928117524111387	11.0	0.24335187259671232	-1.0	-232.0	0.4729730231602994	
2039.0	-0.4638351115362092	1243.0	10.075223951350798	2110.0	0.36117412936200116	896.0	-0.5493562231759657	9.53525444512569	-15552.0	0.19619865113427343	320.0	0.0	1632.476806640625	53493.0	0.782608695652174	1261.0	0.1595959595959596	-678.0	-0.5988023952095809	-461.0	3.364682548708821	16.0	-0.07130608094494215	18.0	-263.0	0.39220868782089663	
2037.0	-0.4634774149804319	1238.0	10.135698313053286	2110.0	0.3858788354867525	1024.0	-0.627835683629675	9.692213366033108	-15808.0	0.19619865113427343	320.0	0.0	1652.008056640625	54133.0	0.7782608695652175	1259.0	0.1717171717171717	-672.0	-0.56686626746507	-477.0	3.1269709454056613	50.0	-0.30394201017492123	36.0	-248.0	-0.12252446230576766	
2037.0	-0.6217251203960167	1236.0	10.163279644338862	2123.0	0.38457217174545244	1216.0	-0.745554874310239	9.731453096259962	-15872.0	0.11771919068056406	192.0	0.0	1671.539306640625	54773.0	0.7760869565217391	1258.0	0.1494949494949495	-683.0	-0.594810379241517	-463.0	1.6076663846990997	77.0	0.11807751772608217	16.0	-149.0	-0.5179778045314017	
2038.0	-0.548574170158529	1237.0	10.14985052287256	2117.0	0.37312119726207993	1344.0	-0.8240343347639485	9.770692826486817	-15936.0	0.23543838136112813	384.0	0.0	1691.070556640625	55413.0	0.7804347826086957	1260.0	0.17575757575757575	-670.0	-0.5928143712574852	-464.0	-4.027181864082909	107.0	0.34860386143414096	28.0	218.0	-0.9179030863021367	
2040.0	-0.35314439459670677	1236.0	10.158578145543741	2101.0	0.3510663857022413	896.0	-0.5493562231759657	9.731453096259962	-15872.0	0.11771919068056406	192.0	0.0	1710.601806640625	56053.0	0.7760869565217391	1258.0	0.1494949494949495	-683.0	-0.6207584830339322	-450.0	-2.5416315864259245	73.0	1.0491128576097535	-27.0	122.0	-0.41564832291901077	
2040.0	-0.37728598233942073	1234.0	10.183451074932705	2103.0	0.3510736991187038	1024.0	-0.627835683629675	9.731453096259962	-15872.0	0.11771919068056406	192.0	0.0	1730.133056640625	56693.0	0.7869565217391304	1263.0	0.16565656565656567	-675.0	-0.56686626746507	-477.0	-0.4846817170860295	72.0	1.0702583229140707	-38.0	-12.0	-0.42100869613712455	
2040.0	-0.26792480926742024	1237.0	10.144664370723833	2094.0	0.3517794438073351	832.0	-0.510116492949111	9.613733905579398	-15680.0	0.19619865113427343	320.0	0.0	1749.664306640625	57333.0	0.7739130434782608	1257.0	0.1494949494949495	-683.0	-0.6187624750499002	-451.0	2.691194529695399	52.0	0.6571399907803438	-26.0	-219.0	-0.14858494909923536	
2036.0	-0.6216066078039437	1234.0	10.187421702019984	2123.0	0.39686297021926875	1088.0	-0.6670754138565297	9.809932556713672	-16000.0	0.19619865113427343	320.0	0.0	1769.195556640625	57973.0	0.7760869565217391	1258.0	0.16767676767676767	-674.0	-0.56686626746507	-477.0	3.8406919162160627	107.0	-0.19900015367466747	28.0	-295.0	-0.9965818241051264	
2034.0	-0.5245618889056791	1236.0	10.16059459250686	2115.0	0.42166153185528876	1344.0	-0.8240343347639485	9.770692826486817	-15936.0	0.19619865113427343	320.0	0.0	1788.726806640625	58613.0	0.7847826086956522	1262.0	0.16363636363636364	-676.0	-0.5848303393213574	-468.0	-1.2798982506724403	111.0	0.4146989457349589	11.0	39.0	-1.0062124243373822	
2036.0	-0.43849328641585733	1232.0	10.20810891938691	2108.0	0.3989009756068188	1088.0	-0.6670754138565297	9.692213366033108	-15808.0	0.11771919068056406	192.0	0.0	1808.258056640625	59253.0	0.7652173913043478	1253.0	0.14343434343434344	-686.0	-0.6207584830339322	-450.0	-0.0372010067959183	137.0	0.7638148130029757	-17.0	-42.0	-1.4140766591335618	
2041.0	-0.5358935430903412	1236.0	10.16250985585667	2116.0	0.33723001854935	1152.0	-0.7063151440833844	9.731453096259962	-15872.0	0.11771919068056406	192.0	0.0	1827.789306640625	59893.0	0.7847826086956522	1262.0	0.16363636363636364	-676.0	-0.5788423153692616	-471.0	0.8630479933111188	116.0	1.452999508350709	-68.0	-100.0	-1.1036875141536435	
2045.0	-0.3040057256120689	1238.0	10.13440495444314	2097.0	0.29107507662566	960.0	-0.5885959534028203	9.770692826486817	-15936.0	0.03923973022685469	64.0	0.0	1847.320556640625	60533.0	0.7782608695652175	1259.0	0.14545454545454545	-685.0	-0.5748502994011977	-473.0	0.6749556202772631	53.0	1.6376587937899099	-82.0	-87.0	-0.1436316854803392	
2044.0	-0.32839081487760363	1237.0	10.146849202492492	2099.0	0.30300386098458254	960.0	-0.5885959534028203	9.692213366033108	-15808.0	0.11771919068056406	192.0	0.0	1866.851806640625	61173.0	0.7695652173913043	1255.0	0.17777777777777778	-669.0	-0.5868263473053893	-467.0	2.227213615996312	-4.0	0.9851997037679321	-48.0	-188.0	0.7077658866537252	
2042.0	-0.34131062590949585	1241.0	10.097857565487015	2100.0	0.3264811320463775	768.0	-0.47087676272225626	9.731453096259962	-15872.0	0.03923973022685469	64.0	0.0	1886.383056640625	61813.0	0.7804347826086957	1260.0	0.15151515151515152	-682.0	-0.6167664670658684	-452.0	3.097089188788623	-1.0	0.5366763615073472	-22.0	-245.0	0.6534397544999465	
2040.0	-0.2688901802404703	1245.0	10.047142400001876	2094.0	0.35079457039038503	704.0	-0.4316370324954016	9.652973635806253	-15744.0	0.11771919068056406	192.0	0.0	1905.914306640625	62453.0	0.7760869565217391	1258.0	0.1494949494949495	-683.0	-0.596806387225549	-462.0	5.58189819102033	40.0	-0.5258661079041941	39.0	-408.0	0.005017519990937385	
2045.0	-0.4638221588588601	1249.0	10.003513083305537	2110.0	0.2881679935818161	1152.0	-0.7063151440833844	9.574494175352545	-15616.0	0.07847946045370938	128.0	0.0	1925.445556640625	63093.0	0.7739130434782608	1257.0	0.17373737373737375	-671.0	-0.596806387225549	-462.0	6.552571463242634	89.0	-0.9384276754224559	64.0	-472.0	-0.7499363610202591	
2043.0	-0.5366132537610123	1244.0	10.06546475513345	2116.0	0.31215598489324237	1088.0	-0.6670754138565297	9.613733905579398	-15680.0	0.03923973022685469	64.0	0.0	1944.976806640625	63733.0	0.7760869565217391	1258.0	0.1696969696969697	-673.0	-0.564870259481038	-478.0	5.7351936782600985	21.0	-0.8329519803916914	58.0	-418.0	0.29245794914895795	
2043.0	-0.5496494186054194	1251.0	9.980379249105976	2117.0	0.31117476818452355	1216.0	-0.745554874310239	9.574494175352545	-15616.0	0.07847946045370938	128.0	0.0	1964.508056640625	64373.0	0.7739130434782608	1257.0	0.15555555555555556	-680.0	-0.5988023952095809	-461.0	4.834925235354732	-25.0	-1.0081731401137657	72.0	-359.0	1.0010804054411295	
2037.0	-0.7082720908132472	1246.0	10.043100709416079	2130.0	0.3825049126920523	1280.0	-0.7847946045370937	9.574494175352545	-15616.0	0.11771919068056406	192.0	0.0	1984.039306640625	65013.0	0.7717391304347826	1256.0	0.16767676767676767	-674.0	-0.596806387225549	-462.0	2.931786814021892	-26.0	-1.0262481084892707	82.0	-235.0	1.0353209151297433	
2042.0	-0.6347504913426328	1248.0	10.018435081607004	2124.0	0.32275250855324605	1408.0	-0.8632740649908032	9.496014714898834	-15488.0	0.11771919068056406	192.0	0.0	2003.570556640625	117.0	0.7847826086956522	1262.0	0.14343434343434344	-686.0	-0.6127744510978045	-454.0	-2.4217681426289706	0.0	-0.3529656217976813	63.0	114.0	0.6934192023388372	
2043.0	-0.5129543515048234	1250.0	9.991830840383507	2114.0	0.31165623476830484	1408.0	-0.8632740649908032	9.613733905579398	-15680.0	0.11771919068056406	192.0	0.0	2023.101806640625	757.0	0.7782608695652175	1259.0	0.14545454545454545	-685.0	-0.594810379241517	-463.0	-3.6145761971420463	8.0	0.19968835514042393	32.0	192.0	0.5836742790816867	
2043.0	-0.34191182398809394	1247.0	10.024954522444915	2100.0	0.3136978968640862	768.0	-0.47087676272225626	9.613733905579398	-15680.0	0.07847946045370938	128.0	0.0	2042.633056640625	1397.0	0.7717391304347826	1256.0	0.16363636363636364	-676.0	-0.5628742514970061	-479.0	0.37753431751234323	8.0	0.37161257576425644	2.0	-68.0	0.5437531739351428	
2044.0	-0.6339014741820976	1243.0	10.079863183306962	2124.0	0.2992788941996823	1088.0	-0.6670754138565297	9.652973635806253	-15744.0	0.15695892090741875	256.0	0.0	2062.164306640625	2037.0	0.7739130434782608	1257.0	0.1696969696969697	-673.0	-0.5748502994011977	-473.0	6.937868281722802	46.0	0.10304874380702722	-9.0	-496.0	-0.09979693376779837	
2044.0	-0.5968443929666077	1239.0	10.127885513605229	2121.0	0.30012968831481984	1472.0	-0.9025137952176578	9.652973635806253	-15744.0	0.15695892090741875	256.0	0.0	2081.695556640625	2677.0	0.7739130434782608	1257.0	0.15757575757575756	-679.0	-0.5908183632734532	-465.0	3.5782684487344527	33.0	0.05910307946960125	9.0	-277.0	0.13151769574079236	
2046.0	-0.5113791473349424	1240.0	10.114448608784055	2114.0	0.27675358618075613	1152.0	-0.7063151440833844	9.731453096259962	-15872.0	0.03923973022685469	64.0	0.0	2101.226806640625	3317.0	0.7717391304347826	1256.0	0.15757575757575756	-679.0	-0.5688622754491018	-476.0	-0.9806447786414006	50.0	0.2518131116850212	18.0	20.0	-0.08144830506529703	
2050.0	-0.30363291759938404	1240.0	10.11121663675949	2097.0	0.2306059576735287	1024.0	-0.627835683629675	9.731453096259962	-15872.0	0.11771919068056406	192.0	0.0	2120.758056640625	3957.0	0.7673913043478261	1254.0	0.1595959595959596	-678.0	-0.594810379241517	-463.0	-1.528786316049513	36.0	0.47634920114810325	5.0	56.0	0.1369608669627765	
2050.0	-0.4388250776169362	1249.0	10.004212821593901	2108.0	0.2281839979216973	768.0	-0.47087676272225626	9.574494175352545	-15616.0	0.07847946045370938	128.0	0.0	2140.289306640625	4597.0	0.7782608695652175	1259.0	0.1494949494949495	-683.0	-0.5908183632734532	-465.0	2.0293954806419405	-2.0	-0.34914076130471505	42.0	-176.0	0.6793258170566984	
2044.0	-0.5842909136087258	1236.0	10.164210034271724	2120.0	0.30061846831506367	1344.0	-0.8240343347639485	9.849172286940528	-16064.0	-0.03923973022685469	-64.0	0.0	2159.820556640625	5237.0	0.7739130434782608	1257.0	0.16767676767676767	-674.0	-0.5808383233532934	-470.0	3.1276791691478163	-99.0	-0.9643528328088604	74.0	-247.0	2.1436281512743016	
2042.0	-0.5733104796411664	1244.0	10.065964975196794	2119.0	0.3238422076061586	1280.0	-0.7847946045370937	9.574494175352545	-15616.0	0.11771919068056406	192.0	0.0	2179.351806640625	5877.0	0.7891304347826087	1264.0	0.15757575757575756	-679.0	-0.5768463073852296	-472.0	-1.581416729205554	-148.0	-1.4460198391175734	126.0	60.0	2.935966258546809	
2039.0	-0.40275711394963676	1242.0	10.086183105919854	2105.0	0.3618945008835575	1024.0	-0.627835683629675	9.731453096259962	-15872.0	0.15695892090741875	256.0	0.0	2198.883056640625	6517.0	0.7782608695652175	1259.0	0.15353535353535352	-681.0	-0.6087824351297406	-456.0	-1.4046938103133069	-143.0	-2.1149480940949577	170.0	48.0	2.8581534019814603	
2036.0	-0.4639622592465152	1241.0	10.098889139033183	2110.0	0.39755408807497494	1216.0	-0.745554874310239	9.652973635806253	-15744.0	0.23543838136112813	384.0	0.0	2218.414306640625	7157.0	0.7804347826086957	1260.0	0.1616161616161616	-677.0	-0.564870259481038	-478.0	5.453926124301829	-107.0	-1.7458191947128343	115.0	-399.0	2.242038685525043	
2035.0	-0.8417791691870781	1239.0	10.130663965695668	2141.0	0.40614186001327857	1600.0	-0.9809932556713672	9.652973635806253	-15744.0	0.27467811158798283	448.0	0.0	2237.945556640625	7797.0	0.7760869565217391	1258.0	0.13333333333333333	-691.0	-0.5868263473053893	-467.0	10.070609275689485	19.0	-1.6606512671952074	93.0	-701.0	0.2795220441252345	
2034.0	-0.8785970664388636	1240.0	10.118973939418769	2144.0	0.417704973549076	1792.0	-1.0987124463519313	9.652973635806253	-15744.0	0.27467811158798283	448.0	0.0	2257.476806640625	8437.0	0.7695652173913043	1255.0	0.1616161616161616	-677.0	-0.594810379241517	-463.0	3.1732433045522574	64.0	-1.6029932821923212	123.0	-252.0	-0.335914942551226	
2036.0	-0.5736854464334095	1241.0	10.101105104221322	2119.0	0.39647901585498746	1280.0	-0.7847946045370937	9.692213366033108	-15808.0	0.19619865113427343	320.0	0.0	2277.008056640625	9077.0	0.782608695652174	1261.0	0.16767676767676767	-674.0	-0.5588822355289422	-481.0	-2.9441324563042173	60.0	-1.0297323518314967	113.0	147.0	-0.21390468304152058	
2035.0	-0.404334476899076	1251.0	9.975517148860183	2105.0	0.40896483876780376	832.0	-0.510116492949111	9.574494175352545	-15616.0	0.15695892090741875	256.0	0.0	2296.539306640625	9717.0	0.782608695652174	1261.0	0.14545454545454545	-685.0	-0.5928143712574852	-464.0	-0.22499177355005173	60.0	-0.7692094309074085	83.0	-30.0	-0.24109608986906222	
2036.0	-0.5879283249941292	1258.0	9.8941171347914	2120.0	0.39426670737508107	1280.0	-0.7847946045370937	9.45677498467198	-15424.0	0.19619865113427343	320.0	0.0	2316.070556640625	10357.0	0.7717391304347826	1256.0	0.1595959595959596	-678.0	-0.5908183632734532	-465.0	10.988937547257056	110.0	-0.5297754133087013	17.0	-761.0	-1.113691656841392	
2038.0	-0.8918659389083003	1253.0	9.961700695347298	2145.0	0.3678067812993296	1856.0	-1.137952176578786	9.574494175352545	-15616.0	0.15695892090741875	256.0	0.0	2335.601806640625	10997.0	0.7804347826086957	1260.0	0.15151515151515152	-682.0	-0.5588822355289422	-481.0	16.105031416900573	182.0	-0.43725566406766847	-10.0	-1095.0	-2.2599096297583596	
2033.0	-0.7448551216604448	1242.0	10.091646609842298	2133.0	0.43081731247217986	1600.0	-0.9809932556713672	9.652973635806253	-15744.0	0.27467811158798283	448.0	0.0	2355.133056640625	11637.0	0.7847826086956522	1262.0	0.14545454545454545	-685.0	-0.5848303393213574	-468.0	8.705965773666792	170.0	-0.7691612854217866	46.0	-613.0	-2.0034094676225993	
2037.0	-0.7198601991980791	1241.0	10.10429815947154	2131.0	0.38300100610875853	1408.0	-0.8632740649908032	9.731453096259962	-15872.0	0.15695892090741875	256.0	0.0	2374.664306640625	12277.0	0.7760869565217391	1258.0	0.14545454545454545	-685.0	-0.5888223552894213	-466.0	0.7816964023885166	196.0	-0.8614848116040631	90.0	-97.0	-2.3196040362672314	
2042.0	-0.5717417518099601	1231.0	10.224438177619973	2119.0	0.32544262690870246	1280.0	-0.7847946045370937	9.731453096259962	-15872.0	0.11771919068056406	192.0	0.0	2394.195556640625	12917.0	0.7869565217391304	1263.0	0.14343434343434344	-686.0	-0.5628742514970061	-479.0	-2.0305785272845815	218.0	-0.8922465060505794	106.0	86.0	-2.6260820474267743	
2047.0	-0.8158016055151969	1238.0	10.145222995319852	2139.0	0.2619689126932272	1792.0	-1.0987124463519313	9.770692826486817	-15936.0	0.07847946045370938	128.0	0.0	2413.726806640625	13557.0	0.782608695652174	1261.0	0.13535353535353536	-690.0	-0.5708582834331338	-475.0	5.042347274049708	125.0	-1.0063174798958547	77.0	-374.0	-1.2823626362385963	
2043.0	-0.8894417175778842	1238.0	10.145746565447805	2145.0	0.3094305183582172	1792.0	-1.0987124463519313	9.731453096259962	-15872.0	0.03923973022685469	64.0	0.0	2433.258056640625	14197.0	0.7717391304347826	1256.0	0.12323232323232323	-696.0	-0.5788423153692616	-471.0	1.2953105415784185	20.0	-1.2891621702520806	109.0	-129.0	0.35206590599105997	
2043.0	-0.8028947471606538	1228.0	10.265925500370587	2138.0	0.3114977774116173	1664.0	-1.020232985898222	9.731453096259962	-15872.0	0.15695892090741875	256.0	0.0	2452.789306640625	14837.0	0.7913043478260869	1265.0	0.15353535353535352	-681.0	-0.5788423153692616	-471.0	-2.0994544556620998	-16.0	-0.5950275471885212	77.0	93.0	0.9335420730737314	
2038.0	-0.8901765397054627	1239.0	10.132364144110722	2145.0	0.3695303097789922	1728.0	-1.0594727161250765	9.652973635806253	-15744.0	0.19619865113427343	320.0	0.0	2472.320556640625	15477.0	0.7804347826086957	1260.0	0.14747474747474748	-684.0	-0.6027944111776448	-459.0	-3.3962866698512397	64.0	-0.14125624484939986	56.0	177.0	-0.270219642807191	
2041.0	-0.8412835310232039	1241.0	10.107714083011386	2141.0	0.33362816094156844	1728.0	-1.0594727161250765	9.692213366033108	-15808.0	0.15695892090741875	256.0	0.0	2491.851806640625	16117.0	0.7760869565217391	1258.0	0.15757575757575756	-679.0	-0.5868263473053893	-467.0	-4.505503199815309	138.0	0.565671883219855	17.0	249.0	-1.384602762678653	
2044.0	-0.7071709370116583	1244.0	10.069150247092143	2130.0	0.29843907020923854	1536.0	-0.9417535254445125	9.652973635806253	-15744.0	0.11771919068056406	192.0	0.0	2511.383056640625	16757.0	0.7739130434782608	1257.0	0.1595959595959596	-678.0	-0.596806387225549	-462.0	-4.313767325437577	113.0	0.9419155420872799	-10.0	237.0	-1.006291984540301	
2048.0	-0.8036079814926502	1239.0	10.133024965624736	2138.0	0.2499206758654172	1664.0	-1.020232985898222	9.692213366033108	-15808.0	0.11771919068056406	192.0	0.0	2530.914306640625	17397.0	0.7847826086956522	1262.0	0.1414141414141414	-687.0	-0.6107784431137725	-455.0	-3.957524144104784	125.0	1.449159028079062	-45.0	214.0	-1.1923639220570512	
2050.0	-0.6571854096460436	1240.0	10.118356969032378	2126.0	0.22714183607579097	1408.0	-0.8632740649908032	9.613733905579398	-15680.0	0.03923973022685469	64.0	0.0	2550.445556640625	18037.0	0.7760869565217391	1258.0	0.16363636363636364	-676.0	-0.6027944111776448	-459.0	-4.664393320438433	120.0	1.2854202451830639	-31.0	260.0	-1.1092496029172887	
2051.0	-0.6692540447378423	1240.0	10.118841622385983	2127.0	0.21497780348732473	1344.0	-0.8240343347639485	9.770692826486817	-15936.0	0.0	0.0	0.0	2569.976806640625	18677.0	0.7782608695652175	1259.0	0.1616161616161616	-677.0	-0.5788423153692616	-471.0	-4.434105463347736	103.0	1.0341624487844685	-16.0	245.0	-0.8529973484083477	
2050.0	-0.5717244815734944	1239.0	10.128823686892959	2119.0	0.2281011125351223	1152.0	-0.7063151440833844	9.652973635806253	-15744.0	0.03923973022685469	64.0	0.0	2589.508056640625	19317.0	0.7739130434782608	1257.0	0.1414141414141414	-687.0	-0.594810379241517	-463.0	-5.739459759887709	87.0	0.7104836663200678	11.0	330.0	-0.5965977978383853	
2053.0	-0.5595265399918317	1242.0	10.092722034516092	2118.0	0.19171749711391725	1280.0	-0.7847946045370937	9.613733905579398	-15680.0	0.0	0.0	0.0	2609.039306640625	19957.0	0.7760869565217391	1258.0	0.16565656565656567	-675.0	-0.5628742514970061	-479.0	-5.394992521371675	114.0	0.2681519933370077	40.0	307.0	-1.0106888580562454	
2054.0	-0.4621133306399985	1244.0	10.06661023000107	2110.0	0.18038231839120106	1024.0	-0.627835683629675	9.692213366033108	-15808.0	0.0	0.0	0.0	2628.570556640625	20597.0	0.7869565217391304	1263.0	0.17373737373737375	-671.0	-0.564870259481038	-478.0	-0.0083549572432956	91.0	-0.12075037656358985	40.0	-44.0	-0.7147453477659701	
2051.0	-0.828829135241371	1249.0	10.01233024392887	2140.0	0.21231693879771832	1664.0	-1.020232985898222	9.53525444512569	-15552.0	0.07847946045370938	128.0	0.0	2648.101806640625	21237.0	0.7782608695652175	1259.0	0.16565656565656567	-675.0	-0.6067864271457086	-457.0	1.1911278145218889	66.0	-0.2644210141981097	43.0	-122.0	-0.34651203860149266	
2045.0	-0.6711977393612917	1250.0	9.995508548987331	2127.0	0.2860141924336097	1472.0	-0.9025137952176578	9.496014714898834	-15488.0	0.15695892090741875	256.0	0.0	2667.633056640625	21877.0	0.7760869565217391	1258.0	0.1595959595959596	-678.0	-0.6147704590818364	-453.0	-7.343525829518557	17.0	0.38973601598430213	37.0	435.0	0.48408164612788523	
2042.0	-0.574034507870954	1250.0	9.992823497155326	2119.0	0.3231035525434461	1216.0	-0.745554874310239	9.613733905579398	-15680.0	0.07847946045370938	128.0	0.0	2687.164306640625	22517.0	0.7804347826086957	1260.0	0.15555555555555556	-680.0	-0.5748502994011977	-473.0	-8.202476389486918	35.0	0.7153421090184462	20.0	491.0	0.21890689317243572	
2046.0	-0.3781177292634903	1247.0	10.026408482505731	2103.0	0.2772057990986874	832.0	-0.510116492949111	9.574494175352545	-15616.0	0.07847946045370938	128.0	0.0	2706.695556640625	23157.0	0.7760869565217391	1258.0	0.14343434343434344	-686.0	-0.5928143712574852	-464.0	-4.080357032616126	90.0	0.9116777902696446	-10.0	222.0	-0.6588162015369565	
2050.0	-0.40213001051634023	1248.0	10.015664412871434	2105.0	0.2286654645054786	1024.0	-0.627835683629675	9.53525444512569	-15552.0	0.0	0.0	0.0	2726.226806640625	23797.0	0.7717391304347826	1256.0	0.1797979797979798	-668.0	-0.5888223552894213	-466.0	2.6279096631150973	155.0	0.4993186582306187	-11.0	-216.0	-1.714492024387805	
2048.0	-0.6204946601045639	1237.0	10.153712182991663	2123.0	0.2519586812529673	1408.0	-0.8632740649908032	9.692213366033108	-15808.0	0.03923973022685469	64.0	0.0	2745.758056640625	24437.0	0.7782608695652175	1259.0	0.1616161616161616	-677.0	-0.5688622754491018	-476.0	6.841946310724075	145.0	-0.3098070700693621	23.0	-491.0	-1.604541136111043	
2051.0	-0.7904446689379374	1234.0	10.194445283969825	2137.0	0.2145219338611622	1600.0	-0.9809932556713672	9.731453096259962	-15872.0	0.03923973022685469	64.0	0.0	2765.289306640625	25077.0	0.7804347826086957	1260.0	0.1616161616161616	-677.0	-0.6167664670658684	-452.0	2.426590261149239	119.0	-0.22821083198701314	37.0	-203.0	-1.1649503132578805	
2049.0	-0.4734708901793591	1232.0	10.211947229441403	2111.0	0.24196307664563244	1152.0	-0.7063151440833844	9.809932556713672	-16000.0	0.0	0.0	0.0	2784.820556640625	25717.0	0.7847826086956522	1262.0	0.17575757575757575	-670.0	-0.56686626746507	-477.0	-2.341938481891654	100.0	-0.057805204313843006	47.0	108.0	-0.8282916417970532	
2052.0	-0.5942930239258857	1226.0	10.288266196023347	2121.0	0.2053734666607336	1344.0	-0.8240343347639485	9.888412017167381	-16128.0	0.03923973022685469	64.0	0.0	2804.351806640625	26357.0	0.7804347826086957	1260.0	0.16363636363636364	-676.0	-0.5628742514970061	-479.0	1.1720093931980808	95.0	-0.20047027527826405	40.0	-121.0	-0.7873854931715245	
2052.0	-0.4603075776246461	1227.0	10.27336754778649	2110.0	0.20656433464137747	1024.0	-0.627835683629675	9.927651747394236	-16192.0	0.03923973022685469	64.0	0.0	2823.883056640625	26997.0	0.7717391304347826	1256.0	0.1717171717171717	-672.0	-0.596806387225549	-462.0	1.715944754264127	44.0	-0.2993397998742945	42.0	-156.0	-0.017159447542641267	
2053.0	-0.6554895341045314	1229.0	10.25316498377317	2126.0	0.19236229666536103	1408.0	-0.8632740649908032	9.809932556713672	-16000.0	-0.03923973022685469	-64.0	0.0	2843.414306640625	27637.0	0.7804347826086957	1260.0	0.1616161616161616	-677.0	-0.6087824351297406	-456.0	3.5502214563846612	39.0	-1.1197024558507338	88.0	-276.0	0.04054341281257925	
2056.0	-0.6307381131649864	1229.0	10.253387852062797	2124.0	0.15646746124439978	1280.0	-0.7847946045370937	9.888412017167381	-16128.0	-0.07847946045370938	-128.0	0.0	2862.945556640625	28277.0	0.7847826086956522	1262.0	0.16767676767676767	-674.0	-0.5848303393213574	-468.0	-4.260400022716774	26.0	-1.1836920960774595	128.0	233.0	0.31636825878230085	
2055.0	-0.28913790239761095	1226.0	10.282826042165514	2096.0	0.172226038024185	896.0	-0.5493562231759657	9.809932556713672	-16000.0	0.0	0.0	0.0	2882.476806640625	28917.0	0.7782608695652175	1259.0	0.16767676767676767	-674.0	-0.6107784431137725	-455.0	-10.57943394029447	-24.0	-1.5239307737709191	178.0	645.0	1.1400148717223364	
2054.0	-0.32643848513592144	1231.0	10.222375030527637	2099.0	0.18329671485150745	704.0	-0.4316370324954016	9.770692826486817	-15936.0	0.0	0.0	0.0	2902.008056640625	29557.0	0.7934782608695652	1266.0	0.16565656565656567	-675.0	-0.564870259481038	-478.0	-8.43852426794749	-18.0	-2.2090180317847343	214.0	505.0	1.0273510221471556	
2055.0	-0.2532875348984337	1232.0	10.208945909061335	2093.0	0.171845740368135	704.0	-0.4316370324954016	9.849172286940528	-16064.0	-0.03923973022685469	-64.0	0.0	2921.539306640625	30197.0	0.7804347826086957	1260.0	0.1696969696969697	-673.0	-0.5708582834331338	-475.0	-5.775845719563705	-9.0	-2.853632789773047	245.0	331.0	0.8638421073857512	
2051.0	-0.7169338633651141	1231.0	10.229538712865134	2131.0	0.21560797620584352	1600.0	-0.9809932556713672	9.692213366033108	-15808.0	0.03923973022685469	64.0	0.0	2941.070556640625	30837.0	0.782608695652174	1261.0	0.17373737373737375	-671.0	-0.5908183632734532	-465.0	-4.465321659372425	12.0	-3.4717997338956543	281.0	245.0	0.5313452318028498	
2045.0	-0.4504239798995593	1239.0	10.125169328353746	2109.0	0.2895185378218912	1024.0	-0.627835683629675	9.652973635806253	-15744.0	0.11771919068056406	192.0	0.0	2960.601806640625	31477.0	0.7847826086956522	1262.0	0.17777777777777778	-669.0	-0.6127744510978045	-454.0	-5.718916515853041	-28.0	-3.5887941776225705	293.0	327.0	1.152246199379063	
2039.0	-0.6218414742085315	1239.0	10.127185775316864	2123.0	0.36011368397493865	1280.0	-0.7847946045370937	9.770692826486817	-15936.0	0.15695892090741875	256.0	0.0	2980.133056640625	32117.0	0.7869565217391304	1263.0	0.17373737373737375	-671.0	-0.5908183632734532	-465.0	-1.8751196120089735	-52.0	-4.8004584349702	355.0	76.0	1.4788272417474664	
2041.0	-0.7558226029506548	1240.0	10.118180800871968	2134.0	0.3345874374008998	1664.0	-1.020232985898222	9.692213366033108	-15808.0	0.19619865113427343	320.0	0.0	2999.664306640625	32757.0	0.7804347826086957	1260.0	0.18787878787878787	-664.0	-0.5828343313373254	-469.0	7.1110028323594845	0.0	-3.2353370363795166	211.0	-509.0	0.5980914925889527	
2050.0	-1.1081489522649777	1239.0	10.13965729447941	2163.0	0.22284520390407198	2112.0	-1.2949110974862048	9.731453096259962	-15872.0	0.0	0.0	0.0	3019.195556640625	33397.0	0.7804347826086957	1260.0	0.18787878787878787	-664.0	-0.564870259481038	-478.0	8.782164266234766	84.0	-2.1311319182264548	133.0	-618.0	-0.6961866616737545	
2052.0	-0.6937554878158919	1242.0	10.095192001413336	2129.0	0.20244810007573344	1536.0	-0.9417535254445125	9.731453096259962	-15872.0	0.03923973022685469	64.0	0.0	3038.726806640625	34037.0	0.7760869565217391	1258.0	0.18181818181818182	-667.0	-0.6207584830339322	-450.0	-3.225718593126692	104.0	-0.8934108733833949	107.0	165.0	-0.8802903425858434	
2052.0	-0.571720164014378	1241.0	10.104920064211207	2119.0	0.20376573394172726	1280.0	-0.7847946045370937	9.692213366033108	-15808.0	0.07847946045370938	128.0	0.0	3058.258056640625	34677.0	0.7782608695652175	1259.0	0.19595959595959597	-660.0	-0.5908183632734532	-465.0	-7.751056609373192	73.0	0.3921985843343197	41.0	461.0	-0.3635540726895381	
2056.0	-0.4370020543651181	1240.0	10.11535564865231	2108.0	0.15702449979829355	1024.0	-0.627835683629675	9.574494175352545	-15616.0	-0.03923973022685469	-64.0	0.0	3077.789306640625	35317.0	0.7891304347826087	1264.0	0.18787878787878787	-664.0	-0.5608782435129741	-480.0	-3.073111500468906	115.0	0.7218500929743498	-1.0	156.0	-1.0491167937405583	
2058.0	-0.39981998421888065	1237.0	10.151664602609065	2105.0	0.13366302449715484	1088.0	-0.6670754138565297	9.770692826486817	-15936.0	-0.07847946045370938	-128.0	0.0	3097.320556640625	35957.0	0.782608695652174	1261.0	0.1898989898989899	-663.0	-0.6027944111776448	-459.0	1.516001733739589	130.0	0.9662959258392693	-38.0	-143.0	-1.3231448082119208	
2055.0	-1.0218325306932188	1236.0	10.175696680017321	2156.0	0.163827798119747	1920.0	-1.1771919068056407	9.692213366033108	-15808.0	0.0	0.0	0.0	3116.851806640625	36597.0	0.7760869565217391	1258.0	0.1898989898989899	-663.0	-0.6147704590818364	-453.0	7.92702625233936	172.0	1.1753251075644935	-80.0	-561.0	-2.0260383233598955	
2057.0	-0.534531617529466	1241.0	10.105373584145333	2116.0	0.14390119075049598	1088.0	-0.6670754138565297	9.652973635806253	-15744.0	-0.07847946045370938	-128.0	0.0	3136.383056640625	37237.0	0.782608695652174	1261.0	0.18585858585858586	-665.0	-0.564870259481038	-478.0	-4.025452861451997	166.0	1.418859817593392	-41.0	218.0	-1.815258779370271	
2060.0	-0.36299992818753696	1237.0	10.151402817545089	2102.0	0.10993222166465984	896.0	-0.5493562231759657	9.692213366033108	-15808.0	-0.11771919068056406	-192.0	0.0	3155.914306640625	37877.0	0.782608695652174	1261.0	0.1696969696969697	-673.0	-0.5988023952095809	-461.0	-9.87025916618425	87.0	2.017477559870871	-57.0	600.0	-0.5552898037754199	
2058.0	-0.3637282739764409	1241.0	10.102164962185375	2102.0	0.1335289451953423	768.0	-0.47087676272225626	9.692213366033108	-15808.0	-0.03923973022685469	-64.0	0.0	3175.445556640625	38517.0	0.782608695652174	1261.0	0.1696969696969697	-673.0	-0.5848303393213574	-468.0	-1.3968241645975283	107.0	2.4743765427613527	-126.0	48.0	-0.9442066632969904	
2056.0	-0.22938513111942405	1237.0	10.147740675651004	2091.0	0.15942451930073748	832.0	-0.510116492949111	9.731453096259962	-15872.0	0.0	0.0	0.0	3194.976806640625	39157.0	0.7847826086956522	1262.0	0.18181818181818182	-667.0	-0.5828343313373254	-469.0	3.348419123948712	100.0	2.649594182181736	-160.0	-261.0	-0.8851952178554569	
2058.0	-1.0093932463682933	1237.0	10.16397552032094	2155.0	0.12769040105277946	2112.0	-1.2949110974862048	9.652973635806253	-15744.0	-0.07847946045370938	-128.0	0.0	3214.508056640625	39797.0	0.7804347826086957	1260.0	0.17575757575757575	-670.0	-0.5988023952095809	-461.0	13.909051906467585	187.0	2.5821945508455784	-201.0	-950.0	-2.3139954620304555	
2059.0	-0.5330792435107745	1231.0	10.227752917546514	2116.0	0.12104312228252603	1024.0	-0.627835683629675	9.809932556713672	-16000.0	-0.07847946045370938	-128.0	0.0	3234.039306640625	40437.0	0.7760869565217391	1258.0	0.1919191919191919	-662.0	-0.5828343313373254	-469.0	0.8228588280953111	149.0	2.5403404859940473	-139.0	-97.0	-1.6051867631858963	
2057.0	-0.25255918910952974	1228.0	10.258183764421048	2093.0	0.1482490168374525	832.0	-0.510116492949111	9.849172286940528	-16064.0	-0.07847946045370938	-128.0	0.0	3253.570556640625	41077.0	0.7717391304347826	1256.0	0.17777777777777778	-669.0	-0.6047904191616768	-458.0	-9.899155973072176	58.0	3.29120151441777	-143.0	603.0	-0.11393619692327064	
2056.0	-0.19232804990393426	1233.0	10.19576300594927	2088.0	0.16027531341587503	640.0	-0.39239730226854685	9.692213366033108	-15808.0	-0.07847946045370938	-128.0	0.0	3273.101806640625	41717.0	0.7782608695652175	1259.0	0.17373737373737375	-671.0	-0.6067864271457086	-457.0	10.560137380004585	110.0	2.6335023616903914	-192.0	-731.0	-1.1094036551688673	
2057.0	-0.8266440978746591	1237.0	10.16004381000801	2140.0	0.14152676820567084	1728.0	-1.0594727161250765	9.770692826486817	-15936.0	-0.03923973022685469	-64.0	0.0	3292.633056640625	42357.0	0.7782608695652175	1259.0	0.18787878787878787	-664.0	-0.5688622754491018	-476.0	12.768762273091324	97.0	2.2919632789068944	-180.0	-875.0	-0.9337712729210274	
2055.0	-0.9000385496349675	1237.0	10.161044250134701	2146.0	0.1648992136315033	1728.0	-1.0594727161250765	9.731453096259962	-15872.0	-0.03923973022685469	-64.0	0.0	3312.164306640625	42997.0	0.7847826086956522	1262.0	0.17575757575757575	-670.0	-0.5708582834331338	-475.0	-1.7077023255499801	-41.0	2.900728263638111	-159.0	70.0	1.3098526886547397	
2053.0	-0.5586818403904129	1235.0	10.178053758897804	2118.0	0.19257926135374856	1088.0	-0.6670754138565297	9.770692826486817	-15936.0	0.0	0.0	0.0	3331.695556640625	43637.0	0.7804347826086957	1260.0	0.16767676767676767	-674.0	-0.5868263473053893	-467.0	-9.519322620814755	-3.0	3.5125124181553504	-162.0	579.0	0.8100221235465506	
2052.0	-0.3770187342414597	1244.0	10.064409831522672	2103.0	0.2053076459125711	1024.0	-0.627835683629675	9.574494175352545	-15616.0	-0.03923973022685469	-64.0	0.0	3351.226806640625	44277.0	0.782608695652174	1261.0	0.1898989898989899	-663.0	-0.5708582834331338	-475.0	-5.005022403495916	93.0	3.6465252623063287	-188.0	284.0	-0.6951969242540144	
2053.0	-0.4744276260341763	1244.0	10.06661801335594	2111.0	0.1923074460418923	1152.0	-0.7063151440833844	9.692213366033108	-15808.0	-0.03923973022685469	-64.0	0.0	3370.758056640625	44917.0	0.7869565217391304	1263.0	0.19797979797979798	-659.0	-0.5608782435129741	-480.0	-3.5725200415286618	60.0	3.6616795860191647	-197.0	191.0	-0.20762080718927614	
2049.0	-0.38873399033659756	1237.0	10.149272469260518	2104.0	0.24218369804225118	896.0	-0.5493562231759657	9.770692826486817	-15936.0	0.03923973022685469	64.0	0.0	3390.289306640625	45557.0	0.782608695652174	1261.0	0.18383838383838383	-666.0	-0.6047904191616768	-458.0	-0.1775728622176655	66.0	2.529491227565632	-137.0	-31.0	-0.3328250318340971	
2048.0	-0.6197706318747763	1231.0	10.22685366103313	2123.0	0.2526973363156798	1408.0	-0.8632740649908032	9.809932556713672	-16000.0	0.03923973022685469	64.0	0.0	3409.820556640625	46197.0	0.7847826086956522	1262.0	0.19595959595959597	-660.0	-0.5608782435129741	-480.0	-3.612849317993997	143.0	2.4256254779002684	-111.0	192.0	-1.469574928873292	
2051.0	-0.39959375293252564	1228.0	10.259707774675691	2105.0	0.21908306792827498	896.0	-0.5493562231759657	9.849172286940528	-16064.0	0.03923973022685469	64.0	0.0	3429.351806640625	46837.0	0.7891304347826087	1264.0	0.18787878787878787	-664.0	-0.56686626746507	-477.0	-6.178888438530241	151.0	2.24926863088666	-87.0	359.0	-1.565587541470211	
2053.0	-0.47225554134481373	1226.0	10.286042447480341	2111.0	0.19452341123002992	1152.0	-0.7063151440833844	9.849172286940528	-16064.0	0.0	0.0	0.0	3448.883056640625	47477.0	0.7782608695652175	1259.0	0.1898989898989899	-663.0	-0.6047904191616768	-458.0	-2.55788624959764	183.0	2.631407212818479	-128.0	123.0	-2.088489578568663	
2061.0	-0.44664862690605894	1224.0	10.311837983447298	2109.0	0.09865189356541237	1024.0	-0.627835683629675	9.888412017167381	-16128.0	-0.11771919068056406	-192.0	0.0	3468.414306640625	48117.0	0.7934782608695652	1266.0	0.18383838383838383	-666.0	-0.5828343313373254	-469.0	-4.070206529350845	119.0	2.3678942606138014	-106.0	222.0	-1.0999823453528794	
2055.0	-0.39801638998308647	1219.0	10.370373731735363	2105.0	0.17201273004402876	960.0	-0.5885959534028203	10.006131207847945	-16320.0	-0.03923973022685469	-64.0	0.0	3487.945556640625	48757.0	0.7869565217391304	1263.0	0.17373737373737375	-671.0	-0.5908183632734532	-465.0	-4.407102135483886	60.0	1.5458534562801878	-52.0	244.0	-0.1992749862497239	
2056.0	-0.30084452337451595	1223.0	10.319881434539852	2097.0	0.160431332967075	768.0	-0.47087676272225626	9.809932556713672	-16000.0	-0.15695892090741875	-256.0	0.0	3507.476806640625	49397.0	0.7804347826086957	1260.0	0.19797979797979798	-659.0	-0.5868263473053893	-467.0	-3.450192228713351	28.0	1.5947173798937269	-61.0	182.0	0.27784792989169627	
2059.0	-0.3254623202650803	1228.0	10.260137944545209	2099.0	0.12344314178496994	960.0	-0.5885959534028203	9.888412017167381	-16128.0	-0.03923973022685469	-64.0	0.0	3527.008056640625	50037.0	0.7847826086956522	1262.0	0.20404040404040405	-656.0	-0.5808383233532934	-470.0	-1.2821372513446943	-11.0	1.4051020139792976	-60.0	41.0	0.8493232736541314	
2059.0	-0.3989731258379037	1231.0	10.225044515649902	2105.0	0.12235709944028861	896.0	-0.5493562231759657	9.849172286940528	-16064.0	-0.15695892090741875	-256.0	0.0	3546.539306640625	50677.0	0.7760869565217391	1258.0	0.18383838383838383	-666.0	-0.6007984031936129	-460.0	2.858644342580879	-25.0	0.883498948554029	-45.0	-229.0	1.020843214368868	
2060.0	-0.6428002719181105	1232.0	10.218017071393774	2125.0	0.10780036076584096	1344.0	-0.8240343347639485	9.731453096259962	-15872.0	-0.07847946045370938	-128.0	0.0	3566.070556640625	51317.0	0.7804347826086957	1260.0	0.17777777777777778	-669.0	-0.6067864271457086	-457.0	-0.35665047417481216	19.0	0.7892239424298304	-22.0	-20.0	0.38379464162387744	
2059.0	-0.3143568973667734	1237.0	10.15017950912877	2098.0	0.12245461165978863	768.0	-0.47087676272225626	9.731453096259962	-15872.0	-0.07847946045370938	-128.0	0.0	3585.601806640625	51957.0	0.782608695652174	1261.0	0.20202020202020202	-657.0	-0.564870259481038	-478.0	-4.455477609658136	30.0	0.8563067700467063	-7.0	247.0	0.25748253275057376	
2060.0	-0.375553407545419	1240.0	10.115078296878593	2103.0	0.10944344166441605	896.0	-0.5493562231759657	9.692213366033108	-15808.0	-0.03923973022685469	-64.0	0.0	3605.133056640625	52597.0	0.7847826086956522	1262.0	0.18383838383838383	-666.0	-0.596806387225549	-462.0	0.5467521474126738	62.0	1.232266935724862	-54.0	-79.0	-0.27923178002925986	
2062.0	-0.30215895578511054	1240.0	10.114077856751903	2097.0	0.08607099623858358	768.0	-0.47087676272225626	9.692213366033108	-15808.0	-0.15695892090741875	-256.0	0.0	3624.664306640625	53237.0	0.7804347826086957	1260.0	0.1797979797979798	-668.0	-0.6147704590818364	-453.0	8.208948420128786	37.0	1.2234990846010687	-90.0	-578.0	0.02437439412570834	
2065.0	-0.8259027994084058	1239.0	10.137570797322464	2140.0	0.04492390889480323	1792.0	-1.0987124463519313	9.731453096259962	-15872.0	-0.07847946045370938	-128.0	0.0	3644.195556640625	53877.0	0.7891304347826087	1264.0	0.2	-658.0	-0.56686626746507	-477.0	7.043617529712656	32.0	1.2565867782345967	-87.0	-502.0	0.11207333040629552	
2060.0	-0.22949716737282244	1242.0	10.087743183947254	2091.0	0.11063065293682862	576.0	-0.3531575720416922	9.692213366033108	-15808.0	-0.11771919068056406	-192.0	0.0	3663.726806640625	54517.0	0.7847826086956522	1262.0	0.18383838383838383	-666.0	-0.5728542914171657	-474.0	-7.370864801987514	-35.0	1.4694491048408675	-37.0	438.0	1.2752295605674038	
2058.0	-0.2546084436477029	1246.0	10.038997765296015	2093.0	0.1339884715297361	832.0	-0.510116492949111	9.652973635806253	-15744.0	-0.15695892090741875	-256.0	0.0	3683.258056640625	55157.0	0.782608695652174	1261.0	0.2	-658.0	-0.56686626746507	-477.0	-3.3417601390391303	-4.0	1.2078827358890136	-37.0	175.0	0.7634556242040796	
2059.0	-0.46234387948547007	1251.0	9.982470680616197	2110.0	0.11929765355347592	1024.0	-0.627835683629675	9.53525444512569	-15552.0	-0.07847946045370938	-128.0	0.0	3702.789306640625	55797.0	0.7760869565217391	1258.0	0.1898989898989899	-663.0	-0.5888223552894213	-466.0	1.4641406502223404	66.0	0.9459625997834655	-39.0	-139.0	-0.3492421669584972	
2055.0	-0.5973033318779926	1254.0	9.947654603494605	2121.0	0.16579266934267212	1408.0	-0.8632740649908032	9.53525444512569	-15552.0	-0.03923973022685469	-64.0	0.0	3722.320556640625	56437.0	0.7847826086956522	1262.0	0.1919191919191919	-662.0	-0.5928143712574852	-464.0	1.5893519215626364	58.0	1.0673135088792232	-48.0	-147.0	-0.22882127586961878	
2055.0	-0.5228271553321192	1243.0	10.08027000311187	2115.0	0.1678635851043035	1088.0	-0.6670754138565297	9.574494175352545	-15616.0	-0.11771919068056406	-192.0	0.0	3741.851806640625	57077.0	0.7782608695652175	1259.0	0.20202020202020202	-657.0	-0.5768463073852296	-472.0	-0.9408963442874508	72.0	1.491815958418564	-64.0	18.0	-0.4164465498651103	
2061.0	-0.3639631403810288	1246.0	10.041929035482255	2102.0	0.09677965895101225	1024.0	-0.627835683629675	9.652973635806253	-15744.0	-0.15695892090741875	-256.0	0.0	3761.383056640625	57717.0	0.7934782608695652	1266.0	0.19393939393939394	-661.0	-0.5808383233532934	-470.0	-3.3692826128945614	136.0	2.119557108877875	-92.0	176.0	-1.36554671759729	
2061.0	-0.3150766080374445	1245.0	10.05313440840555	2098.0	0.09738057800368104	704.0	-0.4316370324954016	9.652973635806253	-15744.0	-0.07847946045370938	-128.0	0.0	3780.914306640625	58357.0	0.7847826086956522	1262.0	0.1919191919191919	-662.0	-0.5988023952095809	-461.0	-0.9869604404597085	197.0	1.8559252181029717	-83.0	20.0	-2.3171265933140344	
2061.0	-0.4850330932094926	1239.0	10.129722943406342	2112.0	0.09644689850196848	1152.0	-0.7063151440833844	9.731453096259962	-15872.0	-0.07847946045370938	-128.0	0.0	3800.445556640625	58997.0	0.7804347826086957	1260.0	0.2	-658.0	-0.596806387225549	-462.0	-0.1932499222155314	218.0	1.7384961126917868	-78.0	-32.0	-2.6444553334774645	
2063.0	-0.314106919505278	1239.0	10.126752756445754	2098.0	0.07403007282723606	768.0	-0.47087676272225626	9.692213366033108	-15808.0	-0.11771919068056406	-192.0	0.0	3819.976806640625	59637.0	0.7913043478260869	1265.0	0.18585858585858586	-665.0	-0.5848303393213574	-468.0	-4.084825929641258	173.0	1.7271008132349635	-61.0	222.0	-1.9211289270153746	
2064.0	-0.28935981612484957	1237.0	10.150879247417135	2096.0	0.06247061599966984	832.0	-0.510116492949111	9.770692826486817	-15936.0	-0.15695892090741875	-256.0	0.0	3839.508056640625	60277.0	0.7869565217391304	1263.0	0.1919191919191919	-662.0	-0.6007984031936129	-460.0	-3.3085612925766648	129.0	1.9461548086212843	-81.0	172.0	-1.259690052473473	
2064.0	-0.22936786088295835	1245.0	10.05212618492399	2091.0	0.06208300492715731	704.0	-0.4316370324954016	9.731453096259962	-15872.0	-0.11771919068056406	-192.0	0.0	3859.039306640625	60917.0	0.7847826086956522	1262.0	0.20606060606060606	-655.0	-0.5628742514970061	-479.0	0.12876142937878907	101.0	1.4649953704189762	-66.0	-52.0	-0.8682077663850427	
2061.0	-0.4853951073243864	1242.0	10.093152204385609	2112.0	0.0960775709706122	1152.0	-0.7063151440833844	9.692213366033108	-15808.0	-0.15695892090741875	-256.0	0.0	3878.570556640625	61557.0	0.782608695652174	1261.0	0.17575757575757575	-670.0	-0.6147704590818364	-453.0	2.9359781909755798	88.0	1.1267718048315578	-57.0	-235.0	-0.6985613028223033	
2064.0	-0.4118778254128884	1242.0	10.092390199258288	2106.0	0.06066054542520097	960.0	-0.5885959534028203	9.574494175352545	-15616.0	-0.11771919068056406	-192.0	0.0	3898.101806640625	62197.0	0.7782608695652175	1259.0	0.2	-658.0	-0.6127744510978045	-454.0	-2.171785397856087	63.0	1.0472729201914306	-29.0	98.0	-0.26725553005185737	
2064.0	-0.3021546382259941	1242.0	10.09017423407015	2097.0	0.061735617645188534	832.0	-0.510116492949111	9.731453096259962	-15872.0	-0.07847946045370938	-128.0	0.0	3917.633056640625	62837.0	0.7804347826086957	1260.0	0.19595959595959597	-660.0	-0.6207584830339322	-450.0	-6.576638322976049	3.0	1.6621763688459923	-52.0	386.0	0.6893405277164525	
2064.0	-0.2409559692677903	1240.0	10.113323634979452	2092.0	0.06257909834386359	640.0	-0.39239730226854685	9.731453096259962	-15872.0	-0.15695892090741875	-256.0	0.0	3937.164306640625	63477.0	0.7847826086956522	1262.0	0.20202020202020202	-657.0	-0.5688622754491018	-476.0	-3.9502048939259047	-19.0	1.5259625867583548	-56.0	215.0	0.9976769538822249	
2061.0	-0.4121256444948255	1241.0	10.103865140600428	2106.0	0.096917394961056	1024.0	-0.627835683629675	9.692213366033108	-15808.0	-0.07847946045370938	-128.0	0.0	3956.695556640625	64117.0	0.7804347826086957	1260.0	0.19797979797979798	-659.0	-0.5888223552894213	-466.0	0.18994118623585568	-4.0	1.3818664285974007	-65.0	-55.0	0.7281386109513298	
2060.0	-0.7169144343490902	1240.0	10.121972410797243	2131.0	0.10609877253556585	1408.0	-0.8632740649908032	9.770692826486817	-15936.0	-0.11771919068056406	-192.0	0.0	3976.226806640625	64757.0	0.7760869565217391	1258.0	0.2080808080808081	-654.0	-0.5808383233532934	-470.0	0.7069319341948836	3.0	1.0053148414656357	-42.0	-89.0	0.6165048251447433	
2059.0	-0.33837781373785614	1234.0	10.18724268485798	2100.0	0.12258503425336989	832.0	-0.510116492949111	9.849172286940528	-16064.0	-0.07847946045370938	-128.0	0.0	3995.758056640625	65397.0	0.7891304347826087	1264.0	0.20404040404040405	-656.0	-0.5928143712574852	-464.0	-7.433675703547439	36.0	0.8723369987698331	6.0	441.0	0.1960097608377558	
2064.0	-0.4832165462963492	1227.0	10.276721204487378	2112.0	0.0617904682686573	1024.0	-0.627835683629675	9.809932556713672	-16000.0	-0.15695892090741875	-256.0	0.0	4015.289306640625	501.0	0.7847826086956522	1262.0	0.20404040404040405	-656.0	-0.6027944111776448	-459.0	-6.288217239474024	107.0	1.3905296447007927	-31.0	366.0	-0.8952927325482255	
2066.0	-0.4215308742925039	1223.0	10.324727968075905	2107.0	0.03879100708241234	1024.0	-0.627835683629675	9.966891477621092	-16256.0	-0.19619865113427343	-320.0	0.0	4034.820556640625	1141.0	0.782608695652174	1261.0	0.19393939393939394	-661.0	-0.6227544910179642	-449.0	-3.2186092578867487	136.0	1.8392051759030643	-74.0	166.0	-1.3670534511473682	
2066.0	-0.3973892865497899	1225.0	10.29985503868694	2105.0	0.03878369366594983	832.0	-0.510116492949111	9.888412017167381	-16128.0	-0.23543838136112813	-384.0	0.0	4054.351806640625	1781.0	0.782608695652174	1261.0	0.19797979797979798	-659.0	-0.5708582834331338	-475.0	-4.995250656037327	49.0	2.419676787996634	-108.0	283.0	-0.02609312081605259	
2065.0	-0.0694285974849777	1234.0	10.18325649106096	2078.0	0.052945507851422484	576.0	-0.3531575720416922	9.770692826486817	-15936.0	-0.19619865113427343	-320.0	0.0	4073.883056640625	2421.0	0.7804347826086957	1260.0	0.21616161616161617	-650.0	-0.5908183632734532	-465.0	-6.701412852845649	-16.0	2.708777003132515	-122.0	395.0	0.9795616570455667	
2058.0	-0.13196976298803278	1240.0	10.109677059795107	2083.0	0.13592165128132372	320.0	-0.19619865113427343	9.888412017167381	-16128.0	-0.07847946045370938	-128.0	0.0	4093.414306640625	3061.0	0.782608695652174	1261.0	0.22424242424242424	-646.0	-0.5608782435129741	-480.0	-4.545012345675684	-71.0	2.6451714817728655	-130.0	255.0	1.7944995531145516	
2059.0	-0.1807334651804276	1241.0	10.09871012187118	2087.0	0.12327615210907616	640.0	-0.39239730226854685	9.731453096259962	-15872.0	-0.11771919068056406	-192.0	0.0	4112.945556640625	3701.0	0.7869565217391304	1263.0	0.19797979797979798	-659.0	-0.6007984031936129	-460.0	0.2674064593657299	4.0	1.57624431446529	-78.0	-60.0	0.6056909544177496	
2059.0	-0.22889596929422437	1236.0	10.160646226989353	2091.0	0.12341388811911994	704.0	-0.4316370324954016	9.692213366033108	-15808.0	-0.07847946045370938	-128.0	0.0	4132.476806640625	4341.0	0.7782608695652175	1259.0	0.21414141414141413	-651.0	-0.5988023952095809	-461.0	1.2223207285051667	60.0	1.2290081436871791	-57.0	-123.0	-0.2555692148896144	
2058.0	-0.49674834930463035	1232.0	10.214585581144188	2113.0	0.13332295063164856	1024.0	-0.627835683629675	9.731453096259962	-15872.0	-0.11771919068056406	-192.0	0.0	4152.008056640625	4981.0	0.7847826086956522	1262.0	0.2101010101010101	-653.0	-0.5568862275449102	-482.0	-3.1640611607934486	59.0	1.5186994544152257	-56.0	163.0	-0.1964962705213431	
2064.0	-0.13123278208089598	1240.0	10.111107669791313	2083.0	0.06365417056385116	576.0	-0.3531575720416922	9.692213366033108	-15808.0	-0.07847946045370938	-128.0	0.0	4171.539306640625	5621.0	0.7869565217391304	1263.0	0.20202020202020202	-657.0	-0.5608782435129741	-480.0	-5.881277725366146	-9.0	1.9513064772311024	-75.0	341.0	0.8648964274437755	
2061.0	-0.20390536439097517	1233.0	10.197201399300347	2089.0	0.0999329603490937	576.0	-0.3531575720416922	9.770692826486817	-15936.0	-0.15695892090741875	-256.0	0.0	4191.070556640625	6261.0	0.782608695652174	1261.0	0.2101010101010101	-653.0	-0.5808383233532934	-470.0	0.20904288854974415	1.0	1.8333538876551894	-95.0	-56.0	0.6519019665517649	
2065.0	0.0027548229999017765	1242.0	10.084257210213579	2072.0	0.052677349247797454	320.0	-0.19619865113427343	9.652973635806253	-15744.0	-0.23543838136112813	-384.0	0.0	4210.601806640625	6901.0	0.782608695652174	1261.0	0.2	-658.0	-0.6127744510978045	-454.0	4.153344775919758	1.0	1.828695543760503	-113.0	-313.0	0.6124589476780649	
2062.0	-0.290329504657016	1243.0	10.077260899376933	2096.0	0.08582112117611482	704.0	-0.4316370324954016	9.692213366033108	-15808.0	-0.19619865113427343	-320.0	0.0	4230.133056640625	7541.0	0.7804347826086957	1260.0	0.20202020202020202	-657.0	-0.6067864271457086	-457.0	4.287001837964026	55.0	0.6678369271668891	-34.0	-323.0	-0.21017039860777714	
2062.0	-0.26510187456962075	1236.0	10.16210018705017	2094.0	0.08692179035372112	896.0	-0.5493562231759657	9.770692826486817	-15936.0	-0.11771919068056406	-192.0	0.0	4249.664306640625	8181.0	0.782608695652174	1261.0	0.22424242424242424	-646.0	-0.5888223552894213	-466.0	-2.4410610461762947	123.0	-0.411726472105518	72.0	114.0	-1.1771103020857656	
2064.0	-0.288635787895062	1231.0	10.224020725458603	2096.0	0.06320927106238237	768.0	-0.47087676272225626	9.888412017167381	-16128.0	-0.15695892090741875	-256.0	0.0	4269.195556640625	8821.0	0.782608695652174	1261.0	0.2202020202020202	-648.0	-0.5708582834331338	-475.0	-4.453995466580481	150.0	-0.24020787718395276	71.0	245.0	-1.5676273457144234	
2063.0	-0.2888792894178827	1232.0	10.21159204411899	2096.0	0.07513074200484239	768.0	-0.47087676272225626	9.809932556713672	-16000.0	-0.15695892090741875	-256.0	0.0	4288.726806640625	9461.0	0.7739130434782608	1257.0	0.20404040404040405	-656.0	-0.6027944111776448	-459.0	-1.6756756406588993	170.0	0.10332599449654108	36.0	64.0	-1.8995930534793426	
2064.0	-0.45919562992526636	1230.0	10.239658028758171	2110.0	0.06166004567507603	1024.0	-0.627835683629675	9.849172286940528	-16064.0	-0.19619865113427343	-320.0	0.0	4308.258056640625	10101.0	0.7739130434782608	1257.0	0.21818181818181817	-649.0	-0.594810379241517	-463.0	-1.9429302458237356	163.0	0.8972785547854825	-16.0	82.0	-1.7904566291006982	
2069.0	-0.2147521743095539	1230.0	10.23592583667026	2090.0	0.0038261944549323745	576.0	-0.3531575720416922	9.770692826486817	-15936.0	-0.23543838136112813	-384.0	0.0	4327.789306640625	10741.0	0.7760869565217391	1258.0	0.22424242424242424	-646.0	-0.564870259481038	-478.0	-2.133128790322257	136.0	1.4188281491536792	-51.0	95.0	-1.3779082558230131	
2066.0	-0.21499999339149103	1229.0	10.2474007780124	2090.0	0.04008304399078742	768.0	-0.47087676272225626	9.849172286940528	-16064.0	-0.11771919068056406	-192.0	0.0	4347.320556640625	11381.0	0.7847826086956522	1262.0	0.2080808080808081	-654.0	-0.5928143712574852	-464.0	-1.8211291500596865	102.0	1.4064135710412686	-53.0	75.0	-0.863917986065943	
2067.0	-0.09308318218205026	1230.0	10.23298678312915	2080.0	0.02910987938296497	448.0	-0.27467811158798283	9.849172286940528	-16064.0	-0.19619865113427343	-320.0	0.0	4366.851806640625	12021.0	0.7869565217391304	1263.0	0.2202020202020202	-648.0	-0.6027944111776448	-459.0	-1.8867157751734773	129.0	1.3974192481662442	-51.0	79.0	-1.273908507647505	
2075.0	-0.03150522887248701	1233.0	10.197092432332171	2075.0	-0.06701882676058384	384.0	-0.23543838136112813	9.770692826486817	-15936.0	-0.27467811158798283	-448.0	0.0	4386.383056640625	12661.0	0.7891304347826087	1264.0	0.2101010101010101	-653.0	-0.5788423153692616	-471.0	-0.995277916578761	115.0	1.3118655591937665	-50.0	21.0	-1.0698951295794596	
2075.0	-0.11732817105992983	1237.0	10.150054975450855	2082.0	-0.06834743075127142	576.0	-0.3531575720416922	9.770692826486817	-15936.0	-0.27467811158798283	-448.0	0.0	4405.914306640625	13301.0	0.7869565217391304	1263.0	0.2080808080808081	-654.0	-0.5728542914171657	-474.0	1.271608775078789	79.0	0.3076013986230639	5.0	-127.0	-0.545035479385769	
2068.0	-0.422250584963175	1231.0	10.227682867352685	2107.0	0.013716973426304749	1024.0	-0.627835683629675	9.731453096259962	-15872.0	-0.19619865113427343	-320.0	0.0	4425.445556640625	13941.0	0.7739130434782608	1257.0	0.20404040404040405	-656.0	-0.6347305389221558	-443.0	-0.36595004744728454	-46.0	0.40549988028695655	1.0	-19.0	1.3724807932501384	
2065.0	-0.14306007442943225	1238.0	10.135972815825408	2084.0	0.05173635632962241	576.0	-0.3531575720416922	9.652973635806253	-15744.0	-0.15695892090741875	-256.0	0.0	4444.976806640625	14581.0	0.7891304347826087	1264.0	0.21212121212121213	-652.0	-0.5688622754491018	-476.0	-3.9772148598952852	-78.0	0.9971963205799947	-23.0	217.0	1.8952854565837438	
2064.0	-0.25326810588240983	1241.0	10.101379606993444	2093.0	0.062336536697857325	704.0	-0.4316370324954016	9.613733905579398	-15680.0	-0.11771919068056406	-192.0	0.0	4464.508056640625	15221.0	0.7847826086956522	1262.0	0.2202020202020202	-648.0	-0.6047904191616768	-458.0	-0.9128824573088956	-19.0	1.374534960162315	-60.0	17.0	0.9673037295160548	
2069.0	-0.1919379716547837	1243.0	10.076960197538606	2088.0	0.002464680090163554	512.0	-0.3139178418148375	9.652973635806253	-15744.0	-0.19619865113427343	-320.0	0.0	4484.039306640625	15861.0	0.7782608695652175	1259.0	0.22424242424242424	-646.0	-0.5908183632734532	-465.0	0.13890622749268974	52.0	1.7343294815012087	-86.0	-52.0	-0.12306206607720827	
2070.0	-0.20352392126005747	1239.0	10.12620583625319	2089.0	-0.0092069157898277	640.0	-0.39239730226854685	9.809932556713672	-16000.0	-0.27467811158798283	-448.0	0.0	4503.570556640625	16501.0	0.7869565217391304	1263.0	0.21414141414141413	-651.0	-0.5808383233532934	-470.0	-1.1698857736306667	38.0	1.0972641146031896	-38.0	33.0	0.1029536105880177	
2071.0	-0.10562802642169945	1237.0	10.148855017099146	2081.0	-0.02004965780406888	448.0	-0.27467811158798283	9.731453096259962	-15872.0	-0.19619865113427343	-320.0	0.0	4523.101806640625	17141.0	0.7869565217391304	1263.0	0.21414141414141413	-651.0	-0.6007984031936129	-460.0	-2.2540806181404744	22.0	1.4028702954469048	-54.0	104.0	0.3571415666376785	
2070.0	-0.14208390955859118	1235.0	10.173735729842981	2084.0	-0.008117216736915137	576.0	-0.3531575720416922	9.652973635806253	-15744.0	-0.19619865113427343	-320.0	0.0	4542.633056640625	17781.0	0.7869565217391304	1263.0	0.22828282828282828	-644.0	-0.5888223552894213	-466.0	1.8151485862541825	18.0	1.552001091440643	-83.0	-161.0	0.3772857764948727	
2069.0	-0.3743272648130825	1239.0	10.129414458213148	2103.0	0.001165329765325962	832.0	-0.510116492949111	9.731453096259962	-15872.0	-0.27467811158798283	-448.0	0.0	4562.164306640625	18421.0	0.7760869565217391	1258.0	0.21616161616161617	-650.0	-0.6107784431137725	-455.0	3.4104153861113575	36.0	1.7367786637271816	-102.0	-265.0	0.0875688499411678	
2072.0	-0.21583174031556063	1242.0	10.09035818558543	2090.0	-0.033784856029228996	704.0	-0.4316370324954016	9.652973635806253	-15744.0	-0.19619865113427343	-320.0	0.0	4581.695556640625	19061.0	0.7891304347826087	1264.0	0.2101010101010101	-653.0	-0.5888223552894213	-466.0	-3.819592914224098	37.0	1.6259029527763778	-61.0	206.0	0.1446598074692372	
2069.0	-0.10575301535244713	1236.0	10.160568393440656	2081.0	0.0041626116122073925	448.0	-0.27467811158798283	9.613733905579398	-15680.0	-0.15695892090741875	-256.0	0.0	4601.226806640625	19701.0	0.782608695652174	1261.0	0.23030303030303031	-643.0	-0.5688622754491018	-476.0	-4.171054053161993	22.0	1.5512841502725283	-55.0	229.0	0.37631130098789367	
2069.0	-0.17926382092527038	1239.0	10.125474964545347	2087.0	0.003076569267526086	704.0	-0.4316370324954016	9.770692826486817	-15936.0	-0.19619865113427343	-320.0	0.0	4620.758056640625	20341.0	0.7869565217391304	1263.0	0.22424242424242424	-646.0	-0.564870259481038	-478.0	-1.3928673140225631	8.0	1.3643977467103903	-56.0	48.0	0.5614571902504919	
2070.0	-0.14184256681532864	1233.0	10.19811622252347	2084.0	-0.007870998382677616	576.0	-0.3531575720416922	9.849172286940528	-16064.0	-0.19619865113427343	-320.0	0.0	4640.289306640625	20981.0	0.7760869565217391	1258.0	0.22424242424242424	-646.0	-0.5848303393213574	-468.0	-1.9071017812260547	-22.0	1.6667950862718037	-75.0	82.0	1.022873299181082	
2071.0	-0.31300360692413104	1238.0	10.14085048278094	2098.0	-0.022203458952275268	768.0	-0.47087676272225626	9.731453096259962	-15872.0	-0.27467811158798283	-448.0	0.0	4659.820556640625	21621.0	0.782608695652174	1261.0	0.23232323232323232	-642.0	-0.5768463073852296	-472.0	-1.3375957973545038	1.0	2.18088000016414	-111.0	45.0	0.6673683534108075	
2068.0	-0.009068151789518072	1242.0	10.08521873356592	2073.0	0.01642415642017367	320.0	-0.19619865113427343	9.770692826486817	-15936.0	-0.23543838136112813	-384.0	0.0	4679.351806640625	22261.0	0.7891304347826087	1264.0	0.21414141414141413	-651.0	-0.5828343313373254	-469.0	-4.942500228448877	-28.0	1.9193861393288216	-78.0	280.0	1.144482036505021	
2076.0	-0.15377973663770517	1237.0	10.151032065512936	2085.0	-0.0807503682775127	576.0	-0.3531575720416922	9.731453096259962	-15872.0	-0.3139178418148375	-512.0	0.0	4698.883056640625	22901.0	0.7847826086956522	1262.0	0.21818181818181817	-649.0	-0.5908183632734532	-465.0	1.1998429426536592	78.0	5.394446706155534	-334.0	-119.0	-0.5291086955862324	
2071.0	-0.1547559015085462	1240.0	10.113269151495363	2085.0	-0.02089679521097519	576.0	-0.3531575720416922	9.652973635806253	-15744.0	-0.19619865113427343	-320.0	0.0	4718.414306640625	23541.0	0.7847826086956522	1262.0	0.23434343434343435	-641.0	-0.5708582834331338	-475.0	-1.313838372535055	9.0	3.1436136434288575	-175.0	44.0	0.5454577753603317	
2070.0	0.06468831408568415	1239.0	10.120789032459964	2067.0	-0.006578961474302536	192.0	-0.11771919068056406	9.731453096259962	-15872.0	-0.15695892090741875	-256.0	0.0	4737.945556640625	24181.0	0.7869565217391304	1263.0	0.21616161616161617	-650.0	-0.5808383233532934	-470.0	-2.2601687881298163	12.0	2.1768205767905977	-106.0	105.0	0.5092937030904237	
2067.0	-0.3140982843870452	1243.0	10.078945511082246	2098.0	0.025359315640445995	832.0	-0.510116492949111	9.613733905579398	-15680.0	-0.19619865113427343	-320.0	0.0	4757.476806640625	24821.0	0.782608695652174	1261.0	0.2222222222222222	-647.0	-0.6087824351297406	-456.0	2.917026423241044	21.0	1.2822329403177546	-70.0	-233.0	0.3206396216991485	
2065.0	-0.10552030772741743	1230.0	10.232756131484653	2081.0	0.053079587153234985	384.0	-0.23543838136112813	9.770692826486817	-15936.0	-0.19619865113427343	-320.0	0.0	4777.008056640625	25461.0	0.7869565217391304	1263.0	0.23030303030303031	-643.0	-0.5628742514970061	-479.0	1.697030135005231	1.0	1.7597749827981393	-97.0	-153.0	0.6370220940872101	
2070.0	-0.14304928053164123	1243.0	10.076213759121025	2084.0	-0.009102090153865192	512.0	-0.3139178418148375	9.692213366033108	-15808.0	-0.27467811158798283	-448.0	0.0	4796.539306640625	26101.0	0.7847826086956522	1262.0	0.2202020202020202	-648.0	-0.5688622754491018	-476.0	-1.252185969973607	34.0	2.0151014768282947	-99.0	39.0	0.16461311445258778	
2066.0	-0.0825832749214578	1243.0	10.074028927352366	2079.0	0.039673492668887395	448.0	-0.27467811158798283	9.692213366033108	-15808.0	-0.19619865113427343	-320.0	0.0	4816.070556640625	26741.0	0.7782608695652175	1259.0	0.23636363636363636	-640.0	-0.5808383233532934	-470.0	-5.196132383578339	10.0	1.690291740581999	-60.0	296.0	0.5690715899954792	
2065.0	-0.10672702144373	1240.0	10.110853668082207	2081.0	0.05184849538204741	448.0	-0.27467811158798283	9.731453096259962	-15872.0	-0.11771919068056406	-192.0	0.0	4835.601806640625	27381.0	0.7869565217391304	1263.0	0.23232323232323232	-642.0	-0.564870259481038	-478.0	-4.429567041568556	14.0	1.6693572603504154	-62.0	246.0	0.5005694346742408	
2067.0	-0.15476453662677905	1236.0	10.16107639685887	2085.0	0.027773961975814887	640.0	-0.39239730226854685	9.692213366033108	-15808.0	-0.15695892090741875	-256.0	0.0	4855.133056640625	28021.0	0.7891304347826087	1264.0	0.22626262626262628	-645.0	-0.5768463073852296	-472.0	-2.092738675617228	-8.0	1.733210035631967	-78.0	94.0	0.8118019114710013	
2065.0	-0.2895990000885539	1240.0	10.11454694339577	2096.0	0.050056708348734796	768.0	-0.47087676272225626	9.692213366033108	-15808.0	-0.07847946045370938	-128.0	0.0	4874.664306640625	28661.0	0.782608695652174	1261.0	0.23030303030303031	-643.0	-0.6027944111776448	-459.0	-1.068784290724847	-39.0	2.3627236747641485	-126.0	28.0	1.2730452573559177	
2069.0	0.003728829091184674	1238.0	10.13397193557203	2072.0	0.004991465477957452	320.0	-0.19619865113427343	9.770692826486817	-15936.0	-0.15695892090741875	-256.0	0.0	4894.195556640625	29301.0	0.7956521739130434	1267.0	0.22626262626262628	-645.0	-0.5748502994011977	-473.0	-4.449150279962502	-85.0	2.8098924167105794	-142.0	249.0	2.0064686891114123	
2067.0	-0.04540336355477857	1239.0	10.122289692649998	2076.0	0.028479706664446186	448.0	-0.27467811158798283	9.770692826486817	-15936.0	-0.15695892090741875	-256.0	0.0	4913.726806640625	29941.0	0.7804347826086957	1260.0	0.22424242424242424	-646.0	-0.5908183632734532	-465.0	-4.069735159331596	-76.0	2.5190953420195044	-124.0	224.0	1.8657924086275366	
2062.0	0.1479598872324049	1248.0	10.007445806923158	2060.0	0.0895058641704713	0.0	0.0	9.613733905579398	-15680.0	-0.15695892090741875	-256.0	0.0	4933.258056640625	30581.0	0.782608695652174	1261.0	0.23232323232323232	-642.0	-0.5748502994011977	-473.0	-2.8792037154022996	-15.0	2.788187198392366	-145.0	146.0	0.9261304401958481	
2064.0	-0.14342424732388423	1240.0	10.111353888145551	2084.0	0.06353471809496365	576.0	-0.3531575720416922	9.692213366033108	-15808.0	-0.11771919068056406	-192.0	0.0	4952.789306640625	31221.0	0.7934782608695652	1266.0	0.2383838383838384	-639.0	-0.5848303393213574	-468.0	3.248675041121768	17.0	2.1562669613247665	-130.0	-254.0	0.378159637421482	
2064.0	0.002873335591974821	1240.0	10.1083992678947	2072.0	0.06496814772161374	256.0	-0.15695892090741875	9.731453096259962	-15872.0	-0.15695892090741875	-256.0	0.0	4972.320556640625	31861.0	0.7913043478260869	1265.0	0.21616161616161617	-650.0	-0.596806387225549	-462.0	-4.3069946214701345	59.0	2.332880306936494	-105.0	238.0	-0.18506693591457626	
2065.0	-0.021386764742812217	1240.0	10.109130139602543	2074.0	0.05268466266425996	320.0	-0.19619865113427343	9.731453096259962	-15872.0	-0.15695892090741875	-256.0	0.0	4991.851806640625	32501.0	0.7804347826086957	1260.0	0.24242424242424243	-637.0	-0.596806387225549	-462.0	-3.6107079176752324	116.0	2.229140535947263	-99.0	192.0	-1.0589499550437802	
2062.0	-0.009563789953392354	1240.0	10.108168616250202	2073.0	0.08893785549188375	384.0	-0.23543838136112813	9.731453096259962	-15872.0	-0.15695892090741875	-256.0	0.0	5011.383056640625	33141.0	0.7891304347826087	1264.0	0.24242424242424243	-637.0	-0.56686626746507	-477.0	-3.082295767710577	156.0	1.9618250873520386	-82.0	157.0	-1.6725990955548338	
2068.0	0.10149973499879503	1235.0	10.168334492759495	2064.0	0.018360992879992544	192.0	-0.11771919068056406	9.731453096259962	-15872.0	-0.19619865113427343	-320.0	0.0	5030.914306640625	33781.0	0.7847826086956522	1262.0	0.22626262626262628	-645.0	-0.5928143712574852	-464.0	0.22743338575850494	178.0	1.7598444724369673	-83.0	-59.0	-2.0402971475457985	
2069.0	-0.03175952429309878	1229.0	10.24442280769694	2075.0	0.005741090665363741	320.0	-0.19619865113427343	9.809932556713672	-16000.0	-0.27467811158798283	-448.0	0.0	5050.445556640625	34421.0	0.7782608695652175	1259.0	0.2202020202020202	-648.0	-0.6067864271457086	-457.0	2.7599248241725323	163.0	1.5444725855419281	-81.0	-224.0	-1.8374851798006608	
2069.0	-0.10478764437939707	1228.0	10.25809036416261	2081.0	0.005147485029157461	448.0	-0.27467811158798283	9.888412017167381	-16128.0	-0.23543838136112813	-384.0	0.0	5069.976806640625	35061.0	0.782608695652174	1261.0	0.21818181818181817	-649.0	-0.6147704590818364	-453.0	1.531700960324193	146.0	1.24480216743943	-56.0	-144.0	-1.5666478080823294	
2066.0	-0.17806358354763246	1226.0	10.283232861970422	2087.0	0.0408107289288062	512.0	-0.3139178418148375	9.809932556713672	-16000.0	-0.15695892090741875	-256.0	0.0	5089.508056640625	35701.0	0.7847826086956522	1262.0	0.23434343434343435	-641.0	-0.596806387225549	-462.0	-2.119558159363621	144.0	1.3627805383985458	-47.0	94.0	-1.4997169659348812	
2065.0	-0.10467560812599863	1223.0	10.318087855866363	2081.0	0.05394135139306629	448.0	-0.27467811158798283	9.849172286940528	-16064.0	-0.19619865113427343	-320.0	0.0	5109.039306640625	36341.0	0.782608695652174	1261.0	0.23434343434343435	-641.0	-0.56686626746507	-477.0	-2.8425093074797285	78.0	1.7327659370076964	-71.0	142.0	-0.48868517308489856	
2067.0	0.018329404207681657	1216.0	10.401434266704435	2071.0	0.03190848008261514	320.0	-0.19619865113427343	9.966891477621092	-16256.0	-0.15695892090741875	-256.0	0.0	5128.570556640625	36981.0	0.7956521739130434	1267.0	0.23030303030303031	-643.0	-0.5688622754491018	-476.0	-0.2286576453419874	71.0	2.1013059448704894	-108.0	-28.0	-0.4083598113792798	
2074.0	0.054315554535397596	1228.0	10.256081700554361	2068.0	-0.05352253347319873	256.0	-0.15695892090741875	9.849172286940528	-16064.0	-0.23543838136112813	-384.0	0.0	5148.101806640625	37621.0	0.7891304347826087	1264.0	0.22626262626262628	-645.0	-0.5748502994011977	-473.0	3.8234525608897996	71.0	2.1341216532274014	-129.0	-292.0	-0.44888091344159764	
2071.0	-0.055655451733433864	1227.0	10.26977260708464	2077.0	-0.018340756157331273	512.0	-0.3139178418148375	9.927651747394236	-16192.0	-0.27467811158798283	-448.0	0.0	5167.633056640625	38261.0	0.7782608695652175	1259.0	0.2202020202020202	-648.0	-0.6367265469061877	-442.0	3.016259650146535	-12.0	1.495130322067771	-86.0	-239.0	0.8215484301145043	
2066.0	-0.020298563618572685	1232.0	10.206890545323867	2074.0	0.041624955961631266	384.0	-0.23543838136112813	9.809932556713672	-16000.0	-0.23543838136112813	-384.0	0.0	5187.164306640625	38901.0	0.7978260869565218	1268.0	0.24646464646464647	-635.0	-0.5848303393213574	-468.0	-2.868918859752113	-81.0	1.2780539138680183	-47.0	145.0	1.9298298730081676	
2065.0	0.07686898543088137	1234.0	10.18030187081011	2066.0	0.05437893747807257	192.0	-0.11771919068056406	9.809932556713672	-16000.0	-0.15695892090741875	-256.0	0.0	5206.695556640625	39541.0	0.7869565217391304	1263.0	0.23434343434343435	-641.0	-0.6127744510978045	-454.0	-2.8610497392678416	-37.0	1.1993267576819333	-40.0	144.0	1.2605496608907774	
2066.0	0.0025156390361974618	1245.0	10.047924906192213	2072.0	0.040263441596862425	320.0	-0.19619865113427343	9.613733905579398	-15680.0	-0.19619865113427343	-320.0	0.0	5226.226806640625	40181.0	0.7869565217391304	1263.0	0.24848484848484848	-634.0	-0.594810379241517	-463.0	-0.4060363786764866	-25.0	1.3206157792273046	-59.0	-16.0	1.0534900215814416	
2072.0	-0.05770470627160704	1245.0	10.050586607959607	2077.0	-0.03260130146504765	384.0	-0.23543838136112813	9.692213366033108	-15808.0	-0.3139178418148375	-512.0	0.0	5245.758056640625	40821.0	0.7869565217391304	1263.0	0.23232323232323232	-642.0	-0.5708582834331338	-475.0	1.0961011503203093	-22.0	1.172914591021784	-56.0	-114.0	0.9928412698656184	
2071.0	-0.14244376489392674	1239.0	10.12521317948137	2084.0	-0.020654233564968927	576.0	-0.3531575720416922	9.731453096259962	-15872.0	-0.19619865113427343	-320.0	0.0	5265.289306640625	41461.0	0.7847826086956522	1262.0	0.23030303030303031	-643.0	-0.596806387225549	-462.0	-1.4281292744613523	-78.0	1.1346225425444378	-44.0	51.0	1.8697946007294046	
2070.0	0.07615575109888487	1245.0	10.04740133606426	2066.0	-0.007198164068127566	192.0	-0.11771919068056406	9.692213366033108	-15808.0	-0.19619865113427343	-320.0	0.0	5284.820556640625	42101.0	0.7847826086956522	1262.0	0.25252525252525254	-632.0	-0.564870259481038	-478.0	-3.3432022059914157	-90.0	1.2905962458470452	-46.0	176.0	2.0714548357481273	
2075.0	0.16138613032596244	1251.0	9.973728504539968	2059.0	-0.06732355244652136	0.0	0.0	9.53525444512569	-15552.0	-0.27467811158798283	-448.0	0.0	5304.351806640625	42741.0	0.7847826086956522	1262.0	0.2404040404040404	-638.0	-0.6127744510978045	-454.0	1.0174062451041739	-100.0	1.3258418336675746	-69.0	-108.0	2.179940005990023	
2070.0	-0.05976043714845483	1260.0	9.867256042857205	2077.0	-0.010358778882671518	448.0	-0.27467811158798283	9.417535254445125	-15360.0	-0.15695892090741875	-256.0	0.0	5323.883056640625	43381.0	0.7869565217391304	1263.0	0.2404040404040404	-638.0	-0.594810379241517	-463.0	5.993079367898938	-126.0	1.2335825612930293	-87.0	-432.0	2.5256205371194898	
2064.0	-0.19400017887030616	1255.0	9.929485066458833	2088.0	0.06121027056263226	768.0	-0.47087676272225626	9.53525444512569	-15552.0	-0.19619865113427343	-320.0	0.0	5343.414306640625	44021.0	0.7869565217391304	1263.0	0.2404040404040404	-638.0	-0.5628742514970061	-479.0	-1.355425281612053	-162.0	0.9885046605564127	-38.0	47.0	3.146634100724866	
2065.0	0.13565422695646004	1252.0	9.959646344914521	2061.0	0.05276023463437246	128.0	-0.07847946045370938	9.613733905579398	-15680.0	-0.23543838136112813	-384.0	0.0	5362.945556640625	44661.0	0.7978260869565218	1268.0	0.23434343434343435	-641.0	-0.564870259481038	-478.0	-8.262423875625734	-114.0	1.6633508248416977	-49.0	497.0	2.4856660638513146	
2066.0	0.07481973089270821	1252.0	9.961115871685076	2066.0	0.04011839217035616	192.0	-0.11771919068056406	9.53525444512569	-15552.0	-0.19619865113427343	-320.0	0.0	5382.476806640625	45301.0	0.7891304347826087	1264.0	0.23636363636363636	-640.0	-0.5828343313373254	-469.0	-4.279811964111497	-53.0	1.8130763994112769	-75.0	237.0	1.5180832907437767	
2067.0	0.19685721347378024	1252.0	9.95889212314207	2056.0	0.029268336739652484	0.0	0.0	9.613733905579398	-15680.0	-0.15695892090741875	-256.0	0.0	5402.008056640625	45941.0	0.7869565217391304	1263.0	0.2505050505050505	-633.0	-0.5788423153692616	-471.0	1.0683635178104445	1.0	1.8185226831030223	-98.0	-112.0	0.643308760259158	
2068.0	-0.20461428116385522	1246.0	10.040397241872743	2089.0	0.014020480209498518	576.0	-0.3531575720416922	9.692213366033108	-15808.0	-0.19619865113427343	-320.0	0.0	5421.539306640625	46581.0	0.7956521739130434	1267.0	0.22424242424242424	-646.0	-0.5908183632734532	-465.0	6.202417567353856	16.0	1.3054004553105867	-87.0	-447.0	0.3638313376344463	
2062.0	-0.17988228924033417	1237.0	10.148186412230261	2087.0	0.08763484845881493	640.0	-0.39239730226854685	9.731453096259962	-15872.0	-0.03923973022685469	-64.0	0.0	5441.070556640625	47221.0	0.7934782608695652	1266.0	0.23636363636363636	-640.0	-0.5828343313373254	-469.0	-1.605472178636206	12.0	1.6514935728298121	-74.0	62.0	0.5027467369954876	
2063.0	0.17427571844403977	1233.0	10.19004550031772	2058.0	0.0795468266454489	64.0	-0.03923973022685469	9.692213366033108	-15808.0	-0.11771919068056406	-192.0	0.0	5460.601806640625	47861.0	0.7913043478260869	1265.0	0.25252525252525254	-632.0	-0.5688622754491018	-476.0	-8.143027158438077	124.0	1.8747942065907814	-54.0	487.0	-1.135299766438433	
2071.0	0.06613852932481745	1228.0	10.255120177202022	2067.0	-0.017269340645574963	320.0	-0.19619865113427343	9.849172286940528	-16064.0	-0.23543838136112813	-384.0	0.0	5480.133056640625	48501.0	0.7934782608695652	1266.0	0.24242424242424243	-637.0	-0.5628742514970061	-479.0	-3.298606762742051	232.0	1.4384084278741847	-43.0	170.0	-2.826329521726192	
2067.0	0.09099551017908618	1220.0	10.351195971218031	2065.0	0.032132758187465166	64.0	-0.03923973022685469	9.927651747394236	-16192.0	-0.23543838136112813	-384.0	0.0	5499.664306640625	49141.0	0.7913043478260869	1265.0	0.25656565656565655	-630.0	-0.594810379241517	-463.0	0.7514346243620319	201.0	0.7928386455354903	-20.0	-94.0	-2.3953470458633923	
2068.0	-0.22610109873068157	1222.0	10.333455590747086	2091.0	0.016736195522573702	640.0	-0.39239730226854685	9.966891477621092	-16256.0	-0.15695892090741875	-256.0	0.0	5519.195556640625	49781.0	0.7913043478260869	1265.0	0.2222222222222222	-647.0	-0.6187624750499002	-451.0	4.4636509851365	218.0	0.8596531708594257	-41.0	-336.0	-2.6910243425509845	
2068.0	-0.20244219647449258	1228.0	10.259821675997143	2089.0	0.016236445397636162	704.0	-0.4316370324954016	9.927651747394236	-16192.0	-0.23543838136112813	-384.0	0.0	5538.726806640625	50421.0	0.7630434782608696	1252.0	0.2383838383838384	-639.0	-0.6067864271457086	-457.0	-0.19469994658934273	192.0	1.1980419127095	-43.0	-32.0	-2.249003570876312	
2068.0	0.10246510597184509	1227.0	10.26585646348145	2064.0	0.019345866296942613	128.0	-0.07847946045370938	9.809932556713672	-16000.0	-0.19619865113427343	-320.0	0.0	5558.258056640625	51061.0	0.7847826086956522	1262.0	0.25656565656565655	-630.0	-0.596806387225549	-462.0	-4.814763149544982	121.0	1.611336929018536	-52.0	270.0	-1.1229550301015083	
2072.0	0.1143031922181724	1234.0	10.181232260742973	2063.0	-0.02957476595231623	64.0	-0.03923973022685469	9.849172286940528	-16064.0	-0.15695892090741875	-256.0	0.0	5577.789306640625	51701.0	0.7869565217391304	1263.0	0.24848484848484848	-634.0	-0.5708582834331338	-475.0	0.1345255689271073	81.0	1.7372844571405779	-85.0	-52.0	-0.5640828982748225	
2068.0	-0.0573513272749461	1238.0	10.134964592343849	2077.0	0.01643878325309868	448.0	-0.27467811158798283	9.731453096259962	-15872.0	-0.27467811158798283	-448.0	0.0	5597.320556640625	52341.0	0.7804347826086957	1260.0	0.2404040404040404	-638.0	-0.6047904191616768	-458.0	2.875466581735298	10.0	1.5632910612918218	-89.0	-230.0	0.4883556003423429	
2068.0	-0.10720323059158043	1247.0	10.026237248698598	2081.0	0.01485299078347982	448.0	-0.27467811158798283	9.613733905579398	-15680.0	-0.23543838136112813	-384.0	0.0	5616.851806640625	52981.0	0.782608695652174	1261.0	0.22626262626262628	-645.0	-0.6107784431137725	-455.0	-0.813543543841108	-25.0	2.0086484428403035	-103.0	11.0	1.0575650932330878	
2064.0	0.12297791744738854	1255.0	9.923083389248657	2062.0	0.06431603475370745	128.0	-0.07847946045370938	9.53525444512569	-15552.0	-0.19619865113427343	-320.0	0.0	5636.383056640625	53621.0	0.7934782608695652	1266.0	0.24646464646464647	-635.0	-0.5688622754491018	-476.0	-7.473323169823082	-46.0	1.799723274491868	-59.0	445.0	1.4435545244738963	
2061.0	0.12236808425055762	1257.0	9.897987591570065	2062.0	0.1002035567582062	128.0	-0.07847946045370938	9.53525444512569	-15552.0	-0.11771919068056406	-192.0	0.0	5655.914306640625	54261.0	0.7934782608695652	1266.0	0.24242424242424243	-637.0	-0.5588822355289422	-481.0	-4.612588441833307	-93.0	1.6919630115152513	-67.0	259.0	2.1297760745324017	
2064.0	0.23197707640449527	1261.0	9.847725946019054	2053.0	0.06465245191098247	-128.0	0.07847946045370938	9.37829552421827	-15296.0	-0.15695892090741875	-256.0	0.0	5675.445556640625	54901.0	0.7891304347826087	1264.0	0.2585858585858586	-629.0	-0.5808383233532934	-470.0	0.2724343746464918	-51.0	1.2425842205536028	-58.0	-60.0	1.4421425764056264	
2066.0	-0.13376256332603598	1263.0	9.831208873964426	2083.0	0.03673349925096221	576.0	-0.3531575720416922	9.417535254445125	-15360.0	-0.15695892090741875	-256.0	0.0	5694.976806640625	55541.0	0.7956521739130434	1267.0	0.2404040404040404	-638.0	-0.5588822355289422	-481.0	5.838651848926398	-28.0	1.0940554360028727	-73.0	-423.0	1.0366705157312686	
2065.0	0.1480870349427108	1250.0	9.983780619240772	2060.0	0.05312590545749749	-64.0	0.03923973022685469	9.496014714898834	-15488.0	-0.15695892090741875	-256.0	0.0	5714.508056640625	56181.0	0.8	1269.0	0.24848484848484848	-634.0	-0.6007984031936129	-460.0	-1.4849792588754234	-15.0	1.0119887564279906	-33.0	54.0	0.9121881956305794	
2065.0	0.22123582640064032	1250.0	9.982303309115348	2054.0	0.05384262027082254	-64.0	0.03923973022685469	9.53525444512569	-15552.0	-0.19619865113427343	-320.0	0.0	5734.039306640625	56821.0	0.7869565217391304	1263.0	0.2404040404040404	-638.0	-0.6347305389221558	-443.0	-8.305475265733936	39.0	1.2196969145694403	-13.0	498.0	0.15910038003376523	
2065.0	0.30657608310155815	1250.0	9.980579780635685	2047.0	0.05467878755303509	-192.0	0.11771919068056406	9.613733905579398	-15680.0	-0.15695892090741875	-256.0	0.0	5753.570556640625	57461.0	0.7934782608695652	1266.0	0.2383838383838384	-639.0	-0.56686626746507	-477.0	-7.4479182676527	148.0	1.1513602158346	-8.0	441.0	-1.507269866753131	
2070.0	0.08846788771350439	1244.0	10.059345364050266	2065.0	-0.006955602422121301	128.0	-0.07847946045370938	9.692213366033108	-15808.0	-0.19619865113427343	-320.0	0.0	5773.101806640625	58101.0	0.7847826086956522	1262.0	0.25252525252525254	-632.0	-0.6127744510978045	-454.0	-2.9040905769533927	219.0	0.7883487024229823	-2.0	144.0	-2.6325560524053713	
2070.0	-0.044793530357947656	1237.0	10.147385490328592	2076.0	-0.0074078153400525815	320.0	-0.19619865113427343	9.692213366033108	-15808.0	-0.19619865113427343	-320.0	0.0	5792.633056640625	58741.0	0.7804347826086957	1260.0	0.26666666666666666	-625.0	-0.5928143712574852	-464.0	-2.1814819691224883	212.0	0.8087591069255012	-7.0	97.0	-2.5333182601566837	
2075.0	0.15184943525886185	1229.0	10.242160142379586	2060.0	-0.06473460301879622	64.0	-0.03923973022685469	9.770692826486817	-15936.0	-0.27467811158798283	-448.0	0.0	5812.164306640625	59381.0	0.7956521739130434	1267.0	0.26262626262626265	-627.0	-0.56686626746507	-477.0	-6.661983055069147	211.0	0.8951060612664882	8.0	389.0	-2.4733041238219324	
2075.0	0.2000119393726586	1234.0	10.180224037261414	2056.0	-0.06487233902883996	-64.0	0.03923973022685469	9.770692826486817	-15936.0	-0.27467811158798283	-448.0	0.0	5831.695556640625	60021.0	0.7847826086956522	1262.0	0.25656565656565655	-630.0	-0.594810379241517	-463.0	-2.7822229377982683	175.0	1.5626938563000843	-56.0	137.0	-1.964573207884375	
2076.0	0.10296506169483578	1231.0	10.219002958115416	2064.0	-0.07750321136816252	0.0	0.0	9.809932556713672	-16000.0	-0.15695892090741875	-256.0	0.0	5851.226806640625	60661.0	0.7869565217391304	1263.0	0.2727272727272727	-622.0	-0.56686626746507	-477.0	-3.714357032000405	169.0	1.8787927628606254	-73.0	198.0	-1.8639971140906424	
2078.0	0.12807633796971626	1227.0	10.267748376766653	2062.0	-0.10086102996106999	128.0	-0.07847946045370938	9.888412017167381	-16128.0	-0.39239730226854685	-640.0	0.0	5870.758056640625	61301.0	0.7847826086956522	1262.0	0.27070707070707073	-623.0	-0.5828343313373254	-469.0	-7.888244719306227	174.0	2.022412133510908	-63.0	470.0	-1.8983038645940102	
2079.0	0.3731145153253521	1218.0	10.37277466174347	2042.0	-0.10940857810882977	-256.0	0.15695892090741875	10.006131207847945	-16320.0	-0.23543838136112813	-384.0	0.0	5890.289306640625	61941.0	0.7847826086956522	1262.0	0.2686868686868687	-624.0	-0.6087824351297406	-456.0	-7.7045553002119735	160.0	1.7612301797057737	-47.0	458.0	-1.6872130021309604	
2077.0	0.3971311141373185	1219.0	10.359615108696016	2040.0	-0.085203622109016	-384.0	0.23543838136112813	10.006131207847945	-16320.0	-0.39239730226854685	-640.0	0.0	5909.820556640625	62581.0	0.7956521739130434	1267.0	0.27474747474747474	-621.0	-0.5608782435129741	-480.0	-0.34952872060391665	202.0	1.2149016455710282	-43.0	-22.0	-2.399546537889018	
2080.0	0.17817390158872953	1218.0	10.376952590410639	2058.0	-0.12336439773060866	-64.0	0.03923973022685469	9.927651747394236	-16192.0	-0.3531575720416922	-576.0	0.0	5929.351806640625	63221.0	0.7869565217391304	1263.0	0.26464646464646463	-626.0	-0.5928143712574852	-464.0	3.4498257410895308	196.0	0.43707125748681397	-9.0	-270.0	-2.3462853296542416	
2074.0	-0.10260476579224338	1215.0	10.41775574158263	2081.0	-0.053474996266192495	512.0	-0.3139178418148375	9.927651747394236	-16192.0	-0.3139178418148375	-512.0	0.0	5948.883056640625	63861.0	0.7847826086956522	1262.0	0.2727272727272727	-622.0	-0.596806387225549	-462.0	-1.7189470366928088	181.0	0.5478123075652788	7.0	67.0	-2.0664607197471407	
2075.0	0.10501431623300894	1213.0	10.438188957240447	2064.0	-0.06324266606044611	192.0	-0.11771919068056406	10.006131207847945	-16320.0	-0.3139178418148375	-512.0	0.0	5968.414306640625	64501.0	0.782608695652174	1261.0	0.2606060606060606	-628.0	-0.5848303393213574	-468.0	-6.541341262470443	160.0	1.4403904227089481	-31.0	382.0	-1.6988451425083755	
2078.0	0.20182848628580208	1222.0	10.32722229834245	2056.0	-0.09952876926215115	-128.0	0.07847946045370938	9.966891477621092	-16256.0	-0.39239730226854685	-640.0	0.0	5987.945556640625	65141.0	0.7847826086956522	1262.0	0.26262626262626265	-627.0	-0.6007984031936129	-460.0	-3.876708343109643	147.0	2.191550962406222	-94.0	209.0	-1.5277728405232762	
2079.0	0.2626672999086703	1224.0	10.301849148890142	2051.0	-0.11122230539152991	-128.0	0.07847946045370938	9.849172286940528	-16064.0	-0.3531575720416922	-576.0	0.0	6007.476806640625	245.0	0.7956521739130434	1267.0	0.2727272727272727	-622.0	-0.6087824351297406	-456.0	-2.811106939993399	111.0	2.305379016538684	-108.0	140.0	-0.9909003374441726	
2081.0	0.31192016392626476	1222.0	10.325721638152416	2047.0	-0.13458743740089987	-192.0	0.11771919068056406	9.888412017167381	-16128.0	-0.39239730226854685	-640.0	0.0	6027.008056640625	885.0	0.7869565217391304	1263.0	0.2767676767676768	-620.0	-0.5728542914171657	-474.0	-0.8768244961042876	79.0	1.866427706621244	-89.0	14.0	-0.5235511466739382	
2082.0	0.23865285987626217	1224.0	10.30305689059672	2053.0	-0.14759495068804115	0.0	0.0	9.888412017167381	-16128.0	-0.3531575720416922	-576.0	0.0	6046.539306640625	1525.0	0.7869565217391304	1263.0	0.2686868686868687	-624.0	-0.5768463073852296	-472.0	-3.3757750192889104	61.0	1.8644865514633033	-78.0	177.0	-0.22479738288695883	
2079.0	0.4200703057228363	1233.0	10.188936093222853	2038.0	-0.11077740589006112	-320.0	0.19619865113427343	9.770692826486817	-15936.0	-0.27467811158798283	-448.0	0.0	6066.070556640625	2165.0	0.782608695652174	1261.0	0.26262626262626265	-627.0	-0.6087824351297406	-456.0	-1.892262375009936	66.0	1.4194483103096471	-55.0	80.0	-0.31567813670617445	
2080.0	0.3707032466722852	1239.0	10.117017923597704	2042.0	-0.12403845094790245	-256.0	0.15695892090741875	9.731453096259962	-15872.0	-0.3531575720416922	-576.0	0.0	6085.601806640625	2805.0	0.7847826086956522	1262.0	0.28484848484848485	-616.0	-0.5708582834331338	-475.0	3.8730323904133197	88.0	1.2114778700319504	-67.0	-296.0	-0.7079318448166807	
2077.0	-0.0074799949422878625	1238.0	10.136125633921209	2073.0	-0.09148462794756014	192.0	-0.11771919068056406	9.731453096259962	-15872.0	-0.27467811158798283	-448.0	0.0	6105.133056640625	3445.0	0.7847826086956522	1262.0	0.27474747474747474	-621.0	-0.6187624750499002	-451.0	3.4449528652339567	90.0	1.4074064762518423	-78.0	-268.0	-0.7340693005154574	
2078.0	0.2971881235403455	1240.0	10.10582811738415	2048.0	-0.10078911469918873	-64.0	0.03923973022685469	9.692213366033108	-15808.0	-0.3531575720416922	-576.0	0.0	6124.664306640625	4085.0	0.7804347826086957	1260.0	0.2767676767676768	-620.0	-0.6047904191616768	-458.0	-5.171550624819067	61.0	1.8545399998750687	-69.0	294.0	-0.20683962683165724	
2079.0	0.35826827990647625	1240.0	10.10483546061233	2043.0	-0.11223643247432998	-448.0	0.27467811158798283	9.692213366033108	-15808.0	-0.27467811158798283	-448.0	0.0	6144.195556640625	4725.0	0.7891304347826087	1264.0	0.27474747474747474	-621.0	-0.5728542914171657	-474.0	-1.8307137393892432	79.0	1.6329683229913583	-69.0	76.0	-0.5140122542410887	
2084.0	0.45689683809285464	1236.0	10.152818874136246	2035.0	-0.17101127661264864	-640.0	0.39239730226854685	9.692213366033108	-15808.0	-0.4316370324954016	-704.0	0.0	6163.726806640625	5365.0	0.782608695652174	1261.0	0.26666666666666666	-625.0	-0.6227544910179642	-449.0	1.5156903792040812	127.0	0.8895299823172766	-33.0	-143.0	-1.27751431824071	
2078.0	0.3464366699988235	1236.0	10.153604229328177	2044.0	-0.09981886811516369	-320.0	0.19619865113427343	9.731453096259962	-15872.0	-0.23543838136112813	-384.0	0.0	6183.258056640625	6005.0	0.7847826086956522	1262.0	0.2767676767676768	-620.0	-0.6147704590818364	-453.0	4.524413700895763	83.0	0.2785421845878854	-8.0	-339.0	-0.6384000305450793	
2081.0	-0.019300810952149514	1239.0	10.125135345932673	2074.0	-0.13990551007188146	448.0	-0.27467811158798283	9.809932556713672	-16000.0	-0.3139178418148375	-512.0	0.0	6202.789306640625	6645.0	0.7913043478260869	1265.0	0.2808080808080808	-618.0	-0.5868263473053893	-467.0	0.16173822150672687	139.0	0.7361928690030085	-16.0	-55.0	-1.4464843023671585	
2085.0	0.3215861654832295	1247.0	10.021673001289537	2046.0	-0.18572403483829636	-192.0	0.11771919068056406	9.652973635806253	-15744.0	-0.39239730226854685	-640.0	0.0	6222.320556640625	7285.0	0.7913043478260869	1265.0	0.2727272727272727	-622.0	-0.5768463073852296	-472.0	-4.751703651310784	99.0	1.4436389200419253	-42.0	266.0	-0.7889848646275767	
2084.0	0.22441429887465897	1243.0	10.072165298485048	2054.0	-0.1741426377613426	0.0	0.0	9.53525444512569	-15552.0	-0.4316370324954016	-704.0	0.0	6241.851806640625	7925.0	0.7804347826086957	1260.0	0.2909090909090909	-613.0	-0.5928143712574852	-464.0	-0.9980653830839927	68.0	1.85318155339778	-88.0	22.0	-0.3550383575760042	
2082.0	0.32218304600271114	1239.0	10.118479667013391	2046.0	-0.14860542106261	-256.0	0.15695892090741875	9.692213366033108	-15808.0	-0.4316370324954016	-704.0	0.0	6261.383056640625	8565.0	0.7739130434782608	1257.0	0.2787878787878788	-619.0	-0.6027944111776448	-459.0	0.17083736043910472	67.0	2.0860601361402056	-109.0	-54.0	-0.35151825953594995	
2082.0	0.23648077518689956	1242.0	10.08363245647232	2053.0	-0.14981091587617879	-128.0	0.07847946045370938	9.809932556713672	-16000.0	-0.47087676272225626	-768.0	0.0	6280.914306640625	9205.0	0.7978260869565218	1268.0	0.27474747474747474	-621.0	-0.6147704590818364	-453.0	-0.6044618984819882	128.0	2.2221087419651875	-112.0	-4.0	-1.2715219209391346	
2085.0	0.40740910767067234	1243.0	10.068710458170854	2039.0	-0.1843954308476088	-320.0	0.19619865113427343	9.613733905579398	-15680.0	-0.3531575720416922	-576.0	0.0	6300.445556640625	9845.0	0.7847826086956522	1262.0	0.26262626262626265	-627.0	-0.6506986027944113	-435.0	-3.4602872024460956	128.0	2.1060316044104446	-91.0	182.0	-1.2429636678994935	
2081.0	0.4194712664237965	1240.0	10.104081238839878	2038.0	-0.13572833036904997	-256.0	0.15695892090741875	9.770692826486817	-15936.0	-0.39239730226854685	-640.0	0.0	6319.976806640625	10485.0	0.7760869565217391	1258.0	0.2727272727272727	-622.0	-0.6067864271457086	-457.0	-3.0400612692697973	148.0	1.4592660224203131	-49.0	154.0	-1.55134843673696	
2078.0	0.4933376097728389	1231.0	10.21160084077855	2032.0	-0.0977698926029198	-512.0	0.3139178418148375	9.731453096259962	-15872.0	-0.3531575720416922	-576.0	0.0	6339.508056640625	11125.0	0.7804347826086957	1260.0	0.2787878787878788	-619.0	-0.6127744510978045	-454.0	-1.9923201934298136	180.0	0.8211032779733038	-10.0	85.0	-2.0485178627044855	
2088.0	0.360097779496969	1234.0	10.180122853648108	2043.0	-0.21989899848782626	-320.0	0.19619865113427343	9.809932556713672	-16000.0	-0.4316370324954016	-704.0	0.0	6359.039306640625	11765.0	0.782608695652174	1261.0	0.29292929292929293	-612.0	-0.6067864271457086	-457.0	1.7559121328023504	246.0	0.6303634068185499	-12.0	-160.0	-3.089802467335628	
2086.0	0.11614348570645618	1233.0	10.196760597074366	2063.0	-0.19807577844930013	128.0	-0.07847946045370938	9.809932556713672	-16000.0	-0.47087676272225626	-768.0	0.0	6378.570556640625	12405.0	0.7891304347826087	1264.0	0.28484848484848485	-616.0	-0.596806387225549	-462.0	2.1246157372167622	212.0	0.14923461660926682	17.0	-184.0	-2.5763792372200767	
2083.0	0.26243459228364063	1230.0	10.229661410846147	2051.0	-0.16013928093255747	-64.0	0.03923973022685469	9.731453096259962	-15872.0	-0.39239730226854685	-640.0	0.0	6398.101806640625	13045.0	0.7847826086956522	1262.0	0.2727272727272727	-622.0	-0.6107784431137725	-455.0	-3.173992591087175	148.0	0.3441498613093575	26.0	162.0	-1.5500091235187863	
2087.0	0.335592018859803	1234.0	10.180376855357215	2045.0	-0.2080933233060225	-256.0	0.15695892090741875	9.770692826486817	-15936.0	-0.47087676272225626	-768.0	0.0	6417.633056640625	13685.0	0.7847826086956522	1262.0	0.29494949494949496	-611.0	-0.5808383233532934	-470.0	-2.6717875106459874	119.0	1.011193982069365	-22.0	130.0	-1.1139665355399282	
2085.0	0.3719207542863888	1234.0	10.179161330295766	2042.0	-0.18364580566020247	-320.0	0.19619865113427343	9.731453096259962	-15872.0	-0.4316370324954016	-704.0	0.0	6437.164306640625	14325.0	0.7891304347826087	1264.0	0.2828282828282828	-617.0	-0.5828343313373254	-469.0	0.8100548780610978	131.0	0.9860531845172517	-36.0	-97.0	-1.331294465130421	
2090.0	0.27415848349701133	1241.0	10.096991527744793	2050.0	-0.24568609024902763	-128.0	0.07847946045370938	9.731453096259962	-15872.0	-0.510116492949111	-832.0	0.0	6456.695556640625	14965.0	0.782608695652174	1261.0	0.28484848484848485	-616.0	-0.6167664670658684	-452.0	1.2948178628525417	100.0	1.4132144851264434	-68.0	-128.0	-0.8646592052444951	
2085.0	0.3462104387124685	1245.0	10.045561057261551	2044.0	-0.1852389115462838	-192.0	0.11771919068056406	9.652973635806253	-15744.0	-0.4316370324954016	-704.0	0.0	6476.226806640625	15605.0	0.7782608695652175	1259.0	0.296969696969697	-610.0	-0.596806387225549	-462.0	-1.5720018499022816	23.0	0.5614032795458633	-1.0	59.0	0.33511165348001143	
2075.0	0.4312877648745417	1237.0	10.138975149510166	2037.0	-0.06297206965133359	-384.0	0.23543838136112813	9.652973635806253	-15744.0	-0.3531575720416922	-576.0	0.0	6495.758056640625	16245.0	0.7869565217391304	1263.0	0.2767676767676768	-620.0	-0.6047904191616768	-458.0	-2.0085889906927017	33.0	0.028158252306205042	37.0	87.0	0.1873862701350639	
2085.0	0.3575572043540379	1252.0	9.9599831145256	2043.0	-0.1859812233172276	-384.0	0.23543838136112813	9.574494175352545	-15616.0	-0.3531575720416922	-576.0	0.0	6515.289306640625	16885.0	0.7782608695652175	1259.0	0.27070707070707073	-623.0	-0.6047904191616768	-458.0	0.8230138138072562	21.0	-0.9258468705214257	87.0	-98.0	0.3415797477934864	
2088.0	0.028514790503660903	1254.0	9.94296582240763	2070.0	-0.22558639869016409	192.0	-0.11771919068056406	9.496014714898834	-15488.0	-0.4316370324954016	-704.0	0.0	6534.820556640625	17525.0	0.7804347826086957	1260.0	0.27070707070707073	-623.0	-0.6307385229540919	-445.0	5.731734278608241	94.0	-0.06866037987804458	10.0	-418.0	-0.8177736165503411	
2089.0	0.4812905624766222	1241.0	10.092567380723388	2033.0	-0.23161081815836124	-320.0	0.19619865113427343	9.731453096259962	-15872.0	-0.39239730226854685	-640.0	0.0	6554.351806640625	18165.0	0.7782608695652175	1259.0	0.2727272727272727	-622.0	-0.6207584830339322	-450.0	-0.8024953212780745	75.0	0.029735478705929803	33.0	8.0	-0.4634579365210596	
2092.0	0.3224459765415557	1247.0	10.023342046285112	2046.0	-0.2700360956753477	-128.0	0.07847946045370938	9.692213366033108	-15808.0	-0.510116492949111	-832.0	0.0	6573.883056640625	18805.0	0.7891304347826087	1264.0	0.2828282828282828	-617.0	-0.62874251497006	-446.0	-5.210649078669429	114.0	0.28530669722118324	38.0	295.0	-1.0125322924832678	
2092.0	0.42021904122872433	1245.0	10.045752792131701	2038.0	-0.2688342575700101	-384.0	0.23543838136112813	9.652973635806253	-15744.0	-0.510116492949111	-832.0	0.0	6593.414306640625	19445.0	0.7847826086956522	1262.0	0.29292929292929293	-612.0	-0.5828343313373254	-469.0	-4.946349526553246	146.0	1.1109668351491884	-17.0	278.0	-1.501867303213555	
2093.0	0.3593845451649725	1245.0	10.047222318902255	2043.0	-0.2814761000340264	-320.0	0.19619865113427343	9.692213366033108	-15808.0	-0.47087676272225626	-768.0	0.0	6612.945556640625	20085.0	0.7804347826086957	1260.0	0.2868686868686869	-615.0	-0.5888223552894213	-466.0	-1.2162875628168552	115.0	0.6975626731506486	-8.0	35.0	-1.0676850331170786	
2091.0	0.28671412163445154	1239.0	10.121364237070413	2049.0	-0.25736499954548137	-128.0	0.07847946045370938	9.692213366033108	-15808.0	-0.47087676272225626	-768.0	0.0	6632.476806640625	20725.0	0.7782608695652175	1259.0	0.298989898989899	-609.0	-0.6107784431137725	-455.0	-0.5840960643205679	97.0	0.7175740932537313	-13.0	-6.0	-0.8002426895469084	
2091.0	0.2753673559928821	1232.0	10.206942179806362	2050.0	-0.25662268777453756	-64.0	0.03923973022685469	9.809932556713672	-16000.0	-0.47087676272225626	-768.0	0.0	6652.008056640625	21365.0	0.7804347826086957	1260.0	0.296969696969697	-610.0	-0.5808383233532934	-470.0	-3.017410266797526	165.0	0.9133090792907774	-12.0	152.0	-1.8101300798415305	
2094.0	0.3371758581479168	1228.0	10.255187378394254	2045.0	-0.2916667290803613	-320.0	0.19619865113427343	9.888412017167381	-16128.0	-0.5493562231759657	-896.0	0.0	6671.539306640625	22005.0	0.7869565217391304	1263.0	0.2868686868686869	-615.0	-0.6127744510978045	-454.0	-5.201330995552777	222.0	1.324874324317682	-27.0	294.0	-2.655211024645233	
2093.0	0.3138768112270634	1218.0	10.377343843505807	2047.0	-0.27862996212736996	-128.0	0.07847946045370938	9.888412017167381	-16128.0	-0.510116492949111	-832.0	0.0	6691.070556640625	22645.0	0.782608695652174	1261.0	0.26262626262626265	-627.0	-0.62874251497006	-446.0	-4.210131144592484	157.0	1.23133559220323	-28.0	230.0	-1.6765298672612996	
2094.0	0.36336885920836215	1213.0	10.437548636789447	2043.0	-0.28958118648580494	-192.0	0.11771919068056406	10.006131207847945	-16320.0	-0.5885959534028203	-960.0	0.0	6710.601806640625	23285.0	0.7869565217391304	1263.0	0.28888888888888886	-614.0	-0.5788423153692616	-471.0	-3.058438490267496	175.0	1.5669259550038166	-55.0	155.0	-1.9618110523596828	
2096.0	0.36421787636889735	1208.0	10.498976738489407	2043.0	-0.31305480083936865	-320.0	0.19619865113427343	10.0453709380748	-16384.0	-0.5885959534028203	-960.0	0.0	6730.133056640625	23925.0	0.7847826086956522	1262.0	0.29494949494949496	-611.0	-0.5888223552894213	-466.0	-1.1706253119097985	179.0	1.6328701665918035	-68.0	32.0	-2.0415256860444	
