Device	Device	Device	Device	Device	Device	Device	Device	Device	Device	Device	Device	Device	Device	Device	Device	Device	Device	Device	Device	Device	Device	Device	Device	Device	Device	Device	
Low Noise Accelerometer X	Low Noise Accelerometer X	Low Noise Accelerometer Z	Low Noise Accelerometer Z	Low Noise Accelerometer Y	Low Noise Accelerometer Y	Wide Range Accelerometer X	Wide Range Accelerometer X	Wide Range Accelerometer Z	Wide Range Accelerometer Z	Wide Range Accelerometer Y	Wide Range Accelerometer Y	Event_Marker	Timestamp	Timestamp	Magnetometer Z	Magnetometer Z	Magnetometer X	Magnetometer X	Magnetometer Y	Magnetometer Y	Gyroscope Y	Gyroscope Y	Gyroscope Z	Gyroscope Z	Gyroscope X	Gyroscope X	
CAL	UNCAL	UNCAL	CAL	CAL	UNCAL	UNCAL	CAL	UNCAL	CAL	CAL	UNCAL	CAL	UNCAL	CAL	UNCAL	CAL	CAL	UNCAL	UNCAL	CAL	CAL	UNCAL	CAL	UNCAL	CAL	UNCAL	
m/(s^2)	no units	no units	m/(s^2)	m/(s^2)	no units	no units	m/(s^2)	no units	m/(s^2)	m/(s^2)	no units	no units	no units	ms	no units	local_flux	local_flux	no units	no units	local_flux	deg/s	no units	deg/s	no units	deg/s	no units	
-0.3065937939052805	2020.0	1234.0	10.177205064819924	0.5926820163236041	2097.0	832.0	-0.510116492949111	-15680.0	9.613733905579398	0.4316370324954016	704.0	0.0	42018.0	1282.28759765625	1265.0	0.7913043478260869	0.1797979797979798	-668.0	-486.0	-0.5489021956087825	0.6478477963798299	-31.0	0.7188776193449089	-24.0	1.1342059326825895	-85.0	
-0.33207140185417117	2016.0	1239.0	10.115792529829704	0.6400058859785503	2099.0	832.0	-0.510116492949111	-15808.0	9.692213366033108	0.4316370324954016	704.0	0.0	42658.0	1301.81884765625	1263.0	0.7869565217391304	0.16363636363636364	-676.0	-458.0	-0.6047904191616768	-1.1420072257044067	51.0	1.0132774904259145	-32.0	-0.09504380606995215	31.0	
-0.33206492551549655	2019.0	1242.0	10.079937095807074	0.6035028180884577	2099.0	768.0	-0.47087676272225626	-15808.0	9.692213366033108	0.3531575720416922	576.0	0.0	43298.0	1321.35009765625	1260.0	0.7804347826086957	0.18181818181818182	-667.0	-467.0	-0.5868263473053893	0.2978863774096205	93.0	1.3733948351433096	-61.0	-0.7482260120630696	-63.0	
-0.3187679889118031	2028.0	1242.0	10.081836792447147	0.49522104948113643	2098.0	896.0	-0.5493562231759657	-15872.0	9.731453096259962	0.27467811158798283	448.0	0.0	43938.0	1340.88134765625	1268.0	0.7978260869565218	0.18181818181818182	-667.0	-472.0	-0.5768463073852296	-0.8938591701247307	28.0	0.922043975327803	-28.0	0.25228459930581004	15.0	
-0.23391473525652676	2026.0	1244.0	10.055255901288259	0.519900158648269	2091.0	768.0	-0.47087676272225626	-15744.0	9.652973635806253	0.3139178418148375	512.0	0.0	44578.0	1360.41259765625	1261.0	0.782608695652174	0.1616161616161616	-677.0	-458.0	-0.6047904191616768	-4.3070969940208546	-144.0	0.7701089733866185	-9.0	2.902386559293821	239.0	
-0.17417275787613085	2022.0	1250.0	9.979929591478133	0.5679370864083091	2086.0	576.0	-0.3531575720416922	-15616.0	9.574494175352545	0.3531575720416922	576.0	0.0	45218.0	1379.94384765625	1263.0	0.7869565217391304	0.18585858585858586	-665.0	-481.0	-0.5588822355289422	-2.9349839645089486	-200.0	0.5355939392310696	-2.0	3.7403764556146712	150.0	
-0.12516771294047355	2021.0	1247.0	10.015277022082548	0.5808288039347941	2082.0	576.0	-0.3531575720416922	-15680.0	9.613733905579398	0.3139178418148375	512.0	0.0	45858.0	1399.47509765625	1262.0	0.7847826086956522	0.1919191919191919	-662.0	-475.0	-0.5708582834331338	-0.33857452680823313	-147.0	0.07228460966405961	19.0	2.90832871104755	-20.0	
-0.38300718873592865	2017.0	1258.0	9.885401157781375	0.6251444216181651	2103.0	768.0	-0.47087676272225626	-15424.0	9.45677498467198	0.4316370324954016	704.0	0.0	46498.0	1419.00634765625	1267.0	0.7956521739130434	0.17575757575757575	-670.0	-468.0	-0.5848303393213574	-0.31880221066371434	-100.0	-0.30529598884546305	46.0	2.193302090547702	-22.0	
-0.27293062255237344	2013.0	1251.0	9.967563176977478	0.675259578556299	2094.0	896.0	-0.5493562231759657	-15488.0	9.496014714898834	0.4316370324954016	704.0	0.0	47138.0	1438.53759765625	1262.0	0.7847826086956522	0.18181818181818182	-667.0	-486.0	-0.5489021956087825	-2.738138231765454	-135.0	-0.27814300742718867	54.0	2.7498148423937003	136.0	
-0.3583893918453642	2014.0	1253.0	9.94514464777602	0.6621326128002701	2101.0	832.0	-0.510116492949111	-15488.0	9.496014714898834	0.47087676272225626	768.0	0.0	47778.0	1458.06884765625	1260.0	0.7804347826086957	0.17575757575757575	-670.0	-478.0	-0.564870259481038	-0.7514680623818711	-45.0	0.23803775041977798	14.0	1.3611268479241991	6.0	
-0.24818999551061954	2011.0	1246.0	10.02754510197149	0.7002031896188253	2092.0	768.0	-0.47087676272225626	-15488.0	9.496014714898834	0.510116492949111	832.0	0.0	48418.0	1477.60009765625	1264.0	0.7891304347826087	0.18181818181818182	-667.0	-465.0	-0.5908183632734532	-0.061863775686041025	-35.0	0.2860799647446179	8.0	1.202139550304389	-39.0	
-0.38169275632533406	2011.0	1241.0	10.091204735569326	0.6995047583466565	2103.0	640.0	-0.39239730226854685	-15552.0	9.53525444512569	0.5493562231759657	896.0	0.0	49058.0	1497.13134765625	1262.0	0.7847826086956522	0.1919191919191919	-662.0	-476.0	-0.5688622754491018	1.7115279338902962	40.0	0.733016909368368	-27.0	0.043721222562237726	-155.0	
-0.4549708542731277	2007.0	1238.0	10.128299044718014	0.7473356915430028	2109.0	1152.0	-0.7063151440833844	-15808.0	9.692213366033108	0.5493562231759657	896.0	0.0	49698.0	1516.66259765625	1260.0	0.7804347826086957	0.17373737373737375	-671.0	-461.0	-0.5988023952095809	-1.6787118326256854	136.0	0.8174855864692123	-13.0	-1.382452425399979	65.0	
-0.23514519554797964	2015.0	1243.0	10.064823362635458	0.6525136491407542	2091.0	896.0	-0.5493562231759657	-15680.0	9.613733905579398	0.47087676272225626	768.0	0.0	50338.0	1536.19384765625	1266.0	0.7934782608695652	0.18181818181818182	-667.0	-464.0	-0.5928143712574852	-3.5737176836983604	146.0	1.780049350040911	-68.0	-1.515593621642104	189.0	
-0.1850454731494081	2018.0	1235.0	10.16207576493857	0.6178425920745179	2087.0	512.0	-0.3139178418148375	-15872.0	9.731453096259962	0.510116492949111	832.0	0.0	50978.0	1555.72509765625	1262.0	0.7847826086956522	0.19393939393939394	-661.0	-483.0	-0.5548902195608784	-2.345772798107121	130.0	1.5499180119664449	-59.0	-1.2845270628934538	109.0	
-0.13725577704829622	2013.0	1238.0	10.123327977504045	0.6781739750166055	2083.0	512.0	-0.3139178418148375	-15936.0	9.770692826486817	0.47087676272225626	768.0	0.0	51618.0	1575.25634765625	1261.0	0.782608695652174	0.1717171717171717	-672.0	-471.0	-0.5788423153692616	-1.948260496477048	117.0	1.1994998318151988	-38.0	-1.0907835547310472	83.0	
-0.18650000594765784	2015.0	1244.0	10.051648242878263	0.6528683498391854	2087.0	512.0	-0.3139178418148375	-15616.0	9.574494175352545	0.4316370324954016	704.0	0.0	52258.0	1594.78759765625	1264.0	0.7891304347826087	0.17575757575757575	-670.0	-465.0	-0.5908183632734532	-0.1538683719296271	108.0	0.9342023210424624	-29.0	-0.9718453466989547	-34.0	
-0.2596466386260292	2016.0	1245.0	10.041173741662812	0.6399839457291628	2093.0	704.0	-0.4316370324954016	-15808.0	9.692213366033108	0.510116492949111	832.0	0.0	52898.0	1614.31884765625	1263.0	0.7869565217391304	0.1919191919191919	-662.0	-484.0	-0.5528942115768464	1.459685619631438	76.0	0.6525062451401877	-19.0	-0.5012888714054399	-139.0	
-0.35718267812905163	2014.0	1243.0	10.067047111178466	0.6633637045714578	2101.0	896.0	-0.5493562231759657	-15872.0	9.731453096259962	0.39239730226854685	640.0	0.0	53538.0	1633.85009765625	1265.0	0.7913043478260869	0.1898989898989899	-663.0	-482.0	-0.5568862275449102	-0.05775651901345845	43.0	0.34823907491122186	7.0	0.015786690665419757	-40.0	
-0.39387990400920586	2013.0	1243.0	10.06754733124181	0.6750499272843741	2104.0	1024.0	-0.627835683629675	-15680.0	9.613733905579398	0.47087676272225626	768.0	0.0	54178.0	1653.38134765625	1261.0	0.782608695652174	0.1919191919191919	-662.0	-468.0	-0.5848303393213574	-3.697122995463679	-59.0	0.1346881485335934	34.0	1.6035111539090094	198.0	
-0.19954912346941422	2009.0	1245.0	10.03827360489605	0.7248932689106516	2088.0	768.0	-0.47087676272225626	-15616.0	9.574494175352545	0.510116492949111	832.0	0.0	54818.0	1672.91259765625	1264.0	0.7891304347826087	0.1898989898989899	-663.0	-487.0	-0.5469061876247505	-6.604167102288408	-112.0	0.2298125536203604	39.0	2.438665245167371	388.0	
-0.0048455349169376355	2010.0	1249.0	9.985811560866638	0.714267491584798	2072.0	640.0	-0.39239730226854685	-15616.0	9.574494175352545	0.627835683629675	1024.0	0.0	55458.0	1692.44384765625	1265.0	0.7913043478260869	0.18181818181818182	-667.0	-482.0	-0.5568862275449102	-4.787173070557044	-40.0	0.3870321103506936	23.0	1.325438270629525	269.0	
-0.05300372147161796	2012.0	1246.0	10.02384404330306	0.6900698490014467	2076.0	128.0	-0.07847946045370938	-15744.0	9.652973635806253	0.5493562231759657	896.0	0.0	56098.0	1711.97509765625	1260.0	0.7804347826086957	0.19595959595959597	-660.0	-471.0	-0.5788423153692616	2.1661366931258503	89.0	0.8961035668865177	-38.0	-0.7060720133190913	-185.0	
-0.4177715138904245	2017.0	1243.0	10.068993507947757	0.626632701868284	2106.0	640.0	-0.39239730226854685	-15744.0	9.652973635806253	0.47087676272225626	768.0	0.0	56738.0	1731.50634765625	1266.0	0.7934782608695652	0.1898989898989899	-663.0	-479.0	-0.5628742514970061	7.663826098102978	215.0	0.06538074551113898	-3.0	-2.677398717254794	-545.0	
-0.31891024807901647	2018.0	1233.0	10.18916465951567	0.6167748332709928	2098.0	960.0	-0.5885959534028203	-15936.0	9.770692826486817	0.39239730226854685	640.0	0.0	57378.0	1751.03759765625	1262.0	0.7847826086956522	0.17777777777777778	-669.0	-478.0	-0.564870259481038	-0.6967933026682491	173.0	-0.18786667739246304	51.0	-1.9550092532851047	0.0	
-0.0866712103836415	2017.0	1227.0	10.257389553827256	0.6318276653621467	2079.0	512.0	-0.3139178418148375	-15936.0	9.770692826486817	0.39239730226854685	640.0	0.0	58018.0	1770.56884765625	1260.0	0.7804347826086957	0.20404040404040405	-656.0	-474.0	-0.5728542914171657	-5.958325282018628	161.0	-0.09882949932408025	69.0	-1.7198844277881788	343.0	
-0.17163865907187445	2022.0	1229.0	10.235924764623267	0.5705223791278029	2086.0	512.0	-0.3139178418148375	-16000.0	9.809932556713672	0.4316370324954016	704.0	0.0	58658.0	1790.10009765625	1265.0	0.7913043478260869	0.1919191919191919	-662.0	-477.0	-0.56686626746507	-2.317203131810471	214.0	-0.45494078870409693	78.0	-2.562379299480375	105.0	
-0.12274349161005736	2026.0	1232.0	10.199322892183057	0.5224525409936817	2082.0	576.0	-0.3531575720416922	-15936.0	9.770692826486817	0.3139178418148375	512.0	0.0	59298.0	1809.63134765625	1262.0	0.7847826086956522	0.1898989898989899	-663.0	-467.0	-0.5868263473053893	0.5858354905868508	215.0	-0.20660879936016108	48.0	-2.606618811179633	-84.0	
-0.37754675409870714	2031.0	1227.0	10.266636884320105	0.46033668443474396	2103.0	896.0	-0.5493562231759657	-16000.0	9.809932556713672	0.27467811158798283	448.0	0.0	59938.0	1829.16259765625	1261.0	0.782608695652174	0.20202020202020202	-657.0	-466.0	-0.5888223552894213	1.7797743863039854	228.0	-0.3267757124993032	51.0	-2.8162768313155113	-162.0	
-0.061415516161989495	2030.0	1233.0	10.186855294069096	0.47474837368268535	2077.0	576.0	-0.3531575720416922	-15808.0	9.692213366033108	0.27467811158798283	448.0	0.0	60578.0	1848.69384765625	1262.0	0.7847826086956522	0.20606060606060606	-655.0	-483.0	-0.5548902195608784	-3.897152517326748	191.0	-0.7187887968644487	102.0	-2.196769919693653	208.0	
-0.17125721594095683	2031.0	1235.0	10.164929201576111	0.46138250298888156	2086.0	576.0	-0.3531575720416922	-15936.0	9.770692826486817	0.15695892090741875	256.0	0.0	61218.0	1868.22509765625	1262.0	0.7847826086956522	0.18181818181818182	-667.0	-464.0	-0.5928143712574852	-1.7218119853736142	200.0	-0.9846572427022917	110.0	-2.355405454290751	66.0	
-0.2565996314214329	2030.0	1234.0	10.178604541396652	0.47271402500336646	2093.0	768.0	-0.47087676272225626	-15808.0	9.692213366033108	0.27467811158798283	448.0	0.0	61858.0	1887.75634765625	1259.0	0.7782608695652175	0.20404040404040405	-656.0	-467.0	-0.5868263473053893	0.16555568992499287	205.0	-0.9480586665786326	99.0	-2.450324758420163	-57.0	
-0.40373543760003605	2033.0	1244.0	10.06037200324316	0.4339157632467926	2105.0	832.0	-0.510116492949111	-15744.0	9.652973635806253	0.19619865113427343	320.0	0.0	62498.0	1907.28759765625	1262.0	0.7847826086956522	0.20202020202020202	-657.0	-477.0	-0.56686626746507	-0.17858062246992265	186.0	-0.3509580684202517	60.0	-2.157910011265795	-34.0	
-0.3179103366330351	2034.0	1241.0	10.095457648783599	0.42307667794078263	2098.0	1088.0	-0.6670754138565297	-15744.0	9.652973635806253	0.15695892090741875	256.0	0.0	63138.0	1926.81884765625	1263.0	0.7869565217391304	0.1919191919191919	-662.0	-465.0	-0.5908183632734532	-1.4077199112933243	141.0	0.36688376514388493	16.0	-1.4612079719897286	47.0	
-0.11053691491016164	2033.0	1239.0	10.115413994442681	0.4373981683856865	2081.0	320.0	-0.19619865113427343	-15808.0	9.692213366033108	0.27467811158798283	448.0	0.0	63778.0	1946.35009765625	1259.0	0.7782608695652175	0.19595959595959597	-660.0	-481.0	-0.5588822355289422	-3.898686608268422	96.0	0.7527586813678534	0.0	-0.7518876586321448	210.0	
-0.12333389579086439	2032.0	1243.0	10.066660792436574	0.44883085932790273	2082.0	256.0	-0.15695892090741875	-15552.0	9.53525444512569	0.4316370324954016	704.0	0.0	64418.0	1965.88134765625	1266.0	0.7934782608695652	0.2080808080808081	-654.0	-482.0	-0.5568862275449102	1.3619778508665092	116.0	0.6986338103548091	-20.0	-1.1086768127291975	-133.0	
-0.4037419139387108	2030.0	1241.0	10.096227437265789	0.4704188311368851	2105.0	1152.0	-0.7063151440833844	-15680.0	9.613733905579398	0.15695892090741875	256.0	0.0	65058.0	1985.41259765625	1261.0	0.782608695652174	0.18787878787878787	-664.0	-468.0	-0.5848303393213574	5.610996547703027	135.0	0.7592886306231007	-43.0	-1.440140383727981	-410.0	
-0.36679686897661934	2034.0	1242.0	10.084252275860303	0.42247575888811384	2102.0	896.0	-0.5493562231759657	-15808.0	9.692213366033108	0.27467811158798283	448.0	0.0	162.0	2004.94384765625	1257.0	0.7739130434782608	0.20404040404040405	-656.0	-470.0	-0.5808383233532934	2.248494542484192	146.0	0.7901157329216939	-29.0	-1.5738157439039293	-191.0	
-0.1471156281982428	2031.0	1237.0	10.140056272187147	0.4613751895724191	2084.0	576.0	-0.3531575720416922	-15808.0	9.692213366033108	0.27467811158798283	448.0	0.0	802.0	2024.47509765625	1263.0	0.7869565217391304	0.2	-658.0	-483.0	-0.5548902195608784	-4.8522134821080005	50.0	1.3908395108376008	-40.0	-0.042732618030631025	273.0	
-0.012886680374182558	2032.0	1237.0	10.137586305289902	0.4506445866106028	2073.0	192.0	-0.11771919068056406	-15744.0	9.652973635806253	0.19619865113427343	320.0	0.0	1442.0	2044.00634765625	1262.0	0.7847826086956522	0.19393939393939394	-661.0	-457.0	-0.6067864271457086	-3.467748901301067	35.0	1.4802578494539043	-53.0	0.1715596182905772	183.0	
-0.12358603243191796	2027.0	1240.0	10.102039356460468	0.5094230874571528	2082.0	512.0	-0.3139178418148375	-15680.0	9.613733905579398	0.27467811158798283	448.0	0.0	2082.0	2063.53759765625	1260.0	0.7804347826086957	0.20606060606060606	-655.0	-467.0	-0.5868263473053893	0.14971500133168947	-57.0	1.157520276333489	-52.0	1.5346245229904856	-52.0	
-0.1975816822708245	2026.0	1246.0	10.030136753545058	0.520012297700694	2088.0	576.0	-0.3531575720416922	-15680.0	9.613733905579398	0.3139178418148375	512.0	0.0	2722.0	2083.06884765625	1262.0	0.7847826086956522	0.1919191919191919	-662.0	-480.0	-0.5608782435129741	2.840181135393776	-82.0	1.2399122791418753	-71.0	1.887947998531994	-227.0	
-0.051402611947038504	2027.0	1248.0	10.003040075613086	0.5091549288535278	2076.0	320.0	-0.19619865113427343	-15616.0	9.574494175352545	0.27467811158798283	448.0	0.0	3362.0	2102.60009765625	1260.0	0.7804347826086957	0.1919191919191919	-662.0	-465.0	-0.5908183632734532	-7.77946047996068	-160.0	0.1474789180606696	48.0	3.180456201757782	465.0	
0.1559621746576021	2022.0	1242.0	10.070803666635676	0.5721471764852217	2059.0	0.0	0.0	-15808.0	9.692213366033108	0.3139178418148375	512.0	0.0	4002.0	2122.13134765625	1265.0	0.7913043478260869	0.21414141414141413	-651.0	-484.0	-0.5528942115768464	-5.6173078337683275	-114.0	-0.8745723401273495	108.0	2.459214903432741	323.0	
0.3878478333563162	2025.0	1243.0	10.054650576563024	0.5381599238582294	2040.0	-256.0	0.15695892090741875	-15808.0	9.692213366033108	0.27467811158798283	448.0	0.0	4642.0	2141.66259765625	1264.0	0.7891304347826087	0.2080808080808081	-654.0	-484.0	-0.5528942115768464	3.365977995093329	-12.0	-1.9025234180688617	139.0	0.8180512466650364	-264.0	
0.009666750521301226	2023.0	1243.0	10.06180647554565	0.5585460575618743	2071.0	256.0	-0.15695892090741875	-15680.0	9.613733905579398	0.39239730226854685	640.0	0.0	5282.0	2161.19384765625	1259.0	0.7782608695652175	0.20202020202020202	-657.0	-466.0	-0.5888223552894213	10.778256875898922	17.0	-3.0604456075391413	183.0	0.30286381907371046	-748.0	
-0.6357741493637545	2015.0	1229.0	10.243612017088719	0.650295246147129	2124.0	1344.0	-0.8240343347639485	-16000.0	9.809932556713672	0.47087676272225626	768.0	0.0	5922.0	2180.72509765625	1261.0	0.782608695652174	0.20202020202020202	-657.0	-484.0	-0.5528942115768464	3.5148977998260675	-39.0	-2.7688943018866206	195.0	1.2272084364504086	-274.0	
-0.11067917407737497	2023.0	1230.0	10.222741861511205	0.5589519521755429	2081.0	384.0	-0.23543838136112813	-16064.0	9.849172286940528	0.39239730226854685	640.0	0.0	6562.0	2200.25634765625	1266.0	0.7934782608695652	0.2	-658.0	-486.0	-0.5489021956087825	-5.163283498312678	-114.0	-3.0501004698570715	251.0	2.454674660078184	292.0	
-0.08690175922911297	2022.0	1234.0	10.173250004442384	0.5707430005244217	2079.0	384.0	-0.23543838136112813	-16064.0	9.849172286940528	0.3531575720416922	576.0	0.0	7202.0	2219.78759765625	1258.0	0.7760869565217391	0.20404040404040405	-656.0	-461.0	-0.5988023952095809	-2.8460633047613038	-17.0	-3.137375084736015	250.0	0.9562172870400085	140.0	
-0.08787144776127945	2020.0	1240.0	10.099631656402181	0.5940935057008667	2079.0	384.0	-0.23543838136112813	-15744.0	9.652973635806253	0.3531575720416922	576.0	0.0	7842.0	2239.31884765625	1264.0	0.7891304347826087	0.20606060606060606	-655.0	-484.0	-0.5528942115768464	1.9655429092916537	18.0	-3.3610150790799462	244.0	0.375781833264498	-174.0	
-0.39290589791792296	2017.0	1239.0	10.11726205660026	0.627364043514534	2104.0	896.0	-0.5493562231759657	-15744.0	9.652973635806253	0.4316370324954016	704.0	0.0	8482.0	2258.85009765625	1267.0	0.7956521739130434	0.1919191919191919	-662.0	-479.0	-0.5628742514970061	3.514061465360315	39.0	-3.2011437414649446	227.0	0.04090501272282271	-275.0	
-0.5139758507463869	2017.0	1232.0	10.205055964524346	0.6270312830654903	2114.0	1088.0	-0.6670754138565297	-16000.0	9.809932556713672	0.47087676272225626	768.0	0.0	9122.0	2278.38134765625	1260.0	0.7804347826086957	0.19595959595959597	-660.0	-459.0	-0.6027944111776448	-3.376010864983628	10.0	-2.004604609166166	178.0	0.5508703748095322	175.0	
-0.19686413037971162	2023.0	1237.0	10.139133665609156	0.5572540206534992	2088.0	512.0	-0.3139178418148375	-15744.0	9.652973635806253	0.3139178418148375	512.0	0.0	9762.0	2297.91259765625	1263.0	0.7869565217391304	0.21212121212121213	-652.0	-483.0	-0.5548902195608784	-6.479567054642325	1.0	-0.9394996698938448	121.0	0.7187880659836857	378.0	
0.1809570971199677	2026.0	1241.0	10.083455216264918	0.5243308701218005	2057.0	0.0	0.0	-15680.0	9.613733905579398	0.3139178418148375	512.0	0.0	10402.0	2317.44384765625	1263.0	0.7869565217391304	0.18383838383838383	-666.0	-471.0	-0.5788423153692616	-0.27459794155199463	-2.0	-0.5336104053269136	65.0	0.7023657512786379	-26.0	
-0.05189393255179635	2023.0	1248.0	10.002086335615616	0.5573332493318428	2076.0	256.0	-0.15695892090741875	-15552.0	9.53525444512569	0.39239730226854685	640.0	0.0	11042.0	2336.97509765625	1263.0	0.7869565217391304	0.2202020202020202	-648.0	-472.0	-0.5768463073852296	8.103866933393872	54.0	-1.3525481870247742	83.0	-0.23312992408679042	-573.0	
-0.3573011907211247	2015.0	1245.0	10.042905053497345	0.6510729060976415	2101.0	960.0	-0.5885959534028203	-15616.0	9.574494175352545	0.4316370324954016	704.0	0.0	11682.0	2356.50634765625	1262.0	0.7847826086956522	0.21414141414141413	-651.0	-487.0	-0.5469061876247505	6.476877392351904	98.0	-2.2320319090043146	151.0	-0.8860615495889184	-468.0	
-0.3566891987447356	2019.0	1244.0	10.05604903983506	0.6030176947964452	2101.0	960.0	-0.5885959534028203	-15872.0	9.731453096259962	0.39239730226854685	640.0	0.0	12322.0	2376.03759765625	1263.0	0.7869565217391304	0.20202020202020202	-657.0	-471.0	-0.5788423153692616	-0.5899521527842356	79.0	-1.6767769892834266	146.0	-0.5264198701071388	-7.0	
-0.13650584346381017	2025.0	1244.0	10.053047719454991	0.5329003585189478	2083.0	576.0	-0.3531575720416922	-15744.0	9.652973635806253	0.39239730226854685	640.0	0.0	12962.0	2395.56884765625	1262.0	0.7847826086956522	0.2101010101010101	-653.0	-475.0	-0.5708582834331338	-2.105195238094967	72.0	-1.3656795732051163	132.0	-0.4048035609270352	92.0	
-0.14894728656829376	2021.0	1242.0	10.076720690492246	0.5812054448826128	2084.0	512.0	-0.3139178418148375	-15616.0	9.574494175352545	0.4316370324954016	704.0	0.0	13602.0	2415.10009765625	1263.0	0.7869565217391304	0.21616161616161617	-650.0	-488.0	-0.5449101796407186	4.380965266094053	101.0	-1.5146161875309487	113.0	-0.9107298047521953	-331.0	
-0.38009812313942914	2023.0	1240.0	10.106256201901985	0.5550929060888302	2103.0	960.0	-0.5885959534028203	-15872.0	9.731453096259962	0.4316370324954016	704.0	0.0	14242.0	2434.63134765625	1264.0	0.7891304347826087	0.19393939393939394	-661.0	-471.0	-0.5788423153692616	5.918506732687465	188.0	-1.4487612869668502	105.0	-2.2492991357679397	-432.0	
-0.39229390594153385	2021.0	1238.0	10.130406042937976	0.5793088322133377	2104.0	896.0	-0.5493562231759657	-15872.0	9.731453096259962	0.3531575720416922	576.0	0.0	14882.0	2454.16259765625	1258.0	0.7760869565217391	0.18181818181818182	-667.0	-463.0	-0.594810379241517	0.14689830014148164	299.0	-1.3843264241507838	132.0	-3.879795979199134	-57.0	
-0.3797339502449772	2024.0	1238.0	10.130875129581842	0.543294544323489	2103.0	960.0	-0.5885959534028203	-15744.0	9.652973635806253	0.3531575720416922	576.0	0.0	15522.0	2473.69384765625	1262.0	0.7847826086956522	0.20202020202020202	-657.0	-487.0	-0.5469061876247505	1.2782985593762202	343.0	1.92201701822319	-92.0	-4.560311502704028	-129.0	
-0.15785903698165601	2031.0	1225.0	10.286585446624319	0.46273304722895664	2085.0	576.0	-0.3531575720416922	-16000.0	9.809932556713672	0.23543838136112813	384.0	0.0	16162.0	2493.22509765625	1264.0	0.7891304347826087	0.19797979797979798	-659.0	-480.0	-0.5608782435129741	5.558167704984852	254.0	0.3556008353986131	-11.0	-3.2494980268597344	-408.0	
-0.4619237986061331	2030.0	1218.0	10.3778341948626	0.472653079866179	2110.0	1088.0	-0.6670754138565297	-16064.0	9.849172286940528	0.3139178418148375	512.0	0.0	16802.0	2512.75634765625	1261.0	0.782608695652174	0.18383838383838383	-666.0	-476.0	-0.5688622754491018	9.098811210145486	328.0	-0.5204716098193901	34.0	-4.410379747082445	-640.0	
-0.498125386322413	2035.0	1220.0	10.355384532241663	0.4118256035073851	2113.0	1216.0	-0.745554874310239	-16192.0	9.927651747394236	0.23543838136112813	384.0	0.0	17442.0	2532.28759765625	1262.0	0.7847826086956522	0.19595959595959597	-660.0	-459.0	-0.6027944111776448	1.4143936519604217	393.0	-0.5907700827033834	77.0	-5.32212872739413	-140.0	
-0.3392678477099973	2038.0	1220.0	10.352898998634679	0.37724474524418644	2100.0	896.0	-0.5493562231759657	-16320.0	10.006131207847945	0.15695892090741875	256.0	0.0	18082.0	2551.81884765625	1260.0	0.7804347826086957	0.19595959595959597	-660.0	-466.0	-0.5888223552894213	-3.293965893338111	317.0	0.1254786089001798	48.0	-4.119151595819471	168.0	
-0.09543638407067397	2039.0	1221.0	10.33602282020905	0.36746610532523905	2080.0	448.0	-0.27467811158798283	-16000.0	9.809932556713672	0.19619865113427343	320.0	0.0	18722.0	2571.35009765625	1260.0	0.7804347826086957	0.2101010101010101	-653.0	-470.0	-0.5808383233532934	1.5889374754659595	191.0	-0.021160390497753992	30.0	-2.25163081962158	-149.0	
-0.4252028261508386	2042.0	1229.0	10.245864050049612	0.32712227488959006	2107.0	960.0	-0.5885959534028203	-16000.0	9.809932556713672	0.11771919068056406	192.0	0.0	19362.0	2590.88134765625	1261.0	0.782608695652174	0.17373737373737375	-671.0	-470.0	-0.5808383233532934	10.81199330312311	125.0	0.4212006137520007	-45.0	-1.3400590965293302	-749.0	
-0.6212381173503753	2039.0	1234.0	10.188137007018087	0.36072922986053246	2123.0	1280.0	-0.7847946045370937	-16000.0	9.809932556713672	0.15695892090741875	256.0	0.0	20002.0	2610.41259765625	1257.0	0.7739130434782608	0.18383838383838383	-666.0	-459.0	-0.6027944111776448	6.567548128132589	88.0	0.5441794547466594	-35.0	-0.7348770021938734	-472.0	
-0.09772698135210965	2040.0	1241.0	10.092456328403529	0.35295934166328513	2080.0	448.0	-0.27467811158798283	-15872.0	9.731453096259962	0.11771919068056406	192.0	0.0	20642.0	2629.94384765625	1259.0	0.7782608695652175	0.20606060606060606	-655.0	-468.0	-0.5848303393213574	-5.753234997078125	65.0	0.5331408511808846	22.0	-0.26185928501020733	331.0	
-0.1711192743328599	2039.0	1242.0	10.081504957189342	0.36416409779242015	2086.0	512.0	-0.3139178418148375	-15680.0	9.613733905579398	0.15695892090741875	256.0	0.0	21282.0	2649.47509765625	1262.0	0.7847826086956522	0.19393939393939394	-661.0	-465.0	-0.5908183632734532	-1.9543427574536871	94.0	0.24140302560997662	25.0	-0.7409128461897219	83.0	
-0.20804920783804387	2042.0	1248.0	10.00981743920869	0.3269333449643088	2089.0	640.0	-0.39239730226854685	-15616.0	9.574494175352545	0.15695892090741875	256.0	0.0	21922.0	2669.00634765625	1259.0	0.7782608695652175	0.18383838383838383	-666.0	-467.0	-0.5868263473053893	4.944784463805577	140.0	0.20899866683238266	-3.0	-1.5095238902654324	-367.0	
-0.4762614431837855	2042.0	1248.0	10.015234243001917	0.32430539064878366	2111.0	1024.0	-0.627835683629675	-15680.0	9.613733905579398	0.15695892090741875	256.0	0.0	22562.0	2688.53759765625	1257.0	0.7739130434782608	0.19595959595959597	-660.0	-481.0	-0.5588822355289422	6.723654567780321	122.0	-0.21061883396085754	16.0	-1.2535483327500467	-483.0	
-0.28119584051641516	2043.0	1249.0	9.999342937993239	0.31404894085428625	2095.0	704.0	-0.4316370324954016	-15616.0	9.574494175352545	0.11771919068056406	192.0	0.0	23202.0	2708.06884765625	1264.0	0.7891304347826087	0.20202020202020202	-657.0	-480.0	-0.5608782435129741	0.548291343200183	58.0	-0.20955401219808428	42.0	-0.21841067008599424	-80.0	
-0.25802610008542587	2040.0	1256.0	9.91280347190495	0.34955982191096624	2093.0	704.0	-0.4316370324954016	-15552.0	9.53525444512569	0.11771919068056406	192.0	0.0	23842.0	2727.60009765625	1259.0	0.7782608695652175	0.19595959595959597	-660.0	-464.0	-0.5928143712574852	-2.199607150647057	50.0	-0.397979790881556	67.0	-0.06925868134524048	99.0	
-0.1728086735356975	2039.0	1256.0	9.910841508425918	0.36244056931275753	2086.0	576.0	-0.3531575720416922	-15360.0	9.417535254445125	0.15695892090741875	256.0	0.0	24482.0	2747.13134765625	1257.0	0.7739130434782608	0.19595959595959597	-660.0	-458.0	-0.6047904191616768	0.5709306027210882	72.0	-0.802312744319617	82.0	-0.4315648193351957	-82.0	
-0.5750063551826786	2039.0	1255.0	9.931156960456	0.35862174701658855	2119.0	1280.0	-0.7847946045370937	-15552.0	9.53525444512569	0.11771919068056406	192.0	0.0	25122.0	2766.66259765625	1264.0	0.7891304347826087	0.1797979797979798	-668.0	-478.0	-0.564870259481038	6.788827937326148	128.0	-1.27597247648412	87.0	-1.345454819297216	-488.0	
-0.5751270265543099	2039.0	1256.0	9.918966714115756	0.3584986378394698	2119.0	1280.0	-0.7847946045370937	-15360.0	9.417535254445125	0.11771919068056406	192.0	0.0	25762.0	2786.19384765625	1261.0	0.782608695652174	0.18787878787878787	-664.0	-463.0	-0.594810379241517	4.338186344924699	123.0	-0.8535770830298953	70.0	-1.2449027759967757	-328.0	
-0.6739861335861598	2039.0	1267.0	9.786843751206968	0.35618881714006334	2127.0	1344.0	-0.8240343347639485	-15552.0	9.53525444512569	0.11771919068056406	192.0	0.0	26402.0	2805.72509765625	1259.0	0.7782608695652175	0.19595959595959597	-660.0	-442.0	-0.6367265469061877	-0.22542268108208485	103.0	-0.15831209774877697	44.0	-0.8950841762310043	-30.0	
-0.34241393849064283	2034.0	1242.0	10.083759839151828	0.42271466382588885	2100.0	768.0	-0.47087676272225626	-15616.0	9.574494175352545	0.23543838136112813	384.0	0.0	27042.0	2825.25634765625	1262.0	0.7847826086956522	0.18383838383838383	-666.0	-460.0	-0.6007984031936129	-6.021060363449958	27.0	0.7985286934241975	4.0	0.3187657367143475	349.0	
-0.03750231848518874	2036.0	1243.0	10.065891003954382	0.4014887061318002	2075.0	448.0	-0.27467811158798283	-15680.0	9.613733905579398	0.19619865113427343	320.0	0.0	27682.0	2844.78759765625	1263.0	0.7869565217391304	0.18787878787878787	-664.0	-463.0	-0.594810379241517	-4.366819026657148	51.0	0.832926790572825	-5.0	-0.06279568806042474	241.0	
-0.6209946158275546	2040.0	1233.0	10.200565688357699	0.3488077589180724	2123.0	1472.0	-0.9025137952176578	-15744.0	9.652973635806253	0.11771919068056406	192.0	0.0	28322.0	2864.31884765625	1263.0	0.7869565217391304	0.19393939393939394	-661.0	-480.0	-0.5608782435129741	10.544935346768527	192.0	0.8253758899949402	-68.0	-2.3563999238098905	-732.0	
-0.7307285969122399	2035.0	1228.0	10.262540710250219	0.40857113318157245	2132.0	1600.0	-0.9809932556713672	-16000.0	9.809932556713672	0.27467811158798283	448.0	0.0	28962.0	2883.85009765625	1260.0	0.7804347826086957	0.18181818181818182	-667.0	-474.0	-0.5728542914171657	9.270298079569917	187.0	0.6711687587268919	-52.0	-2.267607923761479	-649.0	
-0.7306057667610505	2036.0	1228.0	10.262779145249587	0.3965265530619937	2132.0	1472.0	-0.9025137952176578	-16000.0	9.809932556713672	0.23543838136112813	384.0	0.0	29602.0	2903.38134765625	1256.0	0.7717391304347826	0.19797979797979798	-659.0	-460.0	-0.6007984031936129	-0.3615532600949488	168.0	1.030136601643831	-32.0	-1.8823160263344119	-21.0	
-0.3034217977699365	2036.0	1224.0	10.302922488212252	0.4011998261815315	2097.0	832.0	-0.510116492949111	-16064.0	9.849172286940528	0.11771919068056406	192.0	0.0	30242.0	2922.91259765625	1261.0	0.782608695652174	0.2	-658.0	-482.0	-0.5568862275449102	-8.890432212164422	202.0	1.9892585735611508	-55.0	-2.3141375029734133	535.0	
-0.40010666133286554	2037.0	1218.0	10.378272148086987	0.38893828137356523	2105.0	1024.0	-0.627835683629675	-16192.0	9.927651747394236	0.19619865113427343	320.0	0.0	30882.0	2942.44384765625	1259.0	0.7782608695652175	0.18181818181818182	-667.0	-464.0	-0.5928143712574852	-1.8639259807676734	258.0	2.568764939541265	-124.0	-3.23611359190335	77.0	
-0.17968196330867758	2043.0	1216.0	10.399651320387408	0.3190671634503053	2087.0	576.0	-0.3531575720416922	-16192.0	9.927651747394236	0.07847946045370938	128.0	0.0	31522.0	2961.97509765625	1254.0	0.7673913043478261	0.2	-658.0	-465.0	-0.5908183632734532	-3.7023324925093726	203.0	2.0635578067878226	-84.0	-2.381227625645249	197.0	
-0.3009781474234964	2050.0	1218.0	10.379402056244869	0.23331435957014135	2097.0	832.0	-0.510116492949111	-16064.0	9.849172286940528	0.0	0.0	0.0	32162.0	2981.50634765625	1263.0	0.7869565217391304	0.2	-658.0	-481.0	-0.5588822355289422	-4.72403859999198	134.0	1.672901260609299	-56.0	-1.3215809067757458	264.0	
-0.11906938097216443	2051.0	1227.0	10.266234998868473	0.2219535838898064	2082.0	512.0	-0.3139178418148375	-16192.0	9.927651747394236	0.0	0.0	0.0	32802.0	3001.03759765625	1258.0	0.7760869565217391	0.19393939393939394	-661.0	-463.0	-0.594810379241517	-5.067241577873199	9.0	0.7511773431021017	2.0	0.582991807413713	287.0	
-0.19234316136084167	2049.0	1226.0	10.279425685335406	0.24544913849275762	2088.0	768.0	-0.47087676272225626	-16000.0	9.809932556713672	0.03923973022685469	64.0	0.0	33442.0	3020.56884765625	1256.0	0.7717391304347826	0.20202020202020202	-657.0	-469.0	-0.5828343313373254	-1.5465268327546853	-66.0	0.22062816044598257	18.0	1.6884690706089156	58.0	
-0.328276619844647	2041.0	1233.0	10.194894882855367	0.33963003805179387	2099.0	960.0	-0.5885959534028203	-16000.0	9.809932556713672	0.07847946045370938	128.0	0.0	34082.0	3040.10009765625	1262.0	0.7847826086956522	0.19797979797979798	-659.0	-471.0	-0.5788423153692616	1.5946061381436512	-54.0	-0.11063434408541228	26.0	1.4745482351965102	-147.0	
-0.5844159025394735	2042.0	1235.0	10.175923410613233	0.3248307377313399	2120.0	1280.0	-0.7847946045370937	-15936.0	9.770692826486817	0.15695892090741875	256.0	0.0	34722.0	3059.63134765625	1262.0	0.7847826086956522	0.18585858585858586	-665.0	-474.0	-0.5728542914171657	-2.317181050380153	-43.0	0.24328057818559967	21.0	1.3463657268536116	108.0	
-0.476384273334975	2041.0	1248.0	10.01499580800255	0.3363499707683624	2111.0	1152.0	-0.7063151440833844	-15616.0	9.574494175352545	0.11771919068056406	192.0	0.0	35362.0	3079.16259765625	1257.0	0.7739130434782608	0.2080808080808081	-654.0	-473.0	-0.5748502994011977	-5.914611910880906	-38.0	1.2463287785778059	-29.0	1.3062944080821932	343.0	
-0.3666567685889642	2043.0	1250.0	9.988876220132656	0.31308966439495495	2102.0	768.0	-0.47087676272225626	-15552.0	9.53525444512569	0.07847946045370938	128.0	0.0	36002.0	3098.69384765625	1261.0	0.782608695652174	0.2101010101010101	-653.0	-475.0	-0.5708582834331338	-5.221681643963973	18.0	2.3266220466782195	-102.0	0.4476540787970542	298.0	
-0.19523711550043363	2050.0	1251.0	9.974907961828661	0.23032682894520992	2088.0	576.0	-0.3531575720416922	-15680.0	9.613733905579398	-0.03923973022685469	-64.0	0.0	36642.0	3118.22509765625	1261.0	0.782608695652174	0.2	-658.0	-467.0	-0.5868263473053893	-3.2730649446288145	36.0	2.546776480953594	-125.0	0.15440365324856953	171.0	
-0.09685421761643415	2053.0	1247.0	10.022414505353844	0.19564114504604874	2080.0	448.0	-0.27467811158798283	-15616.0	9.574494175352545	0.03923973022685469	64.0	0.0	37282.0	3137.75634765625	1259.0	0.7782608695652175	0.21414141414141413	-651.0	-466.0	-0.5888223552894213	2.7244025241081036	25.0	2.032705707431624	-119.0	0.26172935878933723	-220.0	
-0.47456125008315686	2047.0	1239.0	10.126138635060956	0.26519047264495865	2111.0	1024.0	-0.627835683629675	-15680.0	9.613733905579398	0.03923973022685469	64.0	0.0	37922.0	3157.28759765625	1260.0	0.7804347826086957	0.20404040404040405	-656.0	-480.0	-0.5608782435129741	1.2728845748036475	75.0	1.9092770439356432	-102.0	-0.48421173548187685	-126.0	
-0.31582438284237235	2050.0	1240.0	10.111462855113727	0.2304865052046412	2098.0	768.0	-0.47087676272225626	-15808.0	9.692213366033108	0.03923973022685469	64.0	0.0	38562.0	3176.81884765625	1257.0	0.7739130434782608	0.19595959595959597	-660.0	-458.0	-0.6047904191616768	-5.729679325914765	98.0	1.8559252481822475	-65.0	-0.7639959824062517	330.0	
-0.3153460149149637	2048.0	1234.0	10.18412746315646	0.25531432050651126	2098.0	832.0	-0.510116492949111	-15872.0	9.731453096259962	0.07847946045370938	128.0	0.0	39202.0	3196.35009765625	1260.0	0.7804347826086957	0.21414141414141413	-651.0	-482.0	-0.5568862275449102	-4.509265867793867	86.0	2.468331767430815	-112.0	-0.5936906112840385	251.0	
-0.23060479751308582	2050.0	1241.0	10.09754908029382	0.23119956330973498	2091.0	640.0	-0.39239730226854685	-15744.0	9.652973635806253	-0.03923973022685469	-64.0	0.0	39842.0	3215.88134765625	1260.0	0.7804347826086957	0.21414141414141413	-651.0	-481.0	-0.5588822355289422	-4.572076511779229	33.0	3.055152695917755	-153.0	0.21302114534592917	256.0	
-0.2062369784840168	2043.0	1234.0	10.180719322971482	0.31661229332439267	2089.0	768.0	-0.47087676272225626	-15936.0	9.770692826486817	0.15695892090741875	256.0	0.0	40482.0	3235.41259765625	1264.0	0.7891304347826087	0.20202020202020202	-657.0	-466.0	-0.5888223552894213	-2.471121874713558	17.0	2.644319849155661	-136.0	0.43535760657983524	119.0	
-0.12078252675014232	2040.0	1230.0	10.227041474854694	0.3540746376738165	2082.0	384.0	-0.23543838136112813	-15936.0	9.770692826486817	0.15695892090741875	256.0	0.0	41122.0	3254.94384765625	1259.0	0.7782608695652175	0.2080808080808081	-654.0	-456.0	-0.6087824351297406	-3.540169872788862	91.0	2.7637446012285465	-136.0	-0.6794271986105145	188.0	
-0.18173337662640898	2043.0	1233.0	10.192417132603252	0.3169743074392864	2087.0	576.0	-0.3531575720416922	-16000.0	9.809932556713672	0.07847946045370938	128.0	0.0	41762.0	3274.47509765625	1259.0	0.7782608695652175	0.21616161616161617	-650.0	-482.0	-0.5568862275449102	-1.3514645066375854	194.0	2.1943121847625626	-104.0	-2.2678541762264	44.0	
-0.3153611263718712	2041.0	1227.0	10.267790142542594	0.3404881455833939	2098.0	896.0	-0.5493562231759657	-16064.0	9.849172286940528	0.19619865113427343	320.0	0.0	42402.0	3294.00634765625	1258.0	0.7760869565217391	0.2080808080808081	-654.0	-460.0	-0.6007984031936129	-0.8871955955184413	185.0	2.44138135459196	-123.0	-2.135614736060025	14.0	
-0.2179479170200382	2042.0	1229.0	10.241678338027574	0.3291529668606777	2090.0	704.0	-0.4316370324954016	-15872.0	9.731453096259962	0.07847946045370938	128.0	0.0	43042.0	3313.53759765625	1256.0	0.7717391304347826	0.2	-658.0	-449.0	-0.6227544910179642	-2.656034416575824	125.0	2.677915672878129	-133.0	-1.205378819332341	130.0	
-0.059708846722686226	2038.0	1227.0	10.261904252105504	0.37913038778876784	2077.0	512.0	-0.3139178418148375	-15936.0	9.770692826486817	0.15695892090741875	256.0	0.0	43682.0	3333.06884765625	1261.0	0.782608695652174	0.2	-658.0	-467.0	-0.5868263473053893	-1.2537761806709855	87.0	2.6621481551736004	-140.0	-0.6414546336305526	39.0	
-0.16991903695522195	2036.0	1229.0	10.239262854614417	0.4018982574537003	2086.0	448.0	-0.27467811158798283	-15872.0	9.731453096259962	0.19619865113427343	320.0	0.0	44322.0	3352.60009765625	1259.0	0.7782608695652175	0.20202020202020202	-657.0	-463.0	-0.594810379241517	3.0088248900755343	117.0	2.713557153678755	-162.0	-1.1403544085965729	-239.0	
-0.267439965001337	2041.0	1234.0	10.181473544743934	0.3401041912191126	2094.0	768.0	-0.47087676272225626	-15936.0	9.770692826486817	0.11771919068056406	192.0	0.0	44962.0	3372.13134765625	1264.0	0.7891304347826087	0.21414141414141413	-651.0	-481.0	-0.5588822355289422	1.0274056232613906	91.0	2.160983775489056	-117.0	-0.7251029535710171	-110.0	
0.012364696288353044	2043.0	1241.0	10.090955668213494	0.31790067352453644	2071.0	256.0	-0.15695892090741875	-15872.0	9.731453096259962	0.15695892090741875	256.0	0.0	45602.0	3391.66259765625	1259.0	0.7782608695652175	0.2101010101010101	-653.0	-463.0	-0.594810379241517	-5.70492985182479	15.0	1.5338433207413718	-47.0	0.49811393730151793	329.0	
-0.08493215925096512	2040.0	1236.0	10.153161341750515	0.35369434001776645	2079.0	256.0	-0.15695892090741875	-15936.0	9.770692826486817	0.11771919068056406	192.0	0.0	46242.0	3411.19384765625	1258.0	0.7760869565217391	0.21212121212121213	-652.0	-465.0	-0.5908183632734532	-2.2522495106157856	-46.0	0.5517788266716102	0.0	1.3913437878818236	104.0	
-0.20780570631522313	2043.0	1247.0	10.022246120548303	0.31501187402184877	2089.0	576.0	-0.3531575720416922	-15552.0	9.53525444512569	0.11771919068056406	192.0	0.0	46882.0	3430.72509765625	1259.0	0.7782608695652175	0.22626262626262628	-645.0	-482.0	-0.5568862275449102	1.9412009105442214	19.0	0.3594284185871188	-4.0	0.36081612777668715	-170.0	
-0.34105633048888406	2048.0	1245.0	10.050527190122244	0.2537212146204299	2100.0	896.0	-0.5493562231759657	-15680.0	9.613733905579398	0.03923973022685469	64.0	0.0	47522.0	3450.25634765625	1260.0	0.7804347826086957	0.21212121212121213	-652.0	-481.0	-0.5588822355289422	0.8778193228764654	-14.0	0.9530938663939519	-40.0	0.8733510843377753	-100.0	
-0.012722833411387136	2052.0	1256.0	9.910740324812611	0.20741390985377123	2073.0	320.0	-0.19619865113427343	-15488.0	9.496014714898834	-0.03923973022685469	-64.0	0.0	48162.0	3469.78759765625	1257.0	0.7739130434782608	0.2222222222222222	-647.0	-469.0	-0.5828343313373254	-6.388201028599565	-61.0	1.1153731482525027	-19.0	1.660840185190939	374.0	
0.0485921893593315	2050.0	1251.0	9.969983594743912	0.2327158783229601	2068.0	192.0	-0.11771919068056406	-15552.0	9.53525444512569	0.03923973022685469	64.0	0.0	48802.0	3489.31884765625	1260.0	0.7804347826086957	0.22626262626262628	-645.0	-482.0	-0.5568862275449102	-6.379762808955273	-125.0	0.9858954644597746	-13.0	2.6341398334127466	374.0	
0.059932478662226334	2047.0	1255.0	9.920261086030592	0.26847663444210884	2067.0	128.0	-0.07847946045370938	-15744.0	9.652973635806253	0.0	0.0	0.0	49442.0	3508.85009765625	1265.0	0.7913043478260869	0.21616161616161617	-650.0	-470.0	-0.5808383233532934	-3.4763453556772186	-80.0	0.406396434367735	14.0	1.9206950124921336	184.0	
-0.049670037153036736	2047.0	1254.0	9.934667297558974	0.2675246713992401	2076.0	384.0	-0.23543838136112813	-15552.0	9.53525444512569	0.07847946045370938	128.0	0.0	50082.0	3528.38134765625	1259.0	0.7782608695652175	0.22424242424242424	-646.0	-463.0	-0.594810379241517	-0.4952893375744866	-21.0	0.12986094539257623	21.0	0.993546049269281	-11.0	
-0.41504550398911594	2050.0	1254.0	9.942769153184203	0.22780735697387852	2106.0	1024.0	-0.627835683629675	-15424.0	9.45677498467198	-0.03923973022685469	-64.0	0.0	50722.0	3547.91259765625	1263.0	0.7869565217391304	0.21616161616161617	-650.0	-480.0	-0.5608782435129741	1.810225499655607	47.0	-0.034211577230240445	24.0	-0.06372963142241159	-162.0	
-0.10953052712550564	2052.0	1250.0	9.985851549687979	0.20719694516538373	2081.0	576.0	-0.3531575720416922	-15552.0	9.53525444512569	0.03923973022685469	64.0	0.0	51362.0	3567.44384765625	1263.0	0.7869565217391304	0.21818181818181817	-649.0	-480.0	-0.5608782435129741	-5.835585017802221	10.0	0.6703298778070397	11.0	0.575466116337718	337.0	
0.025183264964637866	2054.0	1247.0	10.020190756810836	0.18479108961534507	2070.0	256.0	-0.15695892090741875	-15552.0	9.53525444512569	0.0	0.0	0.0	52002.0	3586.97509765625	1263.0	0.7869565217391304	0.23434343434343435	-641.0	-475.0	-0.5708582834331338	-7.779164182388114	16.0	1.3189983052125678	-23.0	0.503647155131866	464.0	
0.013224507346679307	2050.0	1241.0	10.09262471320907	0.23358861268748513	2071.0	256.0	-0.15695892090741875	-15744.0	9.652973635806253	0.03923973022685469	64.0	0.0	52642.0	3606.50634765625	1265.0	0.7913043478260869	0.23030303030303031	-643.0	-486.0	-0.5489021956087825	-2.0332483067015867	77.0	1.301020412631378	-46.0	-0.48156865761739487	89.0	
-0.42602809673623354	2051.0	1245.0	10.05296602360001	0.21675130697948108	2107.0	960.0	-0.5885959534028203	-15744.0	9.652973635806253	0.03923973022685469	64.0	0.0	53282.0	3626.03759765625	1255.0	0.7695652173913043	0.21414141414141413	-651.0	-460.0	-0.6007984031936129	4.811244702487691	178.0	1.2459086560669788	-70.0	-2.0861352607130903	-358.0	
-0.22915674105351072	2050.0	1229.0	10.243832036376753	0.23267687343516008	2091.0	704.0	-0.4316370324954016	-16000.0	9.809932556713672	0.07847946045370938	128.0	0.0	53922.0	3645.56884765625	1261.0	0.782608695652174	0.23636363636363636	-640.0	-468.0	-0.5848303393213574	-0.8669973479004428	226.0	2.0151434098934367	-93.0	-2.759390863022897	12.0	
0.039178324443420384	2051.0	1229.0	10.238653667582895	0.2232602476311065	2069.0	256.0	-0.15695892090741875	-16064.0	9.849172286940528	0.11771919068056406	192.0	0.0	54562.0	3665.10009765625	1258.0	0.7760869565217391	0.23636363636363636	-640.0	-484.0	-0.5528942115768464	-9.278836613273725	169.0	2.5509381129316413	-92.0	-1.808352318277909	561.0	
0.19802938671716147	2051.0	1226.0	10.272023567998541	0.22518245725800035	2056.0	-64.0	0.03923973022685469	-16256.0	9.966891477621092	0.0	0.0	0.0	55202.0	3684.63134765625	1258.0	0.7760869565217391	0.22424242424242424	-646.0	-453.0	-0.6147704590818364	-4.824503582466595	173.0	2.9629901739735556	-140.0	-1.9137321504871212	271.0	
-0.07018068984902195	2052.0	1227.0	10.26548856045089	0.2103868136457777	2078.0	448.0	-0.27467811158798283	-16000.0	9.809932556713672	0.03923973022685469	64.0	0.0	55842.0	3704.16259765625	1256.0	0.7717391304347826	0.23434343434343435	-641.0	-467.0	-0.5868263473053893	3.303109032795361	188.0	2.5263738412215018	-148.0	-2.2231451587690185	-259.0	
-0.30194567717610465	2049.0	1225.0	10.29383189686379	0.2444971754498888	2097.0	832.0	-0.510116492949111	-16000.0	9.809932556713672	0.07847946045370938	128.0	0.0	56482.0	3723.69384765625	1253.0	0.7652173913043478	0.2202020202020202	-648.0	-456.0	-0.6087824351297406	5.423366997043727	214.0	1.6150111825015636	-96.0	-2.6397850007689168	-398.0	
-0.021908308261384984	2047.0	1226.0	10.275501758377345	0.27121063329634026	2074.0	320.0	-0.19619865113427343	-15872.0	9.731453096259962	0.07847946045370938	128.0	0.0	57122.0	3743.22509765625	1258.0	0.7760869565217391	0.22626262626262628	-645.0	-454.0	-0.6127744510978045	-6.439746371745919	118.0	1.7525956737229387	-54.0	-1.0610778214536436	376.0	
-0.08274712188425325	2046.0	1224.0	10.300874907829655	0.282904169425719	2079.0	320.0	-0.19619865113427343	-16128.0	9.888412017167381	0.07847946045370938	128.0	0.0	57762.0	3762.75634765625	1263.0	0.7869565217391304	0.23030303030303031	-643.0	-484.0	-0.5528942115768464	-6.651641350570428	112.0	1.958595922860693	-67.0	-0.9677041188136875	390.0	
0.12427507962151746	2050.0	1230.0	10.224501457763623	0.23601788585577904	2062.0	64.0	-0.03923973022685469	-16000.0	9.809932556713672	0.0	0.0	0.0	58402.0	3782.28759765625	1262.0	0.7847826086956522	0.22828282828282828	-644.0	-482.0	-0.5568862275449102	-4.034750515102929	116.0	2.7983840356607645	-135.0	-1.054709529069503	220.0	
-0.07078836426629466	2050.0	1230.0	10.228440951431423	0.23410664635357892	2078.0	384.0	-0.23543838136112813	-15936.0	9.770692826486817	0.07847946045370938	128.0	0.0	59042.0	3801.81884765625	1258.0	0.7760869565217391	0.23232323232323232	-642.0	-461.0	-0.5988023952095809	0.5144762219109116	112.0	1.8346467335191403	-92.0	-1.0393652945385008	-77.0	
-0.13259902520088757	2046.0	1233.0	10.192147564184406	0.2813183769561002	2083.0	512.0	-0.3139178418148375	-15872.0	9.731453096259962	0.07847946045370938	128.0	0.0	59682.0	3821.35009765625	1260.0	0.7804347826086957	0.2383838383838384	-639.0	-474.0	-0.5728542914171657	-4.363240406657369	85.0	1.7079348429104066	-62.0	-0.5799417404201184	241.0	
0.07453737133783973	2047.0	1235.0	10.163819794481245	0.2710582704533715	2066.0	128.0	-0.07847946045370938	-15872.0	9.731453096259962	0.03923973022685469	64.0	0.0	60322.0	3840.88134765625	1260.0	0.7804347826086957	0.23636363636363636	-640.0	-472.0	-0.5768463073852296	-4.705476344348111	116.0	1.7206287722667841	-60.0	-1.0480022707770513	263.0	
0.1476969566935603	2052.0	1240.0	10.102583427651437	0.21093653878320895	2060.0	64.0	-0.03923973022685469	-15808.0	9.692213366033108	-0.07847946045370938	-128.0	0.0	60962.0	3860.41259765625	1261.0	0.782608695652174	0.23434343434343435	-641.0	-463.0	-0.594810379241517	-1.0284046432860514	139.0	1.433719466065749	-57.0	-1.4345828737192308	23.0	
-0.022255210919371313	2054.0	1236.0	10.155268339970476	0.18566748068810135	2074.0	256.0	-0.15695892090741875	-15936.0	9.770692826486817	0.0	0.0	0.0	61602.0	3879.94384765625	1258.0	0.7760869565217391	0.24646464646464647	-635.0	-468.0	-0.5848303393213574	0.28556495012285593	160.0	1.1601402990380918	-44.0	-1.7671142046343085	-63.0	
-0.13124573475824525	2058.0	1234.0	10.182818537836575	0.13666030634403625	2083.0	576.0	-0.3531575720416922	-16000.0	9.809932556713672	-0.07847946045370938	-128.0	0.0	62242.0	3899.47509765625	1258.0	0.7760869565217391	0.21818181818181817	-649.0	-465.0	-0.5908183632734532	-4.616292910204159	118.0	1.4607657715702471	-43.0	-1.0793123560690612	257.0	
0.07648970107952194	2057.0	1229.0	10.23934562251639	0.15135112432029646	2066.0	192.0	-0.11771919068056406	-16000.0	9.809932556713672	0.0	0.0	0.0	62882.0	3919.00634765625	1255.0	0.7695652173913043	0.22626262626262628	-645.0	-458.0	-0.6047904191616768	-4.567233888719199	93.0	1.3821721232071047	-39.0	-0.6995748094017814	254.0	
0.14915796583048466	2058.0	1234.0	10.177155515689112	0.13940771312844893	2060.0	64.0	-0.03923973022685469	-16128.0	9.888412017167381	-0.07847946045370938	-128.0	0.0	63522.0	3938.53759765625	1261.0	0.782608695652174	0.2545454545454545	-631.0	-478.0	-0.564870259481038	-0.05665413977068501	95.0	1.2493625476958221	-51.0	-0.775098857841837	-40.0	
0.03980326909715874	2061.0	1234.0	10.180086785875352	0.1021989005497251	2069.0	128.0	-0.07847946045370938	-16000.0	9.809932556713672	-0.19619865113427343	-320.0	0.0	64162.0	3958.06884765625	1261.0	0.782608695652174	0.24242424242424243	-637.0	-473.0	-0.5748502994011977	5.116909570782228	71.0	1.0246067904663252	-61.0	-0.46181548354052193	-377.0	
-0.24060906660980402	2057.0	1230.0	10.233557053386322	0.1481222509521025	2092.0	832.0	-0.510116492949111	-15936.0	9.770692826486817	-0.03923973022685469	-64.0	0.0	64802.0	3977.60009765625	1257.0	0.7739130434782608	0.24646464646464647	-635.0	-468.0	-0.5848303393213574	-1.5738799292324352	79.0	1.22528759235317	-43.0	-0.5165805923426567	59.0	
0.0018906943824591044	2056.0	1240.0	10.106491787899758	0.16132478867824382	2072.0	256.0	-0.15695892090741875	-15872.0	9.731453096259962	-0.07847946045370938	-128.0	0.0	65442.0	3997.13134765625	1261.0	0.782608695652174	0.2202020202020202	-648.0	-465.0	-0.5908183632734532	-7.352876621562219	92.0	2.130167131074627	-76.0	-0.656509256598066	436.0	
0.17317456464245098	2056.0	1235.0	10.163995962641657	0.16361266912826272	2058.0	0.0	0.0	-15872.0	9.731453096259962	0.0	0.0	0.0	546.0	4016.66259765625	1262.0	0.7847826086956522	0.2404040404040404	-638.0	-475.0	-0.5708582834331338	-2.546226674553112	100.0	2.5351238985730555	-125.0	-0.8262487598704386	123.0	
0.2224403813373947	2064.0	1239.0	10.116157583858671	0.06724140133870764	2054.0	-64.0	0.03923973022685469	-15808.0	9.692213366033108	-0.11771919068056406	-192.0	0.0	1186.0	4036.19384765625	1258.0	0.7760869565217391	0.24444444444444444	-636.0	-459.0	-0.6027944111776448	0.25073866941333217	85.0	2.6761572215547162	-148.0	-0.6260815311808253	-59.0	
0.1005170937892793	2060.0	1235.0	10.166427012764553	0.11471763383662263	2064.0	128.0	-0.07847946045370938	-15936.0	9.770692826486817	-0.15695892090741875	-256.0	0.0	1826.0	4055.72509765625	1257.0	0.7739130434782608	0.24848484848484848	-634.0	-478.0	-0.564870259481038	-0.4901002061988906	80.0	2.1849476472697362	-112.0	-0.5426275150482773	-11.0	
0.14867743912351783	2059.0	1239.0	10.116442718987257	0.12674758712327638	2060.0	64.0	-0.03923973022685469	-15936.0	9.770692826486817	-0.11771919068056406	-192.0	0.0	2466.0	4075.25634765625	1262.0	0.7847826086956522	0.22626262626262628	-645.0	-467.0	-0.5868263473053893	-4.094366270953758	61.0	2.1393880588010656	-93.0	-0.21761147037031034	224.0	
0.10003656708231248	2061.0	1240.0	10.105714216062697	0.10205750783145008	2064.0	64.0	-0.03923973022685469	-15744.0	9.652973635806253	-0.07847946045370938	-128.0	0.0	3106.0	4094.78759765625	1259.0	0.7782608695652175	0.24242424242424243	-637.0	-461.0	-0.5988023952095809	-4.284391652544759	102.0	2.177556791139267	-93.0	-0.8392853610410924	236.0	
0.17295265091521234	2065.0	1246.0	10.032049167893277	0.053857247103747535	2058.0	0.0	0.0	-15744.0	9.652973635806253	-0.15695892090741875	-256.0	0.0	3746.0	4114.31884765625	1256.0	0.7717391304347826	0.24646464646464647	-635.0	-480.0	-0.5608782435129741	-3.6454147741755127	57.0	2.4655276645042767	-117.0	-0.16126448343695213	195.0	
0.11100836593163892	2055.0	1244.0	10.055276402351275	0.1739520043093351	2063.0	64.0	-0.03923973022685469	-15616.0	9.574494175352545	-0.07847946045370938	-128.0	0.0	4386.0	4133.85009765625	1260.0	0.7804347826086957	0.24242424242424243	-637.0	-476.0	-0.5688622754491018	-2.550096948715506	6.0	2.253319401645797	-110.0	0.6034477375479916	124.0	
0.17148084788049694	2054.0	1247.0	10.017236136559985	0.18622451924199512	2058.0	-64.0	0.03923973022685469	-15616.0	9.574494175352545	0.0	0.0	0.0	5026.0	4153.38134765625	1255.0	0.7695652173913043	0.25656565656565655	-630.0	-467.0	-0.5868263473053893	-4.108934656334303	66.0	2.293368880999868	-103.0	-0.29351141389293073	225.0	
0.08637977514328347	2053.0	1244.0	10.055291969061015	0.19780225961071762	2065.0	128.0	-0.07847946045370938	-15808.0	9.692213366033108	0.0	0.0	0.0	5666.0	4172.91259765625	1259.0	0.7782608695652175	0.24646464646464647	-635.0	-454.0	-0.6127744510978045	-4.488878671212576	137.0	2.2130818633039464	-93.0	-1.3695598824893953	249.0	
0.16001125208773803	2053.0	1240.0	10.102575644296568	0.1990114111325177	2059.0	0.0	0.0	-15616.0	9.574494175352545	0.0	0.0	0.0	6306.0	4192.44384765625	1260.0	0.7804347826086957	0.24444444444444444	-636.0	-465.0	-0.5908183632734532	-6.218019139871729	172.0	1.725037658166733	-51.0	-1.884587869437785	361.0	
0.14854813263365374	2055.0	1236.0	10.152059718010518	0.1752952351329477	2060.0	64.0	-0.03923973022685469	-15872.0	9.731453096259962	-0.03923973022685469	-64.0	0.0	6946.0	4211.97509765625	1256.0	0.7717391304347826	0.2545454545454545	-631.0	-466.0	-0.5888223552894213	-5.516566329168079	109.0	1.8477845988178037	-65.0	-0.9334274926018554	316.0	
0.2227851252158228	2056.0	1228.0	10.248342813606417	0.16495224324364405	2054.0	64.0	-0.03923973022685469	-16000.0	9.809932556713672	-0.11771919068056406	-192.0	0.0	7586.0	4231.50634765625	1259.0	0.7782608695652175	0.25656565656565655	-630.0	-479.0	-0.5628742514970061	-4.523560980068693	46.0	1.9652319865446568	-80.0	0.014817358850116577	252.0	
0.19829015847644788	2060.0	1233.0	10.188837758611141	0.11591947194196021	2056.0	-64.0	0.03923973022685469	-15936.0	9.770692826486817	-0.11771919068056406	-192.0	0.0	8226.0	4251.03759765625	1255.0	0.7695652173913043	0.25252525252525254	-632.0	-468.0	-0.5848303393213574	-4.389975308686772	58.0	1.693369736578345	-62.0	-0.1690280035671247	243.0	
0.3199548330448351	2056.0	1231.0	10.209802327751785	0.16553853546338784	2046.0	-192.0	0.11771919068056406	-15936.0	9.770692826486817	-0.07847946045370938	-128.0	0.0	8866.0	4270.56884765625	1257.0	0.7739130434782608	0.26262626262626265	-627.0	-461.0	-0.5988023952095809	-4.928066120379196	33.0	1.2208591079086968	-29.0	0.21658104143192883	278.0	
0.25888115301737896	2058.0	1234.0	10.174939550500973	0.1404827853484365	2051.0	-64.0	0.03923973022685469	-15936.0	9.770692826486817	-0.07847946045370938	-128.0	0.0	9506.0	4290.10009765625	1260.0	0.7804347826086957	0.2606060606060606	-628.0	-471.0	-0.5788423153692616	-3.987243419024236	101.0	1.1817541654390413	-28.0	-0.8270477179010125	216.0	
0.35714122075018895	2060.0	1230.0	10.222207659026788	0.11784168156885408	2043.0	-256.0	0.15695892090741875	-15936.0	9.770692826486817	-0.07847946045370938	-128.0	0.0	10146.0	4309.63134765625	1261.0	0.782608695652174	0.25252525252525254	-632.0	-466.0	-0.5888223552894213	-4.404110062746874	121.0	1.237927887970491	-29.0	-1.1270615609694894	243.0	
0.2352308858794228	2062.0	1232.0	10.20076621988741	0.09231177828658398	2053.0	-64.0	0.03923973022685469	-16000.0	9.809932556713672	-0.15695892090741875	-256.0	0.0	10786.0	4329.16259765625	1257.0	0.7739130434782608	0.27474747474747474	-621.0	-470.0	-0.5808383233532934	-0.7681996719369353	120.0	1.0742151822398633	-35.0	-1.1482115394023036	6.0	
0.17462693866114248	2058.0	1225.0	10.286375296042836	0.14075460066029277	2058.0	0.0	0.0	-16064.0	9.849172286940528	-0.11771919068056406	-192.0	0.0	11426.0	4348.69384765625	1258.0	0.7760869565217391	0.27474747474747474	-621.0	-480.0	-0.5608782435129741	0.642184238547973	115.0	0.8380781032419233	-26.0	-1.086269751130727	-86.0	
0.12574688265623282	2061.0	1229.0	10.23931448909691	0.10365061371753143	2062.0	0.0	0.0	-16000.0	9.809932556713672	-0.11771919068056406	-192.0	0.0	12066.0	4368.22509765625	1258.0	0.7760869565217391	0.2606060606060606	-628.0	-460.0	-0.6007984031936129	-1.30716297990336	140.0	1.1988568475951844	-40.0	-1.447004415828343	41.0	
0.39444612104761595	2063.0	1227.0	10.25875504798291	0.0824356261481366	2040.0	-256.0	0.15695892090741875	-16000.0	9.809932556713672	-0.15695892090741875	-256.0	0.0	12706.0	4387.75634765625	1255.0	0.7695652173913043	0.2767676767676768	-620.0	-465.0	-0.5908183632734532	-4.984282714512316	143.0	1.8763995811285281	-68.0	-1.455860594908109	281.0	
0.4549229205555904	2064.0	1232.0	10.196811159509869	0.07037276248740158	2035.0	-448.0	0.27467811158798283	-16064.0	9.849172286940528	-0.19619865113427343	-320.0	0.0	13346.0	4407.28759765625	1259.0	0.7782608695652175	0.25656565656565655	-630.0	-455.0	-0.6107784431137725	-1.9750434320533474	116.0	1.5755681528154464	-63.0	-1.075306599899999	85.0	
0.4304193186979826	2064.0	1233.0	10.1851133498781	0.07001074837250781	2037.0	-384.0	0.23543838136112813	-16128.0	9.888412017167381	-0.11771919068056406	-192.0	0.0	13986.0	4426.81884765625	1260.0	0.7804347826086957	0.24646464646464647	-635.0	-456.0	-0.6087824351297406	2.58011290756937	96.0	0.9615043999830843	-44.0	-0.8166756537905228	-212.0	
0.05236754235283181	2066.0	1236.0	10.156652249837464	0.04184923406648127	2068.0	192.0	-0.11771919068056406	-15808.0	9.692213366033108	-0.23543838136112813	-384.0	0.0	14626.0	4446.35009765625	1255.0	0.7695652173913043	0.26464646464646463	-626.0	-465.0	-0.5908183632734532	5.846283858113199	94.0	0.6430071492984553	-38.0	-0.8189191123453906	-425.0	
0.30741430636430234	2062.0	1240.0	10.101766939040028	0.09204361968295895	2047.0	-192.0	0.11771919068056406	-15936.0	9.770692826486817	-0.11771919068056406	-192.0	0.0	15266.0	4465.88134765625	1257.0	0.7739130434782608	0.25656565656565655	-630.0	-461.0	-0.5988023952095809	-1.812631153917133	15.0	0.9331042489082282	-25.0	0.45919095032244134	75.0	
0.33022635023951424	2061.0	1252.0	9.95475311124925	0.10284979461488762	2045.0	-256.0	0.15695892090741875	-15488.0	9.496014714898834	-0.11771919068056406	-192.0	0.0	15906.0	4485.41259765625	1259.0	0.7782608695652175	0.2606060606060606	-628.0	-470.0	-0.5808383233532934	-5.733135411555046	-5.0	1.4786616160739916	-44.0	0.8025785024045239	331.0	
0.3675312505369412	2064.0	1249.0	9.991300500205375	0.06744373919417015	2042.0	-320.0	0.19619865113427343	-15744.0	9.652973635806253	-0.11771919068056406	-192.0	0.0	16546.0	4504.94384765625	1256.0	0.7717391304347826	0.25656565656565655	-630.0	-469.0	-0.5828343313373254	-2.960887165400169	33.0	1.4887410538415569	-56.0	0.1969092518821386	150.0	
0.5388129620173748	2063.0	1243.0	10.060756486288149	0.08189930894088657	2028.0	-576.0	0.3531575720416922	-15680.0	9.613733905579398	-0.19619865113427343	-320.0	0.0	17186.0	4524.47509765625	1259.0	0.7782608695652175	0.2606060606060606	-628.0	-479.0	-0.5628742514970061	-1.8087949180801244	0.0	1.0886293128381865	-36.0	0.6872894700933488	75.0	
0.02640724891741611	2062.0	1245.0	10.046478729486267	0.08868066701295249	2070.0	192.0	-0.11771919068056406	-15680.0	9.613733905579398	-0.11771919068056406	-192.0	0.0	17826.0	4544.00634765625	1258.0	0.7760869565217391	0.26464646464646463	-626.0	-465.0	-0.5908183632734532	4.60525809263947	12.0	1.1442642272083956	-69.0	0.4406394342827308	-343.0	
0.18526478752983183	2065.0	1245.0	10.043993195879283	0.0540998087497538	2057.0	64.0	-0.03923973022685469	-15680.0	9.613733905579398	-0.11771919068056406	-192.0	0.0	18466.0	4563.53759765625	1256.0	0.7717391304347826	0.26666666666666666	-625.0	-469.0	-0.5828343313373254	-0.055291892420537565	-40.0	0.8672883827511932	-31.0	1.27811945884816	-39.0	
0.37947921425710873	2063.0	1250.0	9.978625600511524	0.07948466260551765	2041.0	-320.0	0.19619865113427343	-15616.0	9.574494175352545	-0.07847946045370938	-128.0	0.0	19106.0	4583.06884765625	1260.0	0.7804347826086957	0.26464646464646463	-626.0	-463.0	-0.594810379241517	-8.551906661939615	-59.0	1.1772287678822377	-13.0	1.6520589905737688	515.0	
0.3426569994462068	2060.0	1249.0	9.990839196916378	0.11538315473471017	2044.0	-320.0	0.19619865113427343	-15872.0	9.731453096259962	-0.07847946045370938	-128.0	0.0	19746.0	4602.60009765625	1256.0	0.7717391304347826	0.26262626262626265	-627.0	-460.0	-0.6007984031936129	-5.473132193862019	1.0	1.4792080859847514	-45.0	0.7087237173758826	314.0	
0.3337236612372625	2060.0	1222.0	10.320222066457218	0.11858765004802913	2045.0	-320.0	0.19619865113427343	-16192.0	9.927651747394236	-0.11771919068056406	-192.0	0.0	20386.0	4622.13134765625	1258.0	0.7760869565217391	0.28888888888888886	-614.0	-454.0	-0.6127744510978045	-3.5085480996823746	89.0	1.2910616284659702	-38.0	-0.649325165391009	185.0	
0.11368688268266686	2066.0	1233.0	10.19199189708701	0.04281582394227509	2063.0	128.0	-0.07847946045370938	-15936.0	9.770692826486817	-0.19619865113427343	-320.0	0.0	21026.0	4641.66259765625	1255.0	0.7695652173913043	0.26262626262626265	-627.0	-462.0	-0.596806387225549	-0.058484314341224	187.0	0.9306469158918328	-26.0	-2.174320099822367	-41.0	
0.4196845450328023	2068.0	1225.0	10.283835278951763	0.022697848842255314	2038.0	-448.0	0.27467811158798283	-16064.0	9.849172286940528	-0.23543838136112813	-384.0	0.0	21666.0	4661.19384765625	1255.0	0.7695652173913043	0.27070707070707073	-623.0	-463.0	-0.594810379241517	-6.571163242589219	86.0	1.9371771560509043	-67.0	-0.573071637536085	385.0	
0.4073724084181828	2068.0	1226.0	10.271891250965757	0.02245528719624905	2039.0	-320.0	0.19619865113427343	-16064.0	9.849172286940528	-0.19619865113427343	-320.0	0.0	22306.0	4680.72509765625	1257.0	0.7739130434782608	0.28484848484848485	-616.0	-481.0	-0.5588822355289422	-3.1036924616651422	115.0	2.2682064139305793	-104.0	-1.0488109841285957	159.0	
0.7002024406544888	2065.0	1221.0	10.326217937167176	0.06207143269387929	2015.0	-768.0	0.47087676272225626	-16128.0	9.888412017167381	-0.15695892090741875	-256.0	0.0	22946.0	4700.25634765625	1260.0	0.7804347826086957	0.2808080808080808	-618.0	-481.0	-0.5588822355289422	1.3803461814885325	125.0	1.1376132684102709	-49.0	-1.2457426253129844	-134.0	
0.3104505196711076	2071.0	1224.0	10.298956795478249	-0.01438785455934978	2047.0	-256.0	0.15695892090741875	-16128.0	9.888412017167381	-0.19619865113427343	-320.0	0.0	23586.0	4719.78759765625	1254.0	0.7673913043478261	0.2808080808080808	-618.0	-462.0	-0.596806387225549	3.6195578697101713	128.0	1.028566741211457	-52.0	-1.313762118621056	-280.0	
0.28582840522142683	2072.0	1227.0	10.263116928165358	-0.027040667148059805	2049.0	-64.0	0.03923973022685469	-16192.0	9.927651747394236	-0.3531575720416922	-576.0	0.0	24226.0	4739.31884765625	1255.0	0.7695652173913043	0.2767676767676768	-620.0	-478.0	-0.564870259481038	-2.176197370958646	84.0	0.9254231251854749	-20.0	-0.5866030453018204	98.0	
0.30912313458316376	2071.0	1235.0	10.16486408573556	-0.015742055507656116	2047.0	-256.0	0.15695892090741875	-15936.0	9.770692826486817	-0.19619865113427343	-320.0	0.0	24866.0	4758.85009765625	1260.0	0.7804347826086957	0.27474747474747474	-621.0	-477.0	-0.56686626746507	-4.434399970086043	4.0	1.033924824563829	-20.0	0.6527090187122673	246.0	
0.40482751571613534	2063.0	1242.0	10.075655134525006	0.08070844096024272	2039.0	-192.0	0.11771919068056406	-15680.0	9.613733905579398	-0.19619865113427343	-320.0	0.0	25506.0	4778.38134765625	1252.0	0.7630434782608696	0.2828282828282828	-617.0	-469.0	-0.5828343313373254	-4.474180651931118	-50.0	0.8389243077642451	-9.0	1.4743996011961173	249.0	
0.3917805569739372	2058.0	1244.0	10.050328685201915	0.14056567073501153	2040.0	-256.0	0.15695892090741875	-15744.0	9.652973635806253	-0.11771919068056406	-192.0	0.0	26146.0	4797.91259765625	1261.0	0.782608695652174	0.2787878787878788	-619.0	-472.0	-0.5768463073852296	-2.6591731098806126	-50.0	1.2373374140219378	-44.0	1.4562495257756125	131.0	
0.4409235435176915	2065.0	1248.0	10.002251871419562	0.05623898306503519	2036.0	-448.0	0.27467811158798283	-15488.0	9.496014714898834	-0.11771919068056406	-192.0	0.0	26786.0	4817.44384765625	1259.0	0.7782608695652175	0.27474747474747474	-621.0	-469.0	-0.5828343313373254	-2.8687220821545774	-69.0	1.480243147101004	-60.0	1.7473183995287702	145.0	
0.5266301318926194	2067.0	1247.0	10.01319545927888	0.03310909928520897	2029.0	-512.0	0.3139178418148375	-15552.0	9.53525444512569	-0.15695892090741875	-256.0	0.0	27426.0	4836.97509765625	1255.0	0.7695652173913043	0.2808080808080808	-618.0	-454.0	-0.6127744510978045	-3.4189765579201685	-87.0	1.432627769531454	-55.0	2.0265852028415594	181.0	
0.5766091829195596	2070.0	1240.0	10.098257615241744	-0.0016850669581459782	2025.0	-640.0	0.39239730226854685	-15744.0	9.652973635806253	-0.23543838136112813	-384.0	0.0	28066.0	4856.50634765625	1258.0	0.7760869565217391	0.2767676767676768	-620.0	-455.0	-0.6107784431137725	-1.6216666038737741	-116.0	1.1549598774453607	-46.0	2.4496767420843653	64.0	
0.4301930874116276	2071.0	1242.0	10.077070177811473	-0.015409295058612354	2037.0	-448.0	0.27467811158798283	-15936.0	9.770692826486817	-0.3139178418148375	-512.0	0.0	28706.0	4876.03759765625	1261.0	0.782608695652174	0.26666666666666666	-625.0	-465.0	-0.5908183632734532	-2.970094457108689	-147.0	0.9001160579823867	-24.0	2.934643910350555	152.0	
0.4533520339448258	2063.0	1244.0	10.050289768427566	0.08094003248155525	2035.0	-384.0	0.23543838136112813	-15616.0	9.574494175352545	-0.15695892090741875	-256.0	0.0	29346.0	4895.56884765625	1258.0	0.7760869565217391	0.301010101010101	-608.0	-472.0	-0.5768463073852296	-5.8396401978235035	-155.0	0.8251044539177796	-6.0	3.085012371559984	339.0	
0.4642096377611956	2060.0	1252.0	9.951806274353268	0.11620835189222897	2034.0	-384.0	0.23543838136112813	-15616.0	9.574494175352545	-0.11771919068056406	-192.0	0.0	29986.0	4915.10009765625	1258.0	0.7760869565217391	0.301010101010101	-608.0	-482.0	-0.5568862275449102	-4.805175117416568	-94.0	0.8351934617255306	-9.0	2.1469110667635194	271.0	
0.623299883998641	2059.0	1246.0	10.021508478790281	0.13054446917005788	2021.0	-704.0	0.4316370324954016	-15616.0	9.574494175352545	-0.03923973022685469	-64.0	0.0	30626.0	4934.63134765625	1256.0	0.7717391304347826	0.2868686868686869	-615.0	-467.0	-0.5868263473053893	0.0017782267065205243	-23.0	0.6937484628056327	-19.0	1.0189936245770415	-43.0	
0.2816975144517073	2059.0	1248.0	10.004022100028443	0.12695358168697016	2049.0	-192.0	0.11771919068056406	-15680.0	9.613733905579398	-0.07847946045370938	-128.0	0.0	31266.0	4954.16259765625	1257.0	0.7739130434782608	0.298989898989899	-609.0	-470.0	-0.5808383233532934	6.1372880594632395	107.0	0.7805870396129	-48.0	-1.019547785537598	-444.0	
0.28302274076009293	2058.0	1236.0	10.150066621112009	0.14047547193197402	2049.0	128.0	-0.07847946045370938	-16064.0	9.849172286940528	-0.11771919068056406	-192.0	0.0	31906.0	4973.69384765625	1259.0	0.7782608695652175	0.296969696969697	-610.0	-474.0	-0.5728542914171657	-1.9345439740434633	124.0	1.1428337019943975	-34.0	-1.1973845982823792	82.0	
0.6491287121646345	2058.0	1233.0	10.179250809505618	0.14442837352995552	2019.0	-768.0	0.47087676272225626	-16064.0	9.849172286940528	-0.03923973022685469	-64.0	0.0	32546.0	4993.22509765625	1258.0	0.7760869565217391	0.2909090909090909	-613.0	-469.0	-0.5828343313373254	-6.786326677406713	149.0	1.3308093623943795	-23.0	-1.529094908130876	398.0	
0.8192209801652212	2065.0	1245.0	10.031189841458932	0.06031133713190419	2005.0	-1088.0	0.6670754138565297	-15872.0	9.731453096259962	-0.07847946045370938	-128.0	0.0	33186.0	5012.75634765625	1257.0	0.7739130434782608	0.296969696969697	-610.0	-479.0	-0.5628742514970061	-1.825435565387231	212.0	1.1138133596842978	-29.0	-2.5368787241940365	74.0	
0.5283173723158988	2066.0	1232.0	10.19581071938318	0.047000317061569104	2029.0	-640.0	0.39239730226854685	-16000.0	9.809932556713672	-0.19619865113427343	-320.0	0.0	33826.0	5032.28759765625	1261.0	0.782608695652174	0.2868686868686869	-615.0	-477.0	-0.56686626746507	7.222597959121337	202.0	0.2530990199664983	-14.0	-2.4752678046862706	-516.0	
0.17464636767716635	2067.0	1234.0	10.178808993974947	0.031245396990015106	2058.0	64.0	-0.03923973022685469	-15936.0	9.770692826486817	-0.11771919068056406	-192.0	0.0	34466.0	5051.81884765625	1260.0	0.7804347826086957	0.2828282828282828	-617.0	-476.0	-0.5688622754491018	2.588175824288205	175.0	-0.10044121987996478	30.0	-2.01827719550524	-214.0	
0.515636745247711	2063.0	1233.0	10.18315138639907	0.08289149577429912	2030.0	-576.0	0.3531575720416922	-16128.0	9.888412017167381	-0.15695892090741875	-256.0	0.0	35106.0	5071.35009765625	1256.0	0.7717391304347826	0.301010101010101	-608.0	-469.0	-0.5828343313373254	-5.80540079702535	100.0	0.4531168402857291	29.0	-0.7936570186457161	334.0	
0.7472918551009535	2071.0	1241.0	10.082858746941543	-0.0121804216904184	2011.0	-1024.0	0.627835683629675	-15744.0	9.652973635806253	-0.23543838136112813	-384.0	0.0	35746.0	5090.88134765625	1261.0	0.782608695652174	0.30505050505050507	-606.0	-478.0	-0.564870259481038	-1.2294724672146642	129.0	1.1267875577104218	-36.0	-1.2804809407270932	36.0	
0.5022407250679684	2064.0	1244.0	10.049543330009984	0.06937326223752652	2031.0	-704.0	0.4316370324954016	-15616.0	9.574494175352545	-0.07847946045370938	-128.0	0.0	36386.0	5110.41259765625	1258.0	0.7760869565217391	0.28888888888888886	-614.0	-466.0	-0.5888223552894213	11.336250162868286	113.0	0.48235948232248116	-52.0	-1.1627921594233597	-783.0	
0.015200583663501785	2071.0	1246.0	10.03668061649457	-0.019963115709262638	2071.0	320.0	-0.19619865113427343	-15616.0	9.574494175352545	-0.23543838136112813	-384.0	0.0	37026.0	5129.94384765625	1257.0	0.7739130434782608	0.2868686868686869	-615.0	-467.0	-0.5868263473053893	13.070259721853171	121.0	0.5764343896429872	-66.0	-1.3018052588154898	-896.0	
0.3942220485408191	2071.0	1237.0	10.13876006457541	-0.01515210657968108	2040.0	-192.0	0.11771919068056406	-16064.0	9.849172286940528	-0.27467811158798283	-448.0	0.0	37666.0	5149.47509765625	1262.0	0.7847826086956522	0.28888888888888886	-614.0	-480.0	-0.5608782435129741	-0.5344298622457989	12.0	1.322076463890899	-57.0	0.49203631383158347	-8.0	
0.6012399324874734	2073.0	1241.0	10.086290237191129	-0.03770301155622599	2023.0	-576.0	0.3531575720416922	-15808.0	9.692213366033108	-0.27467811158798283	-448.0	0.0	38306.0	5169.00634765625	1260.0	0.7804347826086957	0.2787878787878788	-619.0	-465.0	-0.5908183632734532	-6.497639763071369	20.0	2.1467803943398502	-84.0	0.42999540903755784	381.0	
0.8199558022927997	2070.0	1244.0	10.044572262796017	2.1154571112913523E-4	2005.0	-960.0	0.5885959534028203	-16064.0	9.849172286940528	-0.27467811158798283	-448.0	0.0	38946.0	5188.53759765625	1256.0	0.7717391304347826	0.28888888888888886	-614.0	-458.0	-0.6047904191616768	-1.4893051170012968	28.0	1.233352080696679	-46.0	0.2582390587745757	54.0	
0.2106152477684166	2066.0	1238.0	10.129070918551887	0.04315589780778136	2055.0	-256.0	0.15695892090741875	-15808.0	9.692213366033108	-0.15695892090741875	-256.0	0.0	39586.0	5208.06884765625	1262.0	0.7847826086956522	0.29494949494949496	-611.0	-480.0	-0.5608782435129741	9.247754887142804	121.0	0.4826606361838064	-42.0	-1.263580210468386	-647.0	
0.15111461313128327	2070.0	1230.0	10.228777721042503	-0.004634811598021163	2060.0	128.0	-0.07847946045370938	-16128.0	9.888412017167381	-0.19619865113427343	-320.0	0.0	40226.0	5227.60009765625	1256.0	0.7717391304347826	0.27070707070707073	-623.0	-463.0	-0.594810379241517	4.850767039402708	166.0	0.4112698150426302	-15.0	-1.9040209783788182	-361.0	
0.3344822299399814	2076.0	1232.0	10.202134563044657	-0.07535672363641863	2045.0	-128.0	0.07847946045370938	-16064.0	9.849172286940528	-0.3139178418148375	-512.0	0.0	40866.0	5247.13134765625	1258.0	0.7760869565217391	0.28888888888888886	-614.0	-479.0	-0.5628742514970061	-4.688432908739275	193.0	1.5264065956422725	-44.0	-2.219275366730098	261.0	
0.5171128658415427	2076.0	1234.0	10.174060795050606	-0.07381115495734353	2030.0	-448.0	0.27467811158798283	-16064.0	9.849172286940528	-0.23543838136112813	-384.0	0.0	41506.0	5266.66259765625	1260.0	0.7804347826086957	0.2828282828282828	-617.0	-474.0	-0.5728542914171657	-5.400933009051808	180.0	2.2127655185462918	-87.0	-2.0144317345482654	308.0	
0.7127839841466276	2078.0	1231.0	10.207168910402276	-0.09561974816294466	2014.0	-896.0	0.5493562231759657	-16000.0	9.809932556713672	-0.3139178418148375	-512.0	0.0	42146.0	5286.19384765625	1259.0	0.7782608695652175	0.2868686868686869	-615.0	-468.0	-0.5848303393213574	0.16615589976066775	196.0	2.044925023270889	-101.0	-2.313448631240953	-55.0	
0.2729107529690928	2071.0	1232.0	10.202173479819006	-0.015731085382962362	2050.0	-128.0	0.07847946045370938	-15936.0	9.770692826486817	-0.27467811158798283	-448.0	0.0	42786.0	5305.72509765625	1256.0	0.7717391304347826	0.30505050505050507	-606.0	-469.0	-0.5828343313373254	9.1712763545763	212.0	1.8926700961118073	-132.0	-2.6468458433936717	-642.0	
0.11442818114892007	2074.0	1235.0	10.169518884401464	-0.053787035368592515	2063.0	192.0	-0.11771919068056406	-16000.0	9.809932556713672	-0.3139178418148375	-512.0	0.0	43426.0	5325.25634765625	1260.0	0.7804347826086957	0.2808080808080808	-618.0	-476.0	-0.5688622754491018	4.90042316057309	217.0	1.5482856423400726	-89.0	-2.6801829388300655	-364.0	
0.5411251470943926	2072.0	1233.0	10.184804864684905	-0.025270820364134708	2028.0	-576.0	0.3531575720416922	-15936.0	9.770692826486817	-0.27467811158798283	-448.0	0.0	44066.0	5344.78759765625	1256.0	0.7717391304347826	0.2828282828282828	-617.0	-450.0	-0.6207584830339322	-6.757916511444676	183.0	1.6193814929560766	-41.0	-2.046489275950192	396.0	
0.37068813521537775	2073.0	1232.0	10.200680602983843	-0.0388646258710198	2042.0	-384.0	0.23543838136112813	-15936.0	9.770692826486817	-0.27467811158798283	-448.0	0.0	44706.0	5364.31884765625	1259.0	0.7782608695652175	0.298989898989899	-609.0	-477.0	-0.56686626746507	-4.320586143330375	208.0	1.7048324847806213	-57.0	-2.4510907165134643	237.0	
0.5302761783962556	2079.0	1229.0	10.235481113395693	-0.10920989696159852	2029.0	-640.0	0.39239730226854685	-16000.0	9.809932556713672	-0.3531575720416922	-576.0	0.0	45346.0	5383.85009765625	1259.0	0.7782608695652175	0.29494949494949496	-611.0	-478.0	-0.564870259481038	1.697855069250601	221.0	2.11844542777906	-112.0	-2.7089937598179814	-155.0	
-0.017969108305089257	2083.0	1230.0	10.23532443299361	-0.16288668771697018	2074.0	384.0	-0.23543838136112813	-16000.0	9.809932556713672	-0.4316370324954016	-704.0	0.0	45986.0	5403.38134765625	1258.0	0.7760869565217391	0.28888888888888886	-614.0	-461.0	-0.5988023952095809	6.542689911043305	196.0	2.77053354843944	-179.0	-2.3772139713537794	-470.0	
0.761554162677697	2080.0	1233.0	10.182280414303571	-0.11947731688078968	2010.0	-896.0	0.5493562231759657	-16064.0	9.849172286940528	-0.3531575720416922	-576.0	0.0	46626.0	5422.91259765625	1258.0	0.7760869565217391	0.29292929292929293	-612.0	-477.0	-0.56686626746507	-5.591300802140729	86.0	3.23329657127515	-158.0	-0.5828702619405699	322.0	
0.5907421840064391	2075.0	1229.0	10.233296281627034	-0.060434314138845924	2024.0	-768.0	0.47087676272225626	-16000.0	9.809932556713672	-0.3139178418148375	-512.0	0.0	47266.0	5442.44384765625	1262.0	0.7847826086956522	0.2909090909090909	-613.0	-475.0	-0.5708582834331338	-6.905335877199281	10.0	2.663825017381195	-117.0	0.5861636249316886	408.0	
0.7483930089025422	2078.0	1239.0	10.108908284617605	-0.0962462641732322	2011.0	-896.0	0.5493562231759657	-15936.0	9.770692826486817	-0.3531575720416922	-576.0	0.0	47906.0	5461.97509765625	1257.0	0.7739130434782608	0.2909090909090909	-613.0	-458.0	-0.6047904191616768	-1.042535225454468	79.0	2.177811248346535	-109.0	-0.5218940393804364	25.0	
0.13894041812476068	2078.0	1238.0	10.133409448669726	-0.10209577844048882	2061.0	64.0	-0.03923973022685469	-16000.0	9.809932556713672	-0.27467811158798283	-448.0	0.0	48546.0	5481.50634765625	1257.0	0.7739130434782608	0.298989898989899	-609.0	-468.0	-0.5848303393213574	5.503680832493091	84.0	1.5303338870828052	-96.0	-0.6634018273363378	-402.0	
0.272441020159917	2077.0	1242.0	10.081701626412768	-0.0892296578716225	2050.0	-128.0	0.07847946045370938	-15744.0	9.652973635806253	-0.3139178418148375	-512.0	0.0	49186.0	5501.03759765625	1259.0	0.7782608695652175	0.2868686868686869	-615.0	-477.0	-0.56686626746507	1.8720052087737853	57.0	1.691710136239731	-91.0	-0.21643868326644508	-165.0	
0.5156648093819676	2076.0	1246.0	10.02777783896767	-0.07528846508276862	2030.0	-576.0	0.3531575720416922	-15616.0	9.574494175352545	-0.3139178418148375	-512.0	0.0	49826.0	5520.56884765625	1256.0	0.7717391304347826	0.29494949494949496	-611.0	-464.0	-0.5928143712574852	-3.129736920703741	11.0	2.6865092662425094	-136.0	0.5331985098914481	162.0	
0.5273800654771055	2079.0	1253.0	9.942915201229825	-0.1121645172124487	2029.0	-448.0	0.27467811158798283	-15552.0	9.53525444512569	-0.27467811158798283	-448.0	0.0	50466.0	5540.10009765625	1260.0	0.7804347826086957	0.30303030303030304	-607.0	-477.0	-0.56686626746507	-1.1685316875633662	54.0	3.0109516865290815	-165.0	-0.14040593787721806	34.0	
0.41826023514836747	2079.0	1248.0	10.006082398119185	-0.11262404354684248	2038.0	-512.0	0.3139178418148375	-15680.0	9.613733905579398	-0.3139178418148375	-512.0	0.0	51106.0	5559.63134765625	1254.0	0.7673913043478261	0.2808080808080808	-618.0	-456.0	-0.6087824351297406	0.3859722045080311	97.0	2.5690978215033806	-141.0	-0.8099433722351944	-68.0	
0.3579170596893735	2084.0	1248.0	10.008505664887211	-0.1734442064891738	2043.0	-320.0	0.19619865113427343	-15808.0	9.692213366033108	-0.47087676272225626	-768.0	0.0	51746.0	5579.16259765625	1256.0	0.7717391304347826	0.30707070707070705	-605.0	-466.0	-0.5888223552894213	-5.96174515213742	58.0	2.5973676163331847	-115.0	-0.15331030513261823	346.0	
0.5893006038855386	2078.0	1244.0	10.051157891521472	-0.09841469215436358	2024.0	-576.0	0.3531575720416922	-15808.0	9.692213366033108	-0.3531575720416922	-576.0	0.0	52386.0	5598.69384765625	1257.0	0.7739130434782608	0.30505050505050507	-606.0	-476.0	-0.5688622754491018	-6.243129535303804	77.0	2.373638341044641	-98.0	-0.4394698453313727	364.0	
0.6508612869586362	2078.0	1239.0	10.110878031451506	-0.09720188392433227	2019.0	-960.0	0.5885959534028203	-15808.0	9.692213366033108	-0.3139178418148375	-512.0	0.0	53026.0	5618.22509765625	1258.0	0.7760869565217391	0.28484848484848485	-616.0	-461.0	-0.5988023952095809	2.1693285248233707	139.0	1.9757749287197561	-108.0	-1.466560205400325	-185.0	
0.3580204608245391	2076.0	1239.0	10.11631040195447	-0.07597958293847493	2043.0	-320.0	0.19619865113427343	-15872.0	9.731453096259962	-0.3139178418148375	-512.0	0.0	53666.0	5637.75634765625	1254.0	0.7673913043478261	0.2808080808080808	-618.0	-457.0	-0.6067864271457086	8.439923277411431	181.0	1.9546979621893805	-134.0	-2.168049422888183	-594.0	
0.11516300327649866	2079.0	1234.0	10.182901305738547	-0.11388682678936757	2063.0	128.0	-0.07847946045370938	-15936.0	9.770692826486817	-0.4316370324954016	-704.0	0.0	54306.0	5657.28759765625	1256.0	0.7717391304347826	0.30707070707070705	-605.0	-475.0	-0.5708582834331338	0.7772435489937193	97.0	1.7922401485208799	-91.0	-0.8138560856800513	-94.0	
0.40848003855844617	2078.0	1227.0	10.26208535461919	-0.09811362317665731	2039.0	-320.0	0.19619865113427343	-16000.0	9.809932556713672	-0.3531575720416922	-576.0	0.0	54946.0	5676.81884765625	1257.0	0.7739130434782608	0.2909090909090909	-613.0	-471.0	-0.5788423153692616	-8.51199501679525	105.0	3.0583307265250466	-132.0	-0.842636703824443	512.0	
0.5911085156804492	2077.0	1228.0	10.245963397966014	-0.08440036520088469	2024.0	-768.0	0.47087676272225626	-16000.0	9.809932556713672	-0.3139178418148375	-512.0	0.0	55586.0	5696.35009765625	1255.0	0.7695652173913043	0.29494949494949496	-611.0	-451.0	-0.6187624750499002	-4.211379619171527	197.0	3.2497600852951374	-161.0	-2.2848824015269162	231.0	
0.5658830443726122	2078.0	1236.0	10.149172298951903	-0.09766872367518856	2026.0	-640.0	0.39239730226854685	-15936.0	9.770692826486817	-0.27467811158798283	-448.0	0.0	56226.0	5715.88134765625	1261.0	0.782608695652174	0.301010101010101	-608.0	-471.0	-0.5788423153692616	2.30286012485841	252.0	3.2346266763556812	-188.0	-3.1865267001079	-194.0	
0.2615790987844308	2078.0	1232.0	10.20408874316882	-0.1001625986889012	2051.0	-128.0	0.07847946045370938	-16000.0	9.809932556713672	-0.3531575720416922	-576.0	0.0	56866.0	5735.41259765625	1262.0	0.7847826086956522	0.28484848484848485	-616.0	-471.0	-0.5788423153692616	3.4154387968518307	257.0	2.5305478684587066	-146.0	-3.27369811420426	-267.0	
0.45760143730661834	2075.0	1221.0	10.333526654245604	-0.06076341787965847	2035.0	-512.0	0.3139178418148375	-16192.0	9.927651747394236	-0.3531575720416922	-576.0	0.0	57506.0	5754.94384765625	1254.0	0.7673913043478261	0.30303030303030304	-607.0	-464.0	-0.5928143712574852	-4.11480282039794	198.0	2.1791789390025658	-90.0	-2.301057294989937	224.0	
0.6883945773219765	2075.0	1228.0	10.243516781133378	-0.05935558521062713	2016.0	-832.0	0.510116492949111	-16192.0	9.927651747394236	-0.27467811158798283	-448.0	0.0	58146.0	5774.47509765625	1259.0	0.7782608695652175	0.301010101010101	-608.0	-464.0	-0.5928143712574852	-2.8914090324913952	244.0	2.4368581009494394	-111.0	-3.0129110047321204	144.0	
0.6512189835144135	2076.0	1234.0	10.171352393153994	-0.07249717779958095	2019.0	-896.0	0.5493562231759657	-15936.0	9.770692826486817	-0.23543838136112813	-384.0	0.0	58786.0	5794.00634765625	1259.0	0.7782608695652175	0.296969696969697	-610.0	-455.0	-0.6107784431137725	5.680080192462579	298.0	2.4728343118442964	-151.0	-3.91991867264706	-415.0	
0.4551923274331096	2077.0	1243.0	10.06581810475896	-0.08756098001542865	2035.0	-512.0	0.3139178418148375	-15872.0	9.731453096259962	-0.3531575720416922	-576.0	0.0	59426.0	5813.53759765625	1257.0	0.7739130434782608	0.29494949494949496	-611.0	-459.0	-0.6027944111776448	5.912119808994091	231.0	1.63631370335739	-99.0	-2.903227661968268	-430.0	
0.45568580681742565	2082.0	1244.0	10.054820033415554	-0.1479069897904412	2035.0	-320.0	0.19619865113427343	-15872.0	9.731453096259962	-0.47087676272225626	-768.0	0.0	60066.0	5833.06884765625	1253.0	0.7652173913043478	0.296969696969697	-610.0	-449.0	-0.6227544910179642	-5.324901041285825	128.0	1.3512510064542598	-32.0	-1.2243175295110962	303.0	
0.747190612745346	2080.0	1251.0	9.963102198533406	-0.12181273453781483	2011.0	-1024.0	0.627835683629675	-15808.0	9.692213366033108	-0.3531575720416922	-576.0	0.0	60706.0	5852.60009765625	1257.0	0.7739130434782608	0.298989898989899	-609.0	-455.0	-0.6107784431137725	-6.146335325605638	57.0	1.0054088263380865	-8.0	-0.13625527792265088	357.0	
0.699646576946613	2087.0	1248.0	10.002326855966665	-0.20623327771905986	2015.0	-896.0	0.5493562231759657	-15808.0	9.692213366033108	-0.39239730226854685	-640.0	0.0	61346.0	5872.13134765625	1254.0	0.7673913043478261	0.3090909090909091	-604.0	-456.0	-0.6087824351297406	-0.8986892460665253	57.0	0.880052719172179	-24.0	-0.188731738718042	15.0	
0.5044581441280533	2085.0	1247.0	10.017979725975975	-0.18393224780498374	2031.0	-704.0	0.4316370324954016	-15616.0	9.574494175352545	-0.39239730226854685	-640.0	0.0	61986.0	5891.66259765625	1261.0	0.782608695652174	0.30505050505050507	-606.0	-468.0	-0.5848303393213574	4.931841646763791	39.0	0.44830469494085756	-23.0	0.026727210908787935	-365.0	
0.12724890860476312	2086.0	1242.0	10.086802161657928	-0.19906430857448143	2062.0	192.0	-0.11771919068056406	-15744.0	9.652973635806253	-0.39239730226854685	-640.0	0.0	62626.0	5911.19384765625	1255.0	0.7695652173913043	0.28484848484848485	-616.0	-452.0	-0.6167664670658684	0.9115686298674897	30.0	0.39280532928696704	-1.0	0.2038120703553175	-103.0	
0.4810470609538015	2088.0	1242.0	10.080138699383776	-0.21968934721590122	2033.0	-512.0	0.3139178418148375	-15936.0	9.770692826486817	-0.39239730226854685	-640.0	0.0	63266.0	5930.72509765625	1258.0	0.7760869565217391	0.3090909090909091	-604.0	-473.0	-0.5748502994011977	-8.270553722097489	-24.0	0.684186755246469	20.0	1.1169260695403664	496.0	
0.5062919612776624	2096.0	1243.0	10.069363496329998	-0.3159301924118751	2031.0	-448.0	0.27467811158798283	-15872.0	9.731453096259962	-0.5885959534028203	-960.0	0.0	63906.0	5950.25634765625	1254.0	0.7673913043478261	0.301010101010101	-608.0	-464.0	-0.5928143712574852	-6.4682346952631145	2.0	1.743978133826916	-58.0	0.7034656169146084	379.0	
0.5785917355750567	2094.0	1248.0	10.006458084504615	-0.2917398632449863	2025.0	-576.0	0.3531575720416922	-15744.0	9.652973635806253	-0.5493562231759657	-896.0	0.0	64546.0	5969.78759765625	1254.0	0.7673913043478261	0.30707070707070705	-605.0	-456.0	-0.6087824351297406	-5.70309303914872	25.0	1.869634211228002	-69.0	0.34600431442190543	329.0	
0.3842458435783576	2091.0	1239.0	10.119394490236512	-0.25640937979438133	2041.0	-384.0	0.23543838136112813	-15808.0	9.692213366033108	-0.4316370324954016	-704.0	0.0	65186.0	5989.31884765625	1255.0	0.7695652173913043	0.296969696969697	-610.0	-440.0	-0.6407185628742516	-4.526469919191991	30.0	1.430962977219048	-45.0	0.2581924558459123	252.0	
0.6651300708740543	2090.0	1234.0	10.174444264790905	-0.24100184700479607	2018.0	-832.0	0.510116492949111	-16000.0	9.809932556713672	-0.510116492949111	-832.0	0.0	290.0	6008.85009765625	1259.0	0.7782608695652175	0.30707070707070705	-605.0	-467.0	-0.5868263473053893	-6.980963404698936	36.0	1.6354309214206517	-47.0	0.19148263784927075	412.0	
0.3842458435783576	2091.0	1239.0	10.119394490236512	-0.25640937979438133	2041.0	-832.0	0.510116492949111	-15936.0	9.770692826486817	-0.47087676272225626	-768.0	0.0	930.0	6028.38134765625	1258.0	0.7760869565217391	0.30505050505050507	-606.0	-455.0	-0.6107784431137725	-2.0981848225245074	117.0	1.5547621511149987	-61.0	-1.0892843114705726	93.0	
0.4570304621418352	2090.0	1241.0	10.09329825243123	-0.243894303215715	2035.0	-512.0	0.3139178418148375	-15744.0	9.652973635806253	-0.510116492949111	-832.0	0.0	1570.0	6047.91259765625	1253.0	0.7652173913043478	0.3232323232323232	-597.0	-461.0	-0.5988023952095809	3.930459774139919	158.0	1.879751632876667	-109.0	-1.773144901923909	-300.0	
0.2014923775256068	2090.0	1237.0	10.147229823231196	-0.24591036835387767	2056.0	64.0	-0.03923973022685469	-15808.0	9.692213366033108	-0.47087676272225626	-768.0	0.0	2210.0	6067.44384765625	1261.0	0.782608695652174	0.296969696969697	-610.0	-466.0	-0.5888223552894213	1.6947612242684147	134.0	2.02075549149145	-109.0	-1.3857689050183497	-154.0	
0.8731133257937587	2092.0	1230.0	10.219496408128581	-0.26256787856439096	2001.0	-1088.0	0.6670754138565297	-16064.0	9.849172286940528	-0.5885959534028203	-960.0	0.0	2850.0	6086.97509765625	1258.0	0.7760869565217391	0.3090909090909091	-604.0	-449.0	-0.6227544910179642	-8.88247850996316	67.0	2.2663958082764255	-79.0	-0.26098510083192733	536.0	
0.7019522856849562	2093.0	1235.0	10.162230668386051	-0.2769003391339886	2015.0	-896.0	0.5493562231759657	-16064.0	9.849172286940528	-0.5493562231759657	-896.0	0.0	3490.0	6106.50634765625	1255.0	0.7695652173913043	0.3191919191919192	-599.0	-471.0	-0.5788423153692616	-3.501508289196479	127.0	2.573059843221164	-122.0	-1.2273423315567045	185.0	
0.8227787369905992	2092.0	1243.0	10.062008079122352	-0.26464610774248487	2005.0	-1088.0	0.6670754138565297	-15808.0	9.692213366033108	-0.47087676272225626	-768.0	0.0	4130.0	6126.03759765625	1259.0	0.7782608695652175	0.3232323232323232	-597.0	-467.0	-0.5868263473053893	1.3156457152216507	125.0	2.3415167207125207	-129.0	-1.2450956206503156	-129.0	
0.22455008170319768	2091.0	1249.0	10.000692865439154	-0.25919335366110646	2054.0	-64.0	0.03923973022685469	-15680.0	9.613733905579398	-0.510116492949111	-832.0	0.0	4770.0	6145.56884765625	1254.0	0.7673913043478261	0.3151515151515151	-601.0	-457.0	-0.6067864271457086	5.699831403761791	139.0	2.0299020033081607	-128.0	-1.5018652341897094	-415.0	
0.859587999124152	2089.0	1238.0	10.121505350762758	-0.2275384640914922	2002.0	-1088.0	0.6670754138565297	-15872.0	9.731453096259962	-0.4316370324954016	-704.0	0.0	5410.0	6165.10009765625	1258.0	0.7760869565217391	0.3191919191919192	-599.0	-471.0	-0.5788423153692616	-6.525136627541204	90.0	1.996377178712112	-71.0	-0.6343684055877059	382.0	
0.7251220261159456	2090.0	1242.0	10.075691202297762	-0.2413894580773086	2013.0	-896.0	0.5493562231759657	-15616.0	9.574494175352545	-0.47087676272225626	-768.0	0.0	6050.0	6184.63134765625	1258.0	0.7760869565217391	0.31717171717171716	-600.0	-461.0	-0.5988023952095809	-4.517485743559431	153.0	1.1303539822302766	-20.0	-1.6126198193704895	250.0	
0.5540794985992161	2090.0	1245.0	10.042567520236352	-0.24343112017309	2027.0	-640.0	0.39239730226854685	-15744.0	9.652973635806253	-0.3531575720416922	-576.0	0.0	6690.0	6204.16259765625	1252.0	0.7630434782608696	0.2909090909090909	-613.0	-447.0	-0.6267465069860281	2.556156452882241	214.0	0.3602961728069873	1.0	-2.6111128953273015	-212.0	
0.26185066444150823	2092.0	1244.0	10.061143877077033	-0.27026403048842895	2051.0	-64.0	0.03923973022685469	-15616.0	9.574494175352545	-0.510116492949111	-832.0	0.0	7330.0	6223.69384765625	1259.0	0.7782608695652175	0.32727272727272727	-595.0	-470.0	-0.5808383233532934	3.0073119790532057	199.0	0.7395603778478432	-27.0	-2.3874875684597336	-241.0	
0.7998524980824306	2096.0	1235.0	10.160976226550254	-0.31207845974162485	2007.0	-1024.0	0.627835683629675	-16000.0	9.809932556713672	-0.5493562231759657	-896.0	0.0	7970.0	6243.22509765625	1260.0	0.7804347826086957	0.30303030303030304	-607.0	-458.0	-0.6047904191616768	-5.536844053657231	148.0	1.9478846829243235	-70.0	-1.5263806088930858	317.0	
0.8960611524975094	2098.0	1248.0	10.001010147291911	-0.3368124195322261	1999.0	-1216.0	0.745554874310239	-15680.0	9.613733905579398	-0.5885959534028203	-960.0	0.0	8610.0	6262.75634765625	1256.0	0.7717391304347826	0.3090909090909091	-604.0	-457.0	-0.6067864271457086	-4.622117887992172	199.0	2.110148906489254	-83.0	-2.31119326978928	257.0	
0.4080275759857361	2092.0	1245.0	10.045999010485938	-0.2689537100388976	2039.0	-448.0	0.27467811158798283	-15744.0	9.652973635806253	-0.5493562231759657	-896.0	0.0	9250.0	6282.28759765625	1256.0	0.7717391304347826	0.3151515151515151	-601.0	-469.0	-0.5828343313373254	7.338258808244744	218.0	1.319250631288633	-85.0	-2.7197704207820674	-523.0	
0.3365768188488769	2096.0	1235.0	10.17033252401128	-0.3166176535593501	2045.0	-128.0	0.07847946045370938	-15872.0	9.731453096259962	-0.510116492949111	-832.0	0.0	9890.0	6301.81884765625	1257.0	0.7739130434782608	0.3111111111111111	-603.0	-455.0	-0.6107784431137725	7.271138896356146	236.0	1.02003016878764	-64.0	-2.9928634802183147	-519.0	
0.7660643377987759	2101.0	1217.0	10.382331490734206	-0.3704437525580435	2010.0	-960.0	0.5885959534028203	-16064.0	9.849172286940528	-0.510116492949111	-832.0	0.0	10530.0	6321.35009765625	1252.0	0.7630434782608696	0.32727272727272727	-595.0	-457.0	-0.6067864271457086	-7.6884927712278435	154.0	1.741469533826284	-46.0	-1.5961188745690904	457.0	
0.862385028467253	2099.0	1225.0	10.282362903179614	-0.346383845984736	2002.0	-1152.0	0.7063151440833844	-16320.0	10.006131207847945	-0.5493562231759657	-896.0	0.0	11170.0	6340.88134765625	1258.0	0.7760869565217391	0.3232323232323232	-597.0	-468.0	-0.5848303393213574	-7.25349477939337	159.0	2.3439206561109507	-88.0	-1.676514481863861	429.0	
