Device	Device	Device	Device	Device	Device	Device	Device	Device	Device	Device	Device	Device	Device	Device	Device	Device	Device	Device	Device	Device	Device	Device	Device	Device	Device	Device	
Low Noise Accelerometer X	Low Noise Accelerometer X	Low Noise Accelerometer Z	Low Noise Accelerometer Z	Low Noise Accelerometer Y	Low Noise Accelerometer Y	Wide Range Accelerometer X	Wide Range Accelerometer X	Wide Range Accelerometer Z	Wide Range Accelerometer Z	Wide Range Accelerometer Y	Wide Range Accelerometer Y	Event_Marker	Timestamp	Timestamp	Magnetometer Z	Magnetometer Z	Magnetometer X	Magnetometer X	Magnetometer Y	Magnetometer Y	Gyroscope Y	Gyroscope Y	Gyroscope Z	Gyroscope Z	Gyroscope X	Gyroscope X	
CAL	UNCAL	CAL	UNCAL	UNCAL	CAL	UNCAL	CAL	CAL	UNCAL	CAL	UNCAL	CAL	CAL	UNCAL	CAL	UNCAL	UNCAL	CAL	CAL	UNCAL	CAL	UNCAL	CAL	UNCAL	CAL	UNCAL	
m/(s^2)	no units	m/(s^2)	no units	no units	m/(s^2)	no units	m/(s^2)	m/(s^2)	no units	m/(s^2)	no units	no units	ms	no units	local_flux	no units	no units	local_flux	local_flux	no units	deg/s	no units	deg/s	no units	deg/s	no units	
-0.33402932680001446	2061.0	10.602187930425027	1200.0	2100.0	0.10268158603625012	1088.0	-0.6670754138565297	10.084610668301655	-16448.0	-0.07847946045370938	-128.0	0.0	1923.187255859375	63019.0	0.7673913043478261	1254.0	-648.0	0.2202020202020202	-0.6167664670658684	-452.0	-3.9261151070697458	718.0	-3.274725355239504	294.0	-10.211689419271508	203.0	
0.1308258741625367	2066.0	10.691545778682798	1192.0	2062.0	0.04798275267303166	448.0	-0.27467811158798283	10.163090128755364	-16576.0	-0.11771919068056406	-192.0	0.0	1942.718505859375	63659.0	0.7760869565217391	1258.0	-654.0	0.2080808080808081	-0.6007984031936129	-460.0	-1.6454187535345486	627.0	-2.1994677158367617	208.0	-8.85046596455591	56.0	
0.2657874853346174	2071.0	10.714410044463513	1190.0	2051.0	-0.010679952412862057	-128.0	0.07847946045370938	10.280809319435928	-16768.0	-0.23543838136112813	-384.0	0.0	1962.249755859375	64299.0	0.7717391304347826	1256.0	-654.0	0.2080808080808081	-0.6447105788423154	-438.0	11.227669285512563	594.0	-1.526305291680468	102.0	-8.477295704261971	-782.0	
-0.10008146088577803	2069.0	10.733509971432147	1189.0	2081.0	0.009948742936789004	128.0	-0.07847946045370938	10.320049049662783	-16832.0	-0.19619865113427343	-320.0	0.0	1981.781005859375	64939.0	0.7673913043478261	1254.0	-652.0	0.21212121212121213	-0.6087824351297406	-456.0	19.559792534132352	518.0	-1.31287660133422	46.0	-7.404723400626495	-1324.0	
-0.47848877500714804	2074.0	10.632622698348147	1198.0	2112.0	-0.05508516679068633	768.0	-0.47087676272225626	10.20232985898222	-16640.0	-0.23543838136112813	-384.0	0.0	2001.312255859375	43.0	0.7717391304347826	1256.0	-663.0	0.1898989898989899	-0.6227544910179642	-449.0	16.225438693202932	372.0	-0.8547842880705534	25.0	-5.1508475428255664	-1105.0	
-0.5993130675332329	2076.0	10.720893476270971	1191.0	2122.0	-0.07950708747888764	1216.0	-0.745554874310239	10.359288779889638	-16896.0	-0.23543838136112813	-384.0	0.0	2020.843505859375	683.0	0.7608695652173914	1251.0	-654.0	0.2080808080808081	-0.6407185628742516	-440.0	5.059153727148356	218.0	-0.9808942697597116	79.0	-2.6969793699711038	-376.0	
-0.34498601419243347	2074.0	10.568963064750314	1203.0	2101.0	-0.05438673551851754	1088.0	-0.6670754138565297	10.280809319435928	-16768.0	-0.3139178418148375	-512.0	0.0	2040.374755859375	1323.0	0.7652173913043478	1253.0	-655.0	0.20606060606060606	-0.6067864271457086	-457.0	-4.48031903266346	75.0	-0.943673298327974	115.0	-0.42667969940720574	247.0	
-0.07834682423701456	2072.0	10.428976681215662	1214.0	2079.0	-0.0290238219121412	640.0	-0.39239730226854685	10.123850398528509	-16512.0	-0.23543838136112813	-384.0	0.0	2059.906005859375	1963.0	0.7695652173913043	1255.0	-661.0	0.19393939393939394	-0.6127744510978045	-454.0	-3.775215020768972	-12.0	-0.8207887379879337	100.0	0.8894631768236594	202.0	
-0.1773352377587285	2068.0	10.332470717330136	1222.0	2087.0	0.017214005398123733	512.0	-0.3139178418148375	9.966891477621092	-16256.0	-0.19619865113427343	-320.0	0.0	2079.437255859375	2603.0	0.7608695652173914	1251.0	-653.0	0.2101010101010101	-0.6427145708582835	-439.0	-1.367899496053861	-72.0	-0.4251396497237525	60.0	1.7779375500936185	46.0	
-0.14100218477302628	2068.0	10.307351569586933	1224.0	2084.0	0.017326144450548725	640.0	-0.39239730226854685	9.849172286940528	-16064.0	-0.23543838136112813	-384.0	0.0	2098.968505859375	3243.0	0.7695652173913043	1255.0	-655.0	0.20606060606060606	-0.6007984031936129	-460.0	-1.1433962830512423	-98.0	0.14311758608200603	20.0	2.171129780321007	32.0	
-0.10490183941235369	2072.0	10.210044683799737	1232.0	2081.0	-0.03147869203805384	512.0	-0.3139178418148375	9.849172286940528	-16064.0	-0.3139178418148375	-512.0	0.0	2118.499755859375	3883.0	0.7673913043478261	1254.0	-660.0	0.19595959595959597	-0.6227544910179642	-449.0	-1.9725197580549922	-105.0	0.001663476083550046	33.0	2.2858848933980402	86.0	
-0.00895179797700324	2066.0	10.121312602587919	1239.0	2073.0	0.04088264419068747	384.0	-0.23543838136112813	9.809932556713672	-16000.0	-0.19619865113427343	-320.0	0.0	2138.031005859375	4523.0	0.7652173913043478	1253.0	-655.0	0.20606060606060606	-0.656686626746507	-432.0	-2.0178914165408646	-71.0	-0.9490069894676312	98.0	1.7692283438232037	88.0	
0.0032375084864268017	2065.0	10.133018195574557	1238.0	2072.0	0.053169785956272496	256.0	-0.15695892090741875	9.770692826486817	-15936.0	-0.19619865113427343	-320.0	0.0	2157.562255859375	5163.0	0.7652173913043478	1253.0	-654.0	0.2080808080808081	-0.6207584830339322	-450.0	-0.4335301867093108	-7.0	-1.1552757035803107	107.0	0.7800007011066369	-16.0	
0.003726670311626462	2068.0	10.145923746912906	1237.0	2072.0	0.017159154774654975	256.0	-0.15695892090741875	9.692213366033108	-15808.0	-0.11771919068056406	-192.0	0.0	2177.093505859375	5803.0	0.7739130434782608	1257.0	-663.0	0.1898989898989899	-0.6307385229540919	-445.0	1.1530115866122295	40.0	-1.4020233963393391	118.0	0.0493063860350184	-120.0	
0.016288784787741317	2072.0	10.134441022215896	1238.0	2071.0	-0.031022822411891318	320.0	-0.19619865113427343	9.731453096259962	-15872.0	-0.23543838136112813	-384.0	0.0	2196.624755859375	6443.0	0.7565217391304347	1249.0	-674.0	0.16767676767676767	-0.6786427145708583	-421.0	3.4637393737692546	62.0	-1.7443685686328543	131.0	-0.3084016522928257	-271.0	
-0.17901816062289144	2071.0	10.125951834544082	1239.0	2087.0	-0.02101259097163144	448.0	-0.27467811158798283	9.731453096259962	-15872.0	-0.27467811158798283	-448.0	0.0	2216.156005859375	7083.0	0.7673913043478261	1254.0	-655.0	0.20606060606060606	-0.6107784431137725	-455.0	7.6537365618646716	63.0	-1.7205414291946393	110.0	-0.365510749649065	-544.0	
-0.5463394808619784	2067.0	10.022672428111536	1248.0	2117.0	0.02247417284598957	960.0	-0.5885959534028203	9.692213366033108	-15808.0	-0.19619865113427343	-320.0	0.0	2235.687255859375	7723.0	0.7673913043478261	1254.0	-662.0	0.1919191919191919	-0.62874251497006	-446.0	6.5937064350163315	68.0	-1.7486690335078192	117.0	-0.43095607575700745	-475.0	
-0.41296386775756977	2064.0	9.982677982196087	1251.0	2106.0	0.05955256283113215	1216.0	-0.745554874310239	9.613733905579398	-15680.0	-0.23543838136112813	-384.0	0.0	2255.218505859375	8363.0	0.7630434782608696	1252.0	-657.0	0.20202020202020202	-0.6367265469061877	-442.0	-0.9937405116255112	34.0	-1.3012371516604386	121.0	0.1620286598691068	20.0	
-0.3150571790214206	2070.0	9.945568106337658	1254.0	2098.0	-0.012128625666596629	896.0	-0.5493562231759657	9.652973635806253	-15744.0	-0.23543838136112813	-384.0	0.0	2274.749755859375	9003.0	0.7630434782608696	1252.0	-653.0	0.2101010101010101	-0.6067864271457086	-457.0	-4.03657146664919	19.0	-0.3939339163140427	74.0	0.4205938515486212	219.0	
-0.19302401399946506	2069.0	9.967247980476404	1252.0	2088.0	0.0013566974960947248	640.0	-0.39239730226854685	9.692213366033108	-15808.0	-0.23543838136112813	-384.0	0.0	2294.281005859375	9643.0	0.7565217391304347	1249.0	-664.0	0.18787878787878787	-0.6506986027944113	-435.0	-3.6913678750783174	19.0	0.36165010861517327	22.0	0.4171418156329125	197.0	
-0.20460348726606423	2073.0	9.980638185168358	1251.0	2089.0	-0.04681796627398907	640.0	-0.39239730226854685	9.652973635806253	-15744.0	-0.23543838136112813	-384.0	0.0	2313.812255859375	10283.0	0.7608695652173914	1251.0	-650.0	0.21616161616161617	-0.6387225548902197	-441.0	-2.585631378093146	51.0	0.9188511827065337	-19.0	-0.08060756454606474	125.0	
-0.19326535674272755	2069.0	9.942867487795915	1254.0	2088.0	0.001110479141857218	640.0	-0.39239730226854685	9.574494175352545	-15616.0	-0.3139178418148375	-512.0	0.0	2333.343505859375	10923.0	0.7717391304347826	1256.0	-649.0	0.21818181818181817	-0.6087824351297406	-456.0	-3.9227328346747954	67.0	0.9766697731444212	-16.0	-0.31058255758481096	212.0	
-0.09464327489502378	2071.0	10.026706335342464	1247.0	2080.0	-0.021161297106368965	640.0	-0.39239730226854685	9.613733905579398	-15680.0	-0.27467811158798283	-448.0	0.0	2352.874755859375	11563.0	0.7608695652173914	1251.0	-661.0	0.19393939393939394	-0.6407185628742516	-440.0	-4.564228882502109	57.0	1.1351742778680958	-24.0	-0.15207634235368617	254.0	
-0.16875959610556152	2070.0	9.94261348608681	1254.0	2086.0	-0.010695196039946536	448.0	-0.27467811158798283	9.574494175352545	-15616.0	-0.23543838136112813	-384.0	0.0	2372.406005859375	12203.0	0.7586956521739131	1250.0	-651.0	0.21414141414141413	-0.6047904191616768	-458.0	-4.715950878054417	57.0	1.3106516699879216	-35.0	-0.15055912239816308	264.0	
0.014711421838302138	2068.0	10.023775065156222	1247.0	2071.0	0.01604751547235489	384.0	-0.23543838136112813	9.53525444512569	-15552.0	-0.27467811158798283	-448.0	0.0	2391.937255859375	12843.0	0.7739130434782608	1257.0	-654.0	0.2080808080808081	-0.6227544910179642	-449.0	-5.2358779653565986	27.0	1.0437300734794184	-16.0	0.3109139127334139	298.0	
-0.021983645262293877	2068.0	10.012323473878691	1248.0	2074.0	0.01556604888857363	192.0	-0.11771919068056406	9.613733905579398	-15680.0	-0.27467811158798283	-448.0	0.0	2411.468505859375	13483.0	0.7652173913043478	1253.0	-656.0	0.20404040404040405	-0.6327345309381238	-444.0	-3.155418463704659	71.0	1.030645679237827	-23.0	-0.37909220319565307	162.0	
-0.09404855315510033	2067.0	10.135464812407193	1238.0	2080.0	0.028125005966014915	576.0	-0.3531575720416922	9.770692826486817	-15936.0	-0.15695892090741875	-256.0	0.0	2430.999755859375	14123.0	0.7543478260869565	1248.0	-647.0	0.2222222222222222	-0.6247504990019961	-448.0	-2.1984343136960858	120.0	0.783954415855026	-9.0	-1.1339091929847123	99.0	
0.38165561650558777	2065.0	10.174146411954172	1234.0	2041.0	0.05736524920026025	320.0	-0.19619865113427343	9.809932556713672	-16000.0	-0.15695892090741875	-256.0	0.0	2450.531005859375	14763.0	0.7695652173913043	1255.0	-648.0	0.2202020202020202	-0.6247504990019961	-448.0	-2.6215702477371137	122.0	1.4742915718198455	-53.0	-1.1600960845948725	127.0	
0.1386839639245907	2071.0	10.192691635375375	1233.0	2061.0	-0.017168171717843697	-256.0	0.15695892090741875	9.927651747394236	-16192.0	-0.11771919068056406	-192.0	0.0	2470.062255859375	15403.0	0.7673913043478261	1254.0	-659.0	0.19797979797979798	-0.6487025948103793	-436.0	9.32324329006032	136.0	2.1207150271716455	-151.0	-1.492471976626839	-651.0	
-0.29984461192853457	2072.0	10.226174423807782	1231.0	2097.0	-0.03326682236313522	384.0	-0.23543838136112813	9.770692826486817	-15936.0	-0.3139178418148375	-512.0	0.0	2489.593505859375	16043.0	0.7630434782608696	1252.0	-649.0	0.21818181818181817	-0.6367265469061877	-442.0	20.592456803441006	206.0	2.053625986636815	-196.0	-2.669802895030608	-1386.0	
-0.5434347328245953	2071.0	10.267431094913897	1228.0	2117.0	-0.023241964089950343	960.0	-0.5885959534028203	9.927651747394236	-16192.0	-0.19619865113427343	-320.0	0.0	2509.124755859375	16683.0	0.7673913043478261	1254.0	-658.0	0.2	-0.6187624750499002	-451.0	17.68104862827333	210.0	1.04430065210633	-115.0	-2.701525315180072	-1197.0	
-0.4946667130730842	2072.0	10.25449441015607	1229.0	2113.0	-0.03493184351109782	1344.0	-0.8240343347639485	9.809932556713672	-16000.0	-0.3139178418148375	-512.0	0.0	2528.656005859375	17323.0	0.7608695652173914	1251.0	-663.0	0.1898989898989899	-0.6447105788423154	-438.0	5.163566465960939	207.0	0.08460685827487446	7.0	-2.5307231171310924	-382.0	
0.06735603693892106	2076.0	10.317263583900083	1223.0	2067.0	-0.07687669535787496	640.0	-0.39239730226854685	9.888412017167381	-16128.0	-0.27467811158798283	-448.0	0.0	2548.187255859375	17963.0	0.7652173913043478	1253.0	-652.0	0.21212121212121213	-0.6107784431137725	-455.0	-7.595940095513124	122.0	-0.23346530026819734	84.0	-1.1103523861171123	450.0	
-0.1407478893524145	2074.0	10.260021194222162	1228.0	2084.0	-0.05543377297539885	192.0	-0.11771919068056406	9.888412017167381	-16128.0	-0.3139178418148375	-512.0	0.0	2567.718505859375	18603.0	0.7652173913043478	1253.0	-655.0	0.20606060606060606	-0.6267465069860281	-447.0	-4.0956813426371195	117.0	-0.21026006709715733	66.0	-1.0693093462694463	222.0	
-0.05601098950965301	2074.0	10.197346434041279	1233.0	2077.0	-0.05521315157878008	640.0	-0.39239730226854685	9.849172286940528	-16064.0	-0.23543838136112813	-384.0	0.0	2587.249755859375	19243.0	0.7586956521739131	1250.0	-656.0	0.20404040404040405	-0.6347305389221558	-443.0	2.1760100840423324	133.0	-0.5170959201048574	58.0	-1.3753722681408038	-187.0	
-0.22706215214461517	2070.0	10.212029997343377	1232.0	2091.0	-0.0085840564877714	320.0	-0.19619865113427343	9.809932556713672	-16000.0	-0.27467811158798283	-448.0	0.0	2606.781005859375	19883.0	0.7630434782608696	1252.0	-658.0	0.2	-0.6087824351297406	-456.0	5.8305465500988065	30.0	-0.3693456389086589	27.0	0.15462229115300438	-424.0	
-0.6053531124534703	2073.0	10.147236593281376	1238.0	2122.0	-0.049159478444732965	1088.0	-0.6670754138565297	9.770692826486817	-15936.0	-0.23543838136112813	-384.0	0.0	2626.312255859375	20523.0	0.7717391304347826	1256.0	-664.0	0.18787878787878787	-0.6207584830339322	-450.0	8.968639285925953	69.0	-0.5940156650770354	29.0	-0.46991452974138886	-629.0	
-0.42295302539738044	2078.0	10.03502327590245	1247.0	2107.0	-0.10869857460338299	1280.0	-0.7847946045370937	9.770692826486817	-15936.0	-0.27467811158798283	-448.0	0.0	2645.843505859375	21163.0	0.7565217391304347	1249.0	-660.0	0.19595959595959597	-0.6487025948103793	-436.0	0.30157977820869253	27.0	-0.7959498490409417	81.0	0.255539335297761	-64.0	
-0.15596045644530063	2072.0	9.97941487675204	1251.0	2085.0	-0.03429557627886026	704.0	-0.4316370324954016	9.45677498467198	-15424.0	-0.27467811158798283	-448.0	0.0	2665.374755859375	21803.0	0.7608695652173914	1251.0	-654.0	0.2080808080808081	-0.6267465069860281	-447.0	-8.379278323814434	-105.0	-0.6768639088490378	108.0	2.349952479055635	503.0	
-0.3033419229262828	2073.0	9.860705468599814	1261.0	2097.0	-0.04900467779627671	640.0	-0.39239730226854685	9.496014714898834	-15488.0	-0.27467811158798283	-448.0	0.0	2684.906005859375	22443.0	0.7717391304347826	1256.0	-663.0	0.1898989898989899	-0.6247504990019961	-448.0	-5.824471656320526	-136.0	-0.4387551598003153	79.0	2.795887302114536	337.0	
-0.26605213408576334	2069.0	9.980915536942074	1251.0	2094.0	7.630918598884318E-4	896.0	-0.5493562231759657	9.652973635806253	-15744.0	-0.23543838136112813	-384.0	0.0	2704.437255859375	23083.0	0.7673913043478261	1254.0	-659.0	0.19797979797979798	-0.6427145708582835	-439.0	-4.642120687411009	-122.0	-0.1677020907633616	56.0	2.5711360357714486	260.0	
-0.19253701095382358	2071.0	9.99210534315563	1250.0	2088.0	-0.02248624438882528	640.0	-0.39239730226854685	9.613733905579398	-15680.0	-0.27467811158798283	-448.0	0.0	2723.968505859375	23723.0	0.7608695652173914	1251.0	-649.0	0.21818181818181817	-0.6127744510978045	-454.0	-6.969057023814394	-75.0	-0.396944270803676	84.0	1.8795765017970796	411.0	
-0.16827259305992015	2072.0	9.967470848766034	1252.0	2086.0	-0.034538137924866555	576.0	-0.3531575720416922	9.613733905579398	-15680.0	-0.27467811158798283	-448.0	0.0	2743.499755859375	24363.0	0.7695652173913043	1255.0	-654.0	0.2080808080808081	-0.6267465069860281	-447.0	-6.481839750908982	71.0	-0.1021532402522124	68.0	-0.34582799032360984	378.0	
-0.1432819881566709	2074.0	10.004026021077028	1249.0	2084.0	-0.05801906569489276	512.0	-0.3139178418148375	9.652973635806253	-15744.0	-0.19619865113427343	-320.0	0.0	2763.031005859375	25003.0	0.7565217391304347	1249.0	-645.0	0.22626262626262628	-0.62874251497006	-446.0	-4.980940873161404	102.0	0.05212357341592477	52.0	-0.8323198688349259	280.0	
-0.15547345339965918	2074.0	10.004272239431264	1249.0	2085.0	-0.05813851816378027	576.0	-0.3531575720416922	9.574494175352545	-15616.0	-0.27467811158798283	-448.0	0.0	2782.562255859375	25643.0	0.7652173913043478	1253.0	-647.0	0.2222222222222222	-0.6067864271457086	-457.0	-4.353603998251075	145.0	0.5143807426796864	20.0	-1.4925856330212917	239.0	
-0.1912053083067634	2073.0	10.102294430216567	1241.0	2088.0	-0.04546742203391399	704.0	-0.4316370324954016	9.770692826486817	-15936.0	-0.3139178418148375	-512.0	0.0	2802.093505859375	26283.0	0.7630434782608696	1252.0	-656.0	0.20404040404040405	-0.6347305389221558	-443.0	-4.821544743888101	211.0	0.7670115548082873	8.0	-2.4917085069337426	269.0	
-0.0933072546888471	2075.0	10.112991799721646	1240.0	2080.0	-0.0684778533448527	448.0	-0.27467811158798283	9.770692826486817	-15936.0	-0.27467811158798283	-448.0	0.0	2821.624755859375	26923.0	0.7586956521739131	1250.0	-646.0	0.22424242424242424	-0.6347305389221558	-443.0	-5.9559931419023115	221.0	1.0469553622258276	-5.0	-2.6324552777064523	343.0	
0.06639498352498742	2078.0	10.195837990496374	1233.0	2067.0	-0.10219694736822006	192.0	-0.11771919068056406	9.770692826486817	-15936.0	-0.3139178418148375	-512.0	0.0	2841.156005859375	27563.0	0.7586956521739131	1250.0	-652.0	0.21212121212121213	-0.658682634730539	-431.0	-2.1107667182241925	194.0	1.4675494237864417	-52.0	-2.260261154110534	93.0	
0.004586481369952711	2075.0	10.14759279190848	1237.0	2072.0	-0.06715290606239635	448.0	-0.27467811158798283	9.770692826486817	-15936.0	-0.27467811158798283	-448.0	0.0	2860.687255859375	28203.0	0.7673913043478261	1254.0	-647.0	0.2222222222222222	-0.6207584830339322	-450.0	3.956852007096838	174.0	1.6927460250414108	-96.0	-2.016754831858041	-302.0	
-0.23900795708522454	2072.0	10.21275308569635	1232.0	2092.0	-0.032792669195816415	640.0	-0.39239730226854685	9.770692826486817	-15936.0	-0.27467811158798283	-448.0	0.0	2880.218505859375	28843.0	0.7543478260869565	1248.0	-649.0	0.21818181818181817	-0.6327345309381238	-444.0	4.1999408328587755	198.0	1.8103678332096613	-104.0	-2.384204731522504	-318.0	
-0.3254364149103818	2071.0	10.116716208454688	1240.0	2099.0	-0.022569129775400293	768.0	-0.47087676272225626	9.652973635806253	-15744.0	-0.27467811158798283	-448.0	0.0	2899.749755859375	29483.0	0.7695652173913043	1255.0	-646.0	0.22424242424242424	-0.6227544910179642	-449.0	-4.86548582079849	204.0	0.8707588248650523	1.0	-2.384805217837642	272.0	
0.16246785511152734	2073.0	10.107344344283923	1240.0	2059.0	-0.041880191259057495	128.0	-0.07847946045370938	9.652973635806253	-15744.0	-0.27467811158798283	-448.0	0.0	2919.281005859375	30123.0	0.7652173913043478	1253.0	-653.0	0.2101010101010101	-0.6367265469061877	-442.0	-10.01901555626525	165.0	0.6060181087870566	41.0	-1.7401140269468534	608.0	
0.2134122771115176	2076.0	10.289928470968743	1225.0	2055.0	-0.0756894840854624	0.0	0.0	9.888412017167381	-16128.0	-0.3531575720416922	-576.0	0.0	2938.812255859375	30763.0	0.7586956521739131	1250.0	-641.0	0.23434343434343435	-0.6347305389221558	-443.0	-4.322122411468155	222.0	0.22919864824470285	42.0	-2.664003110486079	236.0	
-0.0418758296432154	2080.0	10.320433289085692	1223.0	2076.0	-0.1261300880561776	256.0	-0.15695892090741875	9.849172286940528	-16064.0	-0.39239730226854685	-640.0	0.0	2958.343505859375	31403.0	0.7478260869565218	1245.0	-646.0	0.22424242424242424	-0.656686626746507	-432.0	-2.2796812797978228	265.0	-0.5314732198714771	85.0	-3.338419917240045	102.0	
-0.04223568497855096	2081.0	10.271910738724081	1227.0	2076.0	-0.13866710488423137	256.0	-0.15695892090741875	9.888412017167381	-16128.0	-0.47087676272225626	-768.0	0.0	2977.874755859375	32043.0	0.7630434782608696	1252.0	-645.0	0.22626262626262628	-0.6546906187624751	-433.0	-2.976429143920303	205.0	-0.5194814696692369	85.0	-2.4189049100817095	148.0	
-0.05261060330839572	2084.0	10.419155218159357	1215.0	2077.0	-0.17344298758643006	512.0	-0.3139178418148375	10.006131207847945	-16320.0	-0.39239730226854685	-640.0	0.0	2997.406005859375	32683.0	0.7543478260869565	1248.0	-640.0	0.23636363636363636	-0.6387225548902197	-441.0	-4.002792035649901	171.0	-0.8435436167543929	110.0	-1.891531015004718	215.0	
0.06894851134526771	2087.0	10.344266861573617	1221.0	2067.0	-0.20912085831900382	64.0	-0.03923973022685469	9.927651747394236	-16192.0	-0.4316370324954016	-704.0	0.0	3016.937255859375	33323.0	0.7673913043478261	1254.0	-642.0	0.23232323232323232	-0.6147704590818364	-453.0	-5.12750093369665	105.0	-0.7454459537125884	106.0	-0.8764816446554289	289.0	
0.056265725497521596	2083.0	10.343559339930383	1221.0	2068.0	-0.16106199030957627	320.0	-0.19619865113427343	9.927651747394236	-16192.0	-0.4316370324954016	-704.0	0.0	3036.468505859375	33963.0	0.7608695652173914	1251.0	-652.0	0.21212121212121213	-0.6626746506986029	-429.0	-2.8508455510175237	77.0	-0.6510703214131082	88.0	-0.4733926851742355	141.0	
0.06808654150738325	2079.0	10.354549627918919	1220.0	2067.0	-0.11264110818525498	64.0	-0.03923973022685469	9.849172286940528	-16064.0	-0.3531575720416922	-576.0	0.0	3055.999755859375	34603.0	0.7565217391304347	1249.0	-639.0	0.2383838383838384	-0.6447105788423154	-438.0	-0.6611070728029582	114.0	-0.5860640650677827	75.0	-1.0580277125419324	-2.0	
0.20183280384491847	2080.0	10.303318675660696	1224.0	2056.0	-0.1238641478555462	0.0	0.0	9.888412017167381	-16128.0	-0.39239730226854685	-640.0	0.0	3075.531005859375	35243.0	0.7608695652173914	1251.0	-636.0	0.24444444444444444	-0.6147704590818364	-453.0	5.554072191263636	179.0	0.3402435142240061	-13.0	-2.1087726610761344	-407.0	
-0.16414817862887526	2082.0	10.26242111092558	1228.0	2086.0	-0.15202931886980392	512.0	-0.3139178418148375	9.927651747394236	-16192.0	-0.4316370324954016	-704.0	0.0	3095.062255859375	35883.0	0.7673913043478261	1254.0	-649.0	0.21818181818181817	-0.6167664670658684	-452.0	11.40999258657041	227.0	0.3816630805707282	-41.0	-2.8973698878428906	-789.0	
-0.3091162176772323	2083.0	10.387516629578244	1218.0	2098.0	-0.1642762368448452	896.0	-0.5493562231759657	9.966891477621092	-16256.0	-0.4316370324954016	-704.0	0.0	3114.593505859375	36523.0	0.7521739130434782	1247.0	-641.0	0.23434343434343435	-0.6307385229540919	-445.0	7.373472006043809	215.0	0.19053691655533878	-10.0	-2.6744951763342026	-526.0	
-0.08880571468600104	2092.0	10.360850121515789	1220.0	2080.0	-0.2707735318353165	448.0	-0.27467811158798283	9.966891477621092	-16256.0	-0.510116492949111	-832.0	0.0	3134.124755859375	37163.0	0.7695652173913043	1255.0	-641.0	0.23434343434343435	-0.6127744510978045	-454.0	-1.3813394212877719	154.0	0.13307636831663183	32.0	-1.6591904080684912	45.0	
0.1547844062100598	2093.0	10.319593450409672	1223.0	2060.0	-0.2807983901085014	64.0	-0.03923973022685469	9.966891477621092	-16256.0	-0.510116492949111	-832.0	0.0	3153.656005859375	37803.0	0.7586956521739131	1250.0	-646.0	0.22424242424242424	-0.658682634730539	-431.0	-3.1023528960508595	60.0	0.030755053143685207	43.0	-0.21232247864405415	158.0	
-0.028201767467720684	2096.0	10.27524104536036	1227.0	2075.0	-0.3192163542090253	256.0	-0.15695892090741875	9.809932556713672	-16000.0	-0.5885959534028203	-960.0	0.0	3173.187255859375	38443.0	0.7543478260869565	1248.0	-639.0	0.2383838383838384	-0.6447105788423154	-438.0	-0.5010104196344618	10.0	0.02917841830829665	29.0	0.5221203703560404	-11.0	
0.056289472072661884	2094.0	10.21208941518074	1232.0	2068.0	-0.294906572573249	320.0	-0.19619865113427343	9.731453096259962	-15872.0	-0.5885959534028203	-960.0	0.0	3192.718505859375	39083.0	0.7673913043478261	1254.0	-643.0	0.23030303030303031	-0.6267465069860281	-447.0	-1.6271849993235106	-86.0	-0.47558050395484835	64.0	1.9934581617803075	63.0	
0.01923023207761386	2093.0	10.176018896223352	1235.0	2071.0	-0.283589677391689	192.0	-0.11771919068056406	9.770692826486817	-15936.0	-0.5493562231759657	-896.0	0.0	3212.249755859375	39723.0	0.7630434782608696	1252.0	-643.0	0.23030303030303031	-0.656686626746507	-432.0	-1.9123378844071157	-135.0	-0.575498771573344	70.0	2.741556838920117	82.0	
0.09153432393412461	2093.0	10.089209861716215	1242.0	2065.0	-0.2837347268181953	64.0	-0.03923973022685469	9.692213366033108	-15808.0	-0.5493562231759657	-896.0	0.0	3231.781005859375	40363.0	0.7565217391304347	1249.0	-636.0	0.24444444444444444	-0.6127744510978045	-454.0	-1.638791435975307	-128.0	-0.7402040867323774	80.0	2.6323574961088028	64.0	
-0.01976406742265066	2090.0	9.968808058503804	1252.0	2074.0	-0.24990715045063416	256.0	-0.15695892090741875	9.652973635806253	-15744.0	-0.47087676272225626	-768.0	0.0	3251.312255859375	41003.0	0.7652173913043478	1253.0	-638.0	0.2404040404040404	-0.6227544910179642	-449.0	-0.7500394004279298	-101.0	-0.47079279418252223	59.0	2.2128235879206293	6.0	
-0.0821824027745163	2084.0	9.895467062237318	1258.0	2079.0	-0.17897558714031164	320.0	-0.19619865113427343	9.496014714898834	-15488.0	-0.39239730226854685	-640.0	0.0	3270.843505859375	41643.0	0.7673913043478261	1254.0	-651.0	0.21414141414141413	-0.6487025948103793	-436.0	-1.2444584939985595	-73.0	-0.37436949349330917	56.0	1.7919122655483506	38.0	
-0.05707328527919403	2085.0	9.956164292229433	1253.0	2077.0	-0.19016571643652164	384.0	-0.23543838136112813	9.574494175352545	-15616.0	-0.39239730226854685	-640.0	0.0	3290.374755859375	42283.0	0.7586956521739131	1250.0	-638.0	0.2404040404040404	-0.6147704590818364	-453.0	-1.7581419003679455	-15.0	-0.21337693481858266	50.0	0.9149198220455046	71.0	
-0.03341654180256326	2084.0	9.894482188820367	1258.0	2075.0	-0.17849777726476163	320.0	-0.19619865113427343	9.496014714898834	-15488.0	-0.3531575720416922	-576.0	0.0	3309.906005859375	42923.0	0.7717391304347826	1256.0	-634.0	0.24848484848484848	-0.6147704590818364	-453.0	-2.418926808638179	37.0	0.49393383320690804	8.0	0.130653146413378	114.0	
-0.08158336347547643	2082.0	9.980321916620293	1251.0	2079.0	-0.15402466266132284	384.0	-0.23543838136112813	9.652973635806253	-15744.0	-0.3531575720416922	-576.0	0.0	3329.437255859375	43563.0	0.7565217391304347	1249.0	-641.0	0.23434343434343435	-0.6526946107784432	-434.0	-1.9582268980503104	73.0	1.0684779062913146	-31.0	-0.42148236980276693	84.0	
-0.08072786997626658	2087.0	10.005894584297621	1249.0	2079.0	-0.21400134490497913	384.0	-0.23543838136112813	9.613733905579398	-15680.0	-0.47087676272225626	-768.0	0.0	3348.968505859375	44203.0	0.7543478260869565	1248.0	-644.0	0.22828282828282828	-0.6826347305389222	-419.0	-2.0238341564911426	133.0	1.5593211850632591	-61.0	-1.333373825735469	88.0	
-0.10438677223245553	2087.0	10.079528499047564	1243.0	2081.0	-0.2135015947800416	576.0	-0.3531575720416922	9.692213366033108	-15808.0	-0.47087676272225626	-768.0	0.0	3368.499755859375	44843.0	0.7652173913043478	1253.0	-645.0	0.22626262626262628	-0.6387225548902197	-441.0	-1.8570484481180436	178.0	2.0398569418079084	-92.0	-2.0194523292070325	77.0	
-0.05489472425115677	2088.0	10.139733292331204	1238.0	2077.0	-0.22445281913847653	384.0	-0.23543838136112813	9.770692826486817	-15936.0	-0.510116492949111	-832.0	0.0	3388.031005859375	45483.0	0.7608695652173914	1251.0	-643.0	0.23030303030303031	-0.6526946107784432	-434.0	-2.360894496591915	185.0	2.40901826437354	-114.0	-2.1208777470492897	110.0	
-0.04245975748534782	2089.0	10.15191575531658	1237.0	2076.0	-0.23625483761204905	256.0	-0.15695892090741875	9.731453096259962	-15872.0	-0.510116492949111	-832.0	0.0	3407.562255859375	46123.0	0.7586956521739131	1250.0	-636.0	0.24444444444444444	-0.6207584830339322	-450.0	-2.9944536900151677	136.0	2.7681316845111366	-137.0	-1.369295006826084	152.0	
0.21416221069600366	2088.0	10.219648212919692	1231.0	2055.0	-0.22096310058312005	0.0	0.0	9.770692826486817	-15936.0	-0.47087676272225626	-768.0	0.0	3427.093505859375	46763.0	0.7586956521739131	1250.0	-640.0	0.23636363636363636	-0.6407185628742516	-440.0	-2.4145894114222615	88.0	3.2383017447410563	-173.0	-0.6450556267983248	115.0	
0.0681038117438489	2087.0	10.258935137191905	1228.0	2067.0	-0.2099826225588351	128.0	-0.07847946045370938	9.888412017167381	-16128.0	-0.4316370324954016	-704.0	0.0	3446.624755859375	47403.0	0.7586956521739131	1250.0	-642.0	0.23232323232323232	-0.6646706586826349	-428.0	2.238272702269804	42.0	4.325758110573654	-269.0	0.008035523927872304	-187.0	
-0.1644972400664198	2088.0	10.154139503859586	1237.0	2086.0	-0.22540478218134533	512.0	-0.3139178418148375	9.731453096259962	-15872.0	-0.510116492949111	-832.0	0.0	3466.156005859375	48043.0	0.7565217391304347	1249.0	-647.0	0.2222222222222222	-0.6307385229540919	-445.0	7.558380687302193	73.0	4.244202977871019	-287.0	-0.5166484456562919	-534.0	
-0.029789924314950894	2087.0	10.224334145005074	1231.0	2075.0	-0.21130756984129148	320.0	-0.19619865113427343	9.809932556713672	-16000.0	-0.39239730226854685	-640.0	0.0	3485.687255859375	48683.0	0.7652173913043478	1253.0	-637.0	0.24242424242424243	-0.6207584830339322	-450.0	1.08443579505036	12.0	3.59321151009511	-216.0	0.47584765725862194	-112.0	
0.14003725436723302	2083.0	10.183362609027544	1234.0	2061.0	-0.16182624232990758	64.0	-0.03923973022685469	9.770692826486817	-15936.0	-0.4316370324954016	-704.0	0.0	3505.218505859375	49323.0	0.7543478260869565	1248.0	-639.0	0.2383838383838384	-0.6447105788423154	-438.0	-6.023167339081493	-23.0	2.897192620211465	-138.0	1.0792430802349215	351.0	
0.10394122656567688	2081.0	10.256765872132986	1228.0	2064.0	-0.13735678443470006	192.0	-0.11771919068056406	9.809932556713672	-16000.0	-0.3531575720416922	-576.0	0.0	3524.749755859375	49963.0	0.7521739130434782	1247.0	-640.0	0.23636363636363636	-0.6127744510978045	-454.0	-6.534830688962898	-23.0	2.378081750682551	-101.0	1.0843597137337355	384.0	
0.01872811757506497	2084.0	10.234824212930265	1230.0	2071.0	-0.17457291042988637	128.0	-0.07847946045370938	9.731453096259962	-15872.0	-0.4316370324954016	-704.0	0.0	3544.281005859375	50603.0	0.7630434782608696	1252.0	-639.0	0.2383838383838384	-0.6247504990019961	-448.0	-3.498542297363327	19.0	2.7620225518544856	-139.0	0.4152135598557626	186.0	
0.04335454958386221	2085.0	10.2467604575614	1229.0	2069.0	-0.18625547643457135	192.0	-0.11771919068056406	9.888412017167381	-16128.0	-0.39239730226854685	-640.0	0.0	3563.812255859375	51243.0	0.7608695652173914	1251.0	-636.0	0.24444444444444444	-0.6387225548902197	-441.0	-2.53003378257524	27.0	3.0443088655842225	-162.0	0.2838554709056003	123.0	
0.12893830780760074	2086.0	10.25746561042135	1228.0	2062.0	-0.1973407800948188	64.0	-0.03923973022685469	9.849172286940528	-16064.0	-0.4316370324954016	-704.0	0.0	3583.343505859375	51883.0	0.7630434782608696	1252.0	-636.0	0.24444444444444444	-0.62874251497006	-446.0	-3.1365272766352534	75.0	2.9807897999502138	-153.0	-0.4401176169674878	162.0	
0.1415025810632738	2091.0	10.234031074383465	1230.0	2061.0	-0.25769044657806267	128.0	-0.07847946045370938	9.888412017167381	-16128.0	-0.47087676272225626	-768.0	0.0	3602.874755859375	52523.0	0.7456521739130435	1244.0	-641.0	0.23434343434343435	-0.658682634730539	-431.0	-2.5546950182056665	56.0	2.553922745699149	-128.0	-0.15696255552136543	124.0	
0.11650981738046637	2088.0	10.209427713413346	1232.0	2063.0	-0.22204182951133888	128.0	-0.07847946045370938	9.888412017167381	-16128.0	-0.4316370324954016	-704.0	0.0	3622.406005859375	53163.0	0.7608695652173914	1251.0	-647.0	0.2222222222222222	-0.6447105788423154	-438.0	-2.3704455191143508	32.0	2.196663137647349	-106.0	0.2062139608945656	112.0	
0.11590430174275188	2087.0	10.160428293053	1236.0	2063.0	-0.21048968610023516	192.0	-0.11771919068056406	9.770692826486817	-15936.0	-0.4316370324954016	-704.0	0.0	3641.937255859375	53803.0	0.7652173913043478	1253.0	-643.0	0.23030303030303031	-0.6686626746506987	-426.0	-2.728822143344383	-13.0	2.5090723035488907	-127.0	0.8942083735246986	136.0	
0.1028638193392284	2085.0	10.09924640970728	1241.0	2064.0	-0.18713552421555893	128.0	-0.07847946045370938	9.692213366033108	-15808.0	-0.47087676272225626	-768.0	0.0	3661.468505859375	54443.0	0.7608695652173914	1251.0	-635.0	0.24646464646464647	-0.6247504990019961	-448.0	-2.465072719108156	-45.0	2.306330121784299	-116.0	1.3782628944914619	119.0	
0.11480962427983772	2083.0	10.098523321354307	1241.0	2063.0	-0.1629269115075139	128.0	-0.07847946045370938	9.770692826486817	-15936.0	-0.3531575720416922	-576.0	0.0	3680.999755859375	55083.0	0.7586956521739131	1250.0	-629.0	0.2585858585858586	-0.6467065868263474	-437.0	-3.998258203567431	-67.0	2.129790733618147	-98.0	1.7281955097923283	219.0	
0.21210000348048125	2083.0	10.072173081839917	1243.0	2055.0	-0.16221751011065133	-128.0	0.07847946045370938	9.731453096259962	-15872.0	-0.4316370324954016	-704.0	0.0	3700.531005859375	55723.0	0.7565217391304347	1249.0	-630.0	0.25656565656565655	-0.6227544910179642	-449.0	-4.4022160685736695	-55.0	1.8203789950438214	-75.0	1.5497255827389687	245.0	
0.1393132261374455	2083.0	10.110221130986076	1240.0	2061.0	-0.16256489739262014	-64.0	0.03923973022685469	9.692213366033108	-15808.0	-0.39239730226854685	-640.0	0.0	3720.062255859375	56363.0	0.7521739130434782	1247.0	-639.0	0.2383838383838384	-0.6646706586826349	-428.0	-2.8201017968358943	-53.0	1.9813456392351618	-93.0	1.5034861890710207	142.0	
0.15137322611101145	2078.0	10.157543722995978	1236.0	2060.0	-0.10173010761736381	64.0	-0.03923973022685469	9.849172286940528	-16064.0	-0.3139178418148375	-512.0	0.0	3739.593505859375	57003.0	0.7543478260869565	1248.0	-632.0	0.25252525252525254	-0.6506986027944113	-435.0	-2.7317663113217807	-38.0	1.8343979272472912	-83.0	1.274465952086602	136.0	
0.22537535228859262	2082.0	10.193590891888757	1233.0	2054.0	-0.1488223857509975	-128.0	0.07847946045370938	9.809932556713672	-16000.0	-0.3531575720416922	-576.0	0.0	3759.124755859375	57643.0	0.7652173913043478	1253.0	-633.0	0.2505050505050505	-0.6167664670658684	-452.0	-2.9340767008167328	-21.0	1.8138434244349562	-80.0	1.0179339229017035	149.0	
0.25012245566902114	2083.0	10.21771738286014	1231.0	2052.0	-0.16038184257856372	-64.0	0.03923973022685469	9.849172286940528	-16064.0	-0.39239730226854685	-640.0	0.0	3778.656005859375	58283.0	0.7543478260869565	1248.0	-636.0	0.24444444444444444	-0.6347305389221558	-443.0	-2.597317034041534	-35.0	1.5120227738949759	-62.0	1.227494082887944	127.0	
0.26244106862231525	2086.0	10.193805976823516	1233.0	2051.0	-0.19664234882265003	-128.0	0.07847946045370938	9.770692826486817	-15936.0	-0.39239730226854685	-640.0	0.0	3798.187255859375	58923.0	0.75	1246.0	-627.0	0.26262626262626265	-0.6227544910179642	-449.0	-3.0857898059933664	-57.0	1.4426814259158167	-56.0	1.5669795710637362	159.0	
0.2867011689571023	2085.0	10.193075105115673	1233.0	2049.0	-0.18435886376529625	-192.0	0.11771919068056406	9.809932556713672	-16000.0	-0.4316370324954016	-704.0	0.0	3817.718505859375	59563.0	0.7695652173913043	1255.0	-632.0	0.25252525252525254	-0.6127744510978045	-454.0	-2.1546338946275276	-33.0	1.3025187124522724	-50.0	1.1926490005432335	98.0	
0.20039122372401802	2083.0	10.121180285555132	1239.0	2056.0	-0.16184452587106385	-64.0	0.03923973022685469	9.770692826486817	-15936.0	-0.39239730226854685	-640.0	0.0	3837.249755859375	60203.0	0.7608695652173914	1251.0	-632.0	0.25252525252525254	-0.6546906187624751	-433.0	-0.9392983049558284	21.0	0.8759704727345898	-25.0	0.35920286898111725	18.0	
0.18808124588895675	2084.0	10.09728444622825	1241.0	2057.0	-0.17425477681376764	0.0	0.0	9.731453096259962	-15872.0	-0.39239730226854685	-640.0	0.0	3856.781005859375	60843.0	0.7608695652173914	1251.0	-625.0	0.26666666666666666	-0.6427145708582835	-439.0	-1.8028693585756508	45.0	0.8307357485377957	-17.0	0.0028195681104713354	74.0	
0.23623943244363704	2082.0	10.05925196379183	1244.0	2053.0	-0.1500571342304163	-192.0	0.11771919068056406	9.731453096259962	-15872.0	-0.3531575720416922	-576.0	0.0	3876.312255859375	61483.0	0.7652173913043478	1253.0	-624.0	0.2686868686868687	-0.6167664670658684	-452.0	-2.6123311800557323	95.0	0.4527249260714757	14.0	-0.7495420874389864	126.0	
0.21174230692470392	2085.0	10.01169872013743	1248.0	2055.0	-0.18692221623540262	-128.0	0.07847946045370938	9.574494175352545	-15616.0	-0.4316370324954016	-704.0	0.0	3895.843505859375	62123.0	0.7565217391304347	1249.0	-634.0	0.24848484848484848	-0.6506986027944113	-435.0	-1.4426923410523602	191.0	0.6995861721682028	-4.0	-2.2213145214563967	49.0	
0.21041276305720186	2084.0	9.889557821735616	1258.0	2055.0	-0.17610872788701143	-64.0	0.03923973022685469	9.45677498467198	-15424.0	-0.39239730226854685	-640.0	0.0	3915.374755859375	62763.0	0.7521739130434782	1247.0	-626.0	0.26464646464646463	-0.6467065868263474	-437.0	-1.2156269011033318	231.0	0.9929745895225995	-23.0	-2.831950194867294	34.0	
0.24759267442388116	2085.0	9.93781858703325	1254.0	2052.0	-0.18730251389145267	-64.0	0.03923973022685469	9.496014714898834	-15488.0	-0.4316370324954016	-704.0	0.0	3934.906005859375	63403.0	0.7695652173913043	1255.0	-627.0	0.26262626262626265	-0.6147704590818364	-453.0	-2.0120467282975802	245.0	1.3717650984721237	-44.0	-3.036913753249344	86.0	
0.32171763075265175	2090.0	9.974104190925397	1251.0	2046.0	-0.2464393721446652	-192.0	0.11771919068056406	9.692213366033108	-15808.0	-0.47087676272225626	-768.0	0.0	3954.437255859375	64043.0	0.7565217391304347	1249.0	-634.0	0.24848484848484848	-0.6706586826347306	-425.0	-2.1874645813368154	291.0	1.411958971918179	-44.0	-3.7347793465820693	97.0	
0.2129533382001329	2087.0	10.109697560858121	1240.0	2055.0	-0.21002650305761011	-64.0	0.03923973022685469	9.692213366033108	-15808.0	-0.47087676272225626	-768.0	0.0	3973.968505859375	64683.0	0.7543478260869565	1248.0	-625.0	0.26666666666666666	-0.6227544910179642	-449.0	-1.8993536618415847	292.0	1.0776722382296777	-23.0	-3.7528695812523067	78.0	
0.34814549821768503	2087.0	10.21670137602371	1231.0	2044.0	-0.20760454330577874	-256.0	0.15695892090741875	9.849172286940528	-16064.0	-0.4316370324954016	-704.0	0.0	3993.499755859375	65323.0	0.7630434782608696	1252.0	-630.0	0.25656565656565655	-0.6227544910179642	-449.0	-3.1396657559963406	263.0	0.921467818209629	-8.0	-3.2994018215274896	159.0	
0.17699093444755726	2091.0	10.12358020225855	1239.0	2058.0	-0.25844007176546896	64.0	-0.03923973022685469	9.809932556713672	-16000.0	-0.47087676272225626	-768.0	0.0	4013.031005859375	427.0	0.7565217391304347	1249.0	-629.0	0.2585858585858586	-0.6487025948103793	-436.0	-1.8560703940690273	222.0	1.2719542314319243	-39.0	-2.6886636306600704	76.0	
0.34888463790438	2094.0	10.20618017467904	1232.0	2044.0	-0.2920397133199488	-320.0	0.19619865113427343	9.770692826486817	-15936.0	-0.5493562231759657	-896.0	0.0	4032.562255859375	1067.0	0.7608695652173914	1251.0	-623.0	0.27070707070707073	-0.6407185628742516	-440.0	-4.08574221249643	92.0	0.40352420139105477	24.0	-0.689180600688724	222.0	
0.3724142336707049	2090.0	10.16816325895236	1235.0	2042.0	-0.24399181543521503	-320.0	0.19619865113427343	9.731453096259962	-15872.0	-0.47087676272225626	-768.0	0.0	4052.093505859375	1707.0	0.7586956521739131	1250.0	-624.0	0.2686868686868687	-0.6327345309381238	-444.0	-4.576761682913466	70.0	0.07948753990693297	47.0	-0.34966964552827984	254.0	
0.28683911056519923	2093.0	10.109650860728904	1240.0	2049.0	-0.28157726896175767	-192.0	0.11771919068056406	9.652973635806253	-15744.0	-0.510116492949111	-832.0	0.0	4071.624755859375	2347.0	0.7630434782608696	1252.0	-628.0	0.2606060606060606	-0.6706586826347306	-425.0	-3.542280945238042	135.0	0.15197893303734641	40.0	-1.3486076087985701	186.0	
0.36022492720727484	2091.0	10.156457665965721	1236.0	2043.0	-0.2562789572008001	-512.0	0.3139178418148375	9.809932556713672	-16000.0	-0.510116492949111	-832.0	0.0	4091.156005859375	2987.0	0.75	1246.0	-633.0	0.2505050505050505	-0.660678642714571	-430.0	-4.1907317503159955	147.0	-0.05046107441923203	57.0	-1.5246326064512128	228.0	
0.3246288551287094	2097.0	10.18300742370513	1234.0	2046.0	-0.32865857697069767	-64.0	0.03923973022685469	9.770692826486817	-15936.0	-0.510116492949111	-832.0	0.0	4110.687255859375	3627.0	0.7608695652173914	1251.0	-626.0	0.26464646464646463	-0.62874251497006	-446.0	-3.176157477308673	169.0	0.4470312252783688	20.0	-1.8693791096375598	162.0	
0.312564537596027	2100.0	10.159588454376982	1236.0	2047.0	-0.36515798815255895	-256.0	0.15695892090741875	9.809932556713672	-16000.0	-0.5885959534028203	-960.0	0.0	4130.218505859375	4267.0	0.7608695652173914	1251.0	-628.0	0.2606060606060606	-0.656686626746507	-432.0	-3.1695610463990054	132.0	0.5440026379686413	12.0	-1.3067074313611051	162.0	
0.3737588889951144	2098.0	10.206641477968036	1232.0	2042.0	-0.33997912886048887	-384.0	0.23543838136112813	9.731453096259962	-15872.0	-0.627835683629675	-1024.0	0.0	4149.749755859375	4907.0	0.7521739130434782	1247.0	-632.0	0.25252525252525254	-0.6327345309381238	-444.0	-3.716827234957426	112.0	0.7648276130377165	-1.0	-0.9970522599698175	198.0	
0.41106594807209956	2102.0	10.231237055583284	1230.0	2039.0	-0.3875528735779039	-384.0	0.23543838136112813	9.770692826486817	-15936.0	-0.5885959534028203	-960.0	0.0	4169.281005859375	5547.0	0.7630434782608696	1252.0	-620.0	0.2767676767676768	-0.6207584830339322	-450.0	-3.5994734699373168	125.0	0.4197409500325687	22.0	-1.195944428798726	190.0	
0.36120325085767413	2097.0	10.182268768642418	1234.0	2043.0	-0.3283002195640351	-192.0	0.11771919068056406	9.849172286940528	-16064.0	-0.5885959534028203	-960.0	0.0	4188.812255859375	6187.0	0.7521739130434782	1247.0	-621.0	0.27474747474747474	-0.6706586826347306	-425.0	-3.239011178782378	105.0	0.8622455941279867	-10.0	-0.8953665422045717	167.0	
0.4356880625217804	2101.0	10.267076922896173	1227.0	2037.0	-0.3749000609891938	-384.0	0.23543838136112813	9.809932556713672	-16000.0	-0.627835683629675	-1024.0	0.0	4208.343505859375	6827.0	0.7565217391304347	1249.0	-618.0	0.2808080808080808	-0.62874251497006	-446.0	-2.5236528966818517	59.0	1.09931444552991	-31.0	-0.20290035316245908	121.0	
0.37461654127388244	2104.0	10.220262334304488	1231.0	2042.0	-0.41212350040084256	-384.0	0.23543838136112813	9.809932556713672	-16000.0	-0.627835683629675	-1024.0	0.0	4227.874755859375	7467.0	0.7456521739130435	1244.0	-628.0	0.2606060606060606	-0.660678642714571	-430.0	-2.43678806886859	81.0	0.9117501352067208	-18.0	-0.5383697618968655	115.0	
0.39911582557237385	2102.0	10.25586376661801	1228.0	2040.0	-0.38742610769255387	-320.0	0.19619865113427343	9.849172286940528	-16064.0	-0.627835683629675	-1024.0	0.0	4247.406005859375	8107.0	0.7586956521739131	1250.0	-621.0	0.27474747474747474	-0.6487025948103793	-436.0	-2.2395241044985776	76.0	0.6101211669771183	1.0	-0.4642967741641398	102.0	
0.3866765412474484	2099.0	10.267584926314388	1227.0	2041.0	-0.3512887106255863	-320.0	0.19619865113427343	9.927651747394236	-16192.0	-0.5493562231759657	-896.0	0.0	4266.937255859375	8747.0	0.7478260869565218	1245.0	-616.0	0.28484848484848485	-0.6447105788423154	-438.0	-2.511678181571975	42.0	0.5034311538581573	8.0	0.05553503276629009	120.0	
0.3491389333249918	2100.0	10.158849799314268	1236.0	2044.0	-0.36479963074589644	-192.0	0.11771919068056406	9.770692826486817	-15936.0	-0.5885959534028203	-960.0	0.0	4286.468505859375	9387.0	0.7608695652173914	1251.0	-628.0	0.2606060606060606	-0.658682634730539	-431.0	-2.487651269176649	-58.0	1.3854501149862357	-55.0	1.5762073111708539	120.0	
0.47068293652174775	2096.0	10.167624122114667	1235.0	2034.0	-0.3153036764015875	-576.0	0.3531575720416922	9.770692826486817	-15936.0	-0.510116492949111	-832.0	0.0	4305.999755859375	10027.0	0.7478260869565218	1245.0	-621.0	0.27474747474747474	-0.6666666666666667	-427.0	-2.6976172825484177	-107.0	1.130373803615337	-39.0	2.3235541195935454	134.0	
0.5059299471627686	2096.0	10.032792757309265	1246.0	2031.0	-0.31629951994323136	-576.0	0.3531575720416922	9.613733905579398	-15680.0	-0.5493562231759657	-896.0	0.0	4325.531005859375	10667.0	0.7543478260869565	1248.0	-613.0	0.2909090909090909	-0.6267465069860281	-447.0	-2.3228589461645033	-63.0	0.9061711280176294	-24.0	1.6506050153171583	109.0	
0.6778214918400334	2098.0	10.12734454107063	1238.0	2017.0	-0.3377314722010137	-640.0	0.39239730226854685	9.731453096259962	-15872.0	-0.5885959534028203	-960.0	0.0	4345.062255859375	11307.0	0.7586956521739131	1250.0	-622.0	0.2727272727272727	-0.660678642714571	-430.0	0.052353687169085734	57.0	0.8288526347671064	-25.0	-0.19824216805039813	-47.0	
0.6538005754689505	2098.0	10.16440771679984	1235.0	2019.0	-0.3376010496074324	-832.0	0.510116492949111	9.770692826486817	-15936.0	-0.5493562231759657	-896.0	0.0	4364.593505859375	11947.0	0.7521739130434782	1247.0	-615.0	0.2868686868686869	-0.656686626746507	-432.0	4.88161051742069	109.0	1.0940864827989736	-63.0	-1.0374092610677432	-362.0	
0.12921850858291098	2104.0	10.06671349896606	1244.0	2062.0	-0.4161129690811366	0.0	0.0	9.652973635806253	-15744.0	-0.627835683629675	-1024.0	0.0	4384.124755859375	12587.0	0.7586956521739131	1250.0	-620.0	0.2767676767676768	-0.6167664670658684	-452.0	16.223991907766656	199.0	0.9741022434150837	-104.0	-2.519654367746868	-1102.0	
0.06862319648286347	2104.0	10.10451532975798	1241.0	2067.0	-0.41634090389421796	128.0	-0.07847946045370938	9.770692826486817	-15936.0	-0.7063151440833844	-1152.0	0.0	4403.656005859375	13227.0	0.7608695652173914	1251.0	-629.0	0.2585858585858586	-0.6387225548902197	-441.0	14.45784554786215	200.0	0.8727468388615603	-89.0	-2.5172020296231086	-987.0	
0.28842510863287124	2101.0	10.172509572425069	1235.0	2049.0	-0.37731836403279395	-192.0	0.11771919068056406	9.809932556713672	-16000.0	-0.5885959534028203	-960.0	0.0	4423.187255859375	13867.0	0.75	1246.0	-624.0	0.2686868686868687	-0.6706586826347306	-425.0	-3.7003416270755065	61.0	0.10296844133826394	41.0	-0.22155171680909286	197.0	
0.45850010639699235	2100.0	10.120063095105397	1239.0	2035.0	-0.3640938860572651	-448.0	0.27467811158798283	9.849172286940528	-16064.0	-0.6670754138565297	-1088.0	0.0	4442.718505859375	14507.0	0.7521739130434782	1247.0	-620.0	0.2767676767676768	-0.656686626746507	-432.0	-1.5768358401611984	51.0	0.5038114270595736	4.0	-0.09069551992538423	59.0	
0.26344098006829664	2102.0	10.100098966091444	1241.0	2051.0	-0.39034050415286026	-64.0	0.03923973022685469	9.652973635806253	-15744.0	-0.6670754138565297	-1088.0	0.0	4462.249755859375	15147.0	0.7608695652173914	1251.0	-632.0	0.25252525252525254	-0.6467065868263474	-437.0	-0.7546787365721733	15.0	0.829485753164767	-23.0	0.44861142614899174	6.0	
0.3369561032002364	2104.0	10.111288772304999	1240.0	2045.0	-0.413589840401574	-320.0	0.19619865113427343	9.731453096259962	-15872.0	-0.7063151440833844	-1152.0	0.0	4481.781005859375	15787.0	0.7521739130434782	1247.0	-625.0	0.26666666666666666	-0.658682634730539	-431.0	-1.1442374647882667	-45.0	0.8650746507523006	-26.0	1.3650545419482631	32.0	
0.2516136877197604	2103.0	10.12496411212554	1239.0	2052.0	-0.40225831838708903	-64.0	0.03923973022685469	9.731453096259962	-15872.0	-0.7063151440833844	-1152.0	0.0	4501.312255859375	16427.0	0.7521739130434782	1247.0	-629.0	0.2585858585858586	-0.6886227544910181	-416.0	-0.6314656978641027	-68.0	1.1452284227958869	-48.0	1.7097367102105805	-1.0	
0.17761587910129562	2101.0	10.065013320551005	1244.0	2058.0	-0.3795014188468504	128.0	-0.07847946045370938	9.731453096259962	-15872.0	-0.627835683629675	-1024.0	0.0	4520.843505859375	17067.0	0.7608695652173914	1251.0	-627.0	0.26262626262626265	-0.6427145708582835	-439.0	-3.5675593987318037	-127.0	1.313687008254606	-48.0	2.636436050261082	191.0	
0.3595073753161619	2094.0	10.047460753901623	1245.0	2043.0	-0.29352068015360516	-192.0	0.11771919068056406	9.731453096259962	-15872.0	-0.5493562231759657	-896.0	0.0	4540.374755859375	17707.0	0.7521739130434782	1247.0	-617.0	0.2828282828282828	-0.658682634730539	-431.0	-5.126443949368784	-141.0	1.7584958489196767	-71.0	2.8649526524214446	293.0	
0.3354821413859628	2092.0	10.108427552312586	1240.0	2045.0	-0.2690548789666289	-256.0	0.15695892090741875	9.731453096259962	-15872.0	-0.510116492949111	-832.0	0.0	4559.906005859375	18347.0	0.75	1246.0	-628.0	0.2606060606060606	-0.6407185628742516	-440.0	-2.8863188308676633	-96.0	2.3795847539338086	-121.0	2.158140754848601	147.0	
0.2746519628813274	2095.0	10.085993456401388	1242.0	2050.0	-0.3060321000240402	-128.0	0.07847946045370938	9.692213366033108	-15808.0	-0.5885959534028203	-960.0	0.0	4579.437255859375	18987.0	0.7565217391304347	1249.0	-624.0	0.2686868686868687	-0.656686626746507	-432.0	-3.013509953783288	-58.0	2.516502653048051	-128.0	1.5814658980169203	155.0	
0.3482834398257819	2095.0	10.133277131636941	1238.0	2044.0	-0.3048229485022401	-320.0	0.19619865113427343	9.770692826486817	-15936.0	-0.4316370324954016	-704.0	0.0	4598.968505859375	19627.0	0.7586956521739131	1250.0	-617.0	0.2828282828282828	-0.6487025948103793	-436.0	-3.272074890053869	-41.0	3.0096085941275814	-159.0	1.3254964142997785	172.0	
0.34901178561468593	2097.0	10.182514986996654	1234.0	2044.0	-0.32841967203292266	-320.0	0.19619865113427343	9.770692826486817	-15936.0	-0.5493562231759657	-896.0	0.0	4618.499755859375	20267.0	0.7586956521739131	1250.0	-615.0	0.2868686868686869	-0.6267465069860281	-447.0	-2.84782091950158	13.0	3.282797296270025	-177.0	0.4999610989288562	144.0	
0.4588578029527697	2098.0	10.180537456807885	1234.0	2035.0	-0.33938917993251383	-448.0	0.27467811158798283	9.849172286940528	-16064.0	-0.5885959534028203	-960.0	0.0	4638.031005859375	20907.0	0.7565217391304347	1249.0	-621.0	0.27474747474747474	-0.6447105788423154	-438.0	-2.917657840187211	2.0	3.8057035619250272	-212.0	0.6679598483638493	149.0	
0.4833657223694939	2100.0	10.1683316437579	1235.0	2033.0	-0.36336254441101506	-448.0	0.27467811158798283	9.849172286940528	-16064.0	-0.5493562231759657	-896.0	0.0	4657.562255859375	21547.0	0.7478260869565218	1245.0	-619.0	0.2787878787878788	-0.6526946107784432	-434.0	-2.400478143264891	19.0	3.600140015364916	-200.0	0.40423291831477826	115.0	
0.47081871935028646	2103.0	10.096151689068774	1241.0	2034.0	-0.4003543923013514	-384.0	0.23543838136112813	9.731453096259962	-15872.0	-0.627835683629675	-1024.0	0.0	4677.093505859375	22187.0	0.7521739130434782	1247.0	-622.0	0.2727272727272727	-0.658682634730539	-431.0	-2.6799581086226993	27.0	3.399571184884022	-185.0	0.2853547141660749	133.0	
0.44461708317160825	2099.0	9.961597676037089	1252.0	2036.0	-0.3537691777091177	-448.0	0.27467811158798283	9.613733905579398	-15680.0	-0.627835683629675	-1024.0	0.0	4696.624755859375	22827.0	0.7630434782608696	1252.0	-623.0	0.27070707070707073	-0.6427145708582835	-439.0	-3.4839151972259517	29.0	2.8420506746156677	-144.0	0.2629760341015371	185.0	
0.4557052358334496	2091.0	9.947253731347663	1253.0	2035.0	-0.25741619346071887	-448.0	0.27467811158798283	9.574494175352545	-15616.0	-0.510116492949111	-832.0	0.0	4716.156005859375	23467.0	0.75	1246.0	-615.0	0.2868686868686869	-0.6447105788423154	-438.0	-3.9876388401276066	29.0	3.116989900131638	-160.0	0.2680132705305536	218.0	
0.44253544694006197	2085.0	9.921688847025205	1255.0	2036.0	-0.1855143835663713	-320.0	0.19619865113427343	9.53525444512569	-15552.0	-0.4316370324954016	-704.0	0.0	4735.687255859375	24107.0	0.7565217391304347	1249.0	-614.0	0.28888888888888886	-0.6267465069860281	-447.0	-2.972078684437024	97.0	2.877780682114586	-146.0	-0.7763628633457438	151.0	
0.3940174050500461	2088.0	9.911198779100014	1256.0	2040.0	-0.22224904297777642	-320.0	0.19619865113427343	9.53525444512569	-15552.0	-0.47087676272225626	-768.0	0.0	4755.218505859375	24747.0	0.7586956521739131	1250.0	-619.0	0.2787878787878788	-0.6546906187624751	-433.0	-2.609645560869714	145.0	3.0166893913599826	-155.0	-1.5100252173951054	127.0	
0.417921967608614	2090.0	9.83804173434881	1262.0	2038.0	-0.24683795334187147	-256.0	0.15695892090741875	9.417535254445125	-15360.0	-0.5493562231759657	-896.0	0.0	4774.749755859375	25387.0	0.7456521739130435	1244.0	-625.0	0.26666666666666666	-0.658682634730539	-431.0	-3.7946224475410264	87.0	3.348736182784037	-174.0	-0.6160461709618521	205.0	
0.5648207486030712	2089.0	9.907990157140057	1256.0	2026.0	-0.23262128853293007	-704.0	0.4316370324954016	9.45677498467198	-15424.0	-0.510116492949111	-832.0	0.0	4794.281005859375	26027.0	0.7565217391304347	1249.0	-614.0	0.28888888888888886	-0.6387225548902197	-441.0	-5.480207437063335	45.0	2.9757339510644063	-143.0	0.03959294889534817	315.0	
0.6383272366167779	2087.0	9.96698720871712	1251.0	2020.0	-0.20719986759485368	-832.0	0.510116492949111	9.574494175352545	-15616.0	-0.47087676272225626	-768.0	0.0	4813.812255859375	26667.0	0.7608695652173914	1251.0	-617.0	0.2828282828282828	-0.660678642714571	-430.0	-5.274317494614453	86.0	2.701489405635039	-124.0	-0.5860400950158327	301.0	
0.5896820470164562	2087.0	9.980162328474313	1250.0	2024.0	-0.207554568293285	-704.0	0.4316370324954016	9.652973635806253	-15744.0	-0.510116492949111	-832.0	0.0	4833.343505859375	27307.0	0.75	1246.0	-612.0	0.29292929292929293	-0.6227544910179642	-449.0	-5.661720355772006	103.0	2.588869812613539	-114.0	-0.8407211994841051	326.0	
0.6384457492088511	2086.0	9.99112926639824	1249.0	2020.0	-0.1949090691210374	-640.0	0.39239730226854685	9.53525444512569	-15552.0	-0.47087676272225626	-768.0	0.0	4852.874755859375	27947.0	0.7673913043478261	1254.0	-612.0	0.29292929292929293	-0.6327345309381238	-444.0	-7.298384386650059	39.0	2.169093644257766	-81.0	0.14902947124292645	433.0	
0.6391654598795222	2084.0	10.08817436712146	1241.0	2020.0	-0.1698350354649298	-704.0	0.4316370324954016	9.692213366033108	-15808.0	-0.4316370324954016	-704.0	0.0	4872.406005859375	28587.0	0.7608695652173914	1251.0	-617.0	0.2828282828282828	-0.6307385229540919	-445.0	-7.483069436683358	-10.0	1.372527642905976	-29.0	0.8961234700322329	445.0	
0.7003727639559588	2088.0	10.063516522667255	1243.0	2015.0	-0.21766231195304486	-896.0	0.5493562231759657	9.731453096259962	-15872.0	-0.4316370324954016	-704.0	0.0	4891.937255859375	29227.0	0.7478260869565218	1245.0	-619.0	0.2787878787878788	-0.6427145708582835	-439.0	-8.214572448427578	21.0	0.8276069144395639	12.0	0.43195561041583475	492.0	
0.7003727639559588	2088.0	10.063516522667255	1243.0	2015.0	-0.21766231195304486	-832.0	0.510116492949111	9.692213366033108	-15808.0	-0.4316370324954016	-704.0	0.0	4911.468505859375	29867.0	0.7630434782608696	1252.0	-604.0	0.3090909090909091	-0.6427145708582835	-439.0	-8.205732973741254	45.0	0.5417423724951509	32.0	0.06684820426212736	491.0	
0.7002542513638857	2089.0	10.039374464986134	1245.0	2015.0	-0.22995311042686112	-768.0	0.47087676272225626	9.692213366033108	-15808.0	-0.4316370324954016	-704.0	0.0	4930.999755859375	30507.0	0.7608695652173914	1251.0	-607.0	0.30303030303030304	-0.6706586826347306	-425.0	-7.314291329616697	94.0	-0.12017723742564856	74.0	-0.6873133604680917	432.0	
0.7019479681258398	2091.0	10.186134291067805	1233.0	2015.0	-0.2525649605405936	-960.0	0.5885959534028203	9.731453096259962	-15872.0	-0.47087676272225626	-768.0	0.0	4950.531005859375	31147.0	0.7521739130434782	1247.0	-614.0	0.28888888888888886	-0.656686626746507	-432.0	-6.405691544158049	149.0	-0.5097757964029656	98.0	-1.5329012594633624	372.0	
0.5927204191028197	2097.0	10.16540037357166	1235.0	2024.0	-0.32615373183229124	-768.0	0.47087676272225626	9.770692826486817	-15936.0	-0.5885959534028203	-960.0	0.0	4970.062255859375	31787.0	0.7521739130434782	1247.0	-606.0	0.30505050505050507	-0.6267465069860281	-447.0	-4.0805021199242075	177.0	-0.8494773085229587	111.0	-1.9820086670136856	220.0	
0.6422146258636767	2099.0	10.213653355514424	1231.0	2020.0	-0.34927264548742365	-768.0	0.47087676272225626	9.770692826486817	-15936.0	-0.5493562231759657	-896.0	0.0	4989.593505859375	32427.0	0.7543478260869565	1248.0	-604.0	0.3090909090909091	-0.656686626746507	-432.0	-4.908333204980462	194.0	-0.4966604884654569	92.0	-2.232285489242971	274.0	
0.994553927855349	2096.0	10.120465993861721	1238.0	1991.0	-0.310536547770781	-1472.0	0.9025137952176578	9.731453096259962	-15872.0	-0.510116492949111	-832.0	0.0	5009.124755859375	33067.0	0.7478260869565218	1245.0	-601.0	0.3151515151515151	-0.6307385229540919	-445.0	-3.5932952706541665	158.0	0.004604384294185748	51.0	-1.697907351475968	189.0	
0.48227536246569613	2098.0	10.082523049377453	1242.0	2033.0	-0.34013514841168885	-512.0	0.3139178418148375	9.770692826486817	-15936.0	-0.5885959534028203	-960.0	0.0	5028.656005859375	33707.0	0.7369565217391304	1240.0	-602.0	0.31313131313131315	-0.6766467065868265	-422.0	3.8477079832246615	263.0	-0.19453855146144214	34.0	-3.3692755589196994	-297.0	
0.531179165045746	2106.0	9.998113931573734	1249.0	2029.0	-0.43687574373260024	-576.0	0.3531575720416922	9.652973635806253	-15744.0	-0.6670754138565297	-1088.0	0.0	5048.187255859375	34347.0	0.7586956521739131	1250.0	-601.0	0.3151515151515151	-0.660678642714571	-430.0	-3.050367744914417	256.0	0.5361815278020989	17.0	-3.1938309233113125	153.0	
0.9828645771149096	2105.0	10.061906895509045	1243.0	1992.0	-0.4196727672014711	-1280.0	0.7847946045370937	9.574494175352545	-15616.0	-0.627835683629675	-1024.0	0.0	5067.718505859375	34987.0	0.7478260869565218	1245.0	-596.0	0.32525252525252524	-0.62874251497006	-446.0	-11.893806440710009	182.0	0.6269057296825982	49.0	-1.9799212511822535	730.0	
0.7873162889610144	2104.0	10.029037215156745	1246.0	2008.0	-0.4099087541154487	-1024.0	0.627835683629675	9.613733905579398	-15680.0	-0.6670754138565297	-1088.0	0.0	5087.249755859375	35627.0	0.7586956521739131	1250.0	-597.0	0.3232323232323232	-0.6327345309381238	-444.0	-9.58038108755428	166.0	-0.02360263514125327	81.0	-1.7597094971092482	579.0	
0.8240091972820521	2103.0	10.052440617775153	1244.0	2005.0	-0.3972595982349699	-1088.0	0.6670754138565297	9.692213366033108	-15808.0	-0.6670754138565297	-1088.0	0.0	5106.781005859375	36267.0	0.7521739130434782	1247.0	-597.0	0.3232323232323232	-0.658682634730539	-431.0	-7.632844343300592	176.0	-0.03312751236618827	73.0	-1.9312761193046368	452.0	
0.9850345030247141	2104.0	10.293283140974323	1224.0	1992.0	-0.4052891127166359	-1280.0	0.7847946045370937	9.927651747394236	-16192.0	-0.7063151440833844	-1152.0	0.0	5126.312255859375	36907.0	0.7434782608695653	1243.0	-588.0	0.3414141414141414	-0.6387225548902197	-441.0	-9.687199480628388	151.0	-0.19021109149785165	92.0	-1.5305044310492293	586.0	
0.8511848395520132	2111.0	10.236709356165287	1229.0	2003.0	-0.4915306965970437	-1024.0	0.627835683629675	9.809932556713672	-16000.0	-0.745554874310239	-1216.0	0.0	5145.843505859375	37547.0	0.7434782608695653	1243.0	-594.0	0.3292929292929293	-0.6546906187624751	-433.0	-7.3550045418086	232.0	-0.5581268564179258	109.0	-2.7857655439355264	433.0	
0.8276466086674555	2111.0	10.322533517255474	1222.0	2005.0	-0.4909078372949874	-1024.0	0.627835683629675	9.888412017167381	-16128.0	-0.7063151440833844	-1152.0	0.0	5165.374755859375	38187.0	0.75	1246.0	-596.0	0.32525252525252524	-0.6686626746506987	-426.0	-6.810963494180257	208.0	-0.23578028008598384	84.0	-2.4261869430049656	398.0	
0.9984391583226896	2107.0	10.3790839519999	1217.0	1991.0	-0.44044163636665334	-1280.0	0.7847946045370937	9.888412017167381	-16128.0	-0.6670754138565297	-1088.0	0.0	5184.906005859375	38827.0	0.7543478260869565	1248.0	-585.0	0.3474747474747475	-0.6347305389221558	-443.0	-7.660323298231796	112.0	-0.68484299199287	114.0	-0.9576172993370737	454.0	
1.0088205529912089	2107.0	10.195984038541996	1232.0	1990.0	-0.4421688215545473	-1408.0	0.8632740649908032	9.849172286940528	-16064.0	-0.6670754138565297	-1088.0	0.0	5204.437255859375	39467.0	0.741304347826087	1242.0	-591.0	0.33535353535353535	-0.6726546906187626	-424.0	-7.297756026140903	156.0	-0.5933545908051384	108.0	-1.6304444929705304	430.0	
1.0342852082627503	2105.0	10.329107441577474	1221.0	1988.0	-0.41648655542930846	-1472.0	0.9025137952176578	9.888412017167381	-16128.0	-0.627835683629675	-1024.0	0.0	5223.968505859375	40107.0	0.7347826086956522	1239.0	-593.0	0.33131313131313134	-0.6706586826347306	-425.0	-5.629455497842025	198.0	-0.4140519093099946	90.0	-2.2859107682154964	321.0	
0.9860149854546716	2111.0	10.307142432310142	1223.0	1992.0	-0.48947806437656854	-1344.0	0.8240343347639485	9.966891477621092	-16256.0	-0.8240343347639485	-1344.0	0.0	5243.499755859375	40747.0	0.7456521739130435	1244.0	-585.0	0.3474747474747475	-0.6327345309381238	-444.0	-4.059686139293746	261.0	-0.5599433792078656	95.0	-3.2597833667439446	218.0	
1.011973120110529	2114.0	10.429267764002216	1213.0	1990.0	-0.5241418080263422	-1344.0	0.8240343347639485	10.123850398528509	-16512.0	-0.7847946045370937	-1280.0	0.0	5263.031005859375	41387.0	0.7521739130434782	1247.0	-585.0	0.3474747474747475	-0.6327345309381238	-444.0	-1.4296484808582286	203.0	-0.8832266975745209	102.0	-2.4039544657617604	47.0	
0.9135988573447624	2115.0	10.333953975113527	1221.0	1998.0	-0.5381268813139711	-1344.0	0.8240343347639485	9.966891477621092	-16256.0	-0.7847946045370937	-1280.0	0.0	5282.562255859375	42027.0	0.7478260869565218	1245.0	-587.0	0.3434343434343434	-0.6746506986027945	-423.0	-1.2740577444032215	96.0	-0.7642483211403728	89.0	-0.7781339472707969	38.0	
0.9606688427752031	2112.0	10.198161086955785	1232.0	1994.0	-0.5028695320279911	-1280.0	0.7847946045370937	9.849172286940528	-16064.0	-0.8240343347639485	-1344.0	0.0	5302.093505859375	42667.0	0.7369565217391304	1240.0	-589.0	0.3393939393939394	-0.6866267465069861	-417.0	-3.944114729240982	-23.0	-0.9956353784649188	112.0	1.0584525541365164	213.0	
1.1299012997174638	2112.0	10.048431073913525	1244.0	1980.0	-0.5026745075889911	-1536.0	0.9417535254445125	9.652973635806253	-15744.0	-0.745554874310239	-1216.0	0.0	5321.624755859375	43307.0	0.741304347826087	1242.0	-589.0	0.3393939393939394	-0.656686626746507	-432.0	-4.787313053019289	-52.0	-1.3443964581325536	138.0	1.5079491761575696	268.0	
1.1540364111215031	2109.0	10.059413578547192	1243.0	1978.0	-0.4661787531153611	-1664.0	1.020232985898222	9.613733905579398	-15680.0	-0.7063151440833844	-1152.0	0.0	5341.156005859375	43947.0	0.7369565217391304	1240.0	-585.0	0.3474747474747475	-0.660678642714571	-430.0	-2.2373650522157438	39.0	-1.2716090735328052	125.0	0.0984192778985833	101.0	
0.9944677969566491	2112.0	9.917046766067447	1255.0	1991.0	-0.50534268569506	-1344.0	0.8240343347639485	9.53525444512569	-15552.0	-0.7847946045370937	-1280.0	0.0	5360.687255859375	44587.0	0.7456521739130435	1244.0	-577.0	0.36363636363636365	-0.6367265469061877	-442.0	-3.013120495405862	60.0	-1.7895484754644448	164.0	-0.21321480265050413	151.0	
1.056515483075388	2114.0	10.001624268676707	1248.0	1986.0	-0.5279728193499488	-1472.0	0.9025137952176578	9.613733905579398	-15680.0	-0.8240343347639485	-1344.0	0.0	5380.218505859375	45227.0	0.7456521739130435	1244.0	-591.0	0.33535353535353535	-0.660678642714571	-430.0	-4.127859077562227	39.0	-1.5448282905680901	152.0	0.11732421815204812	224.0	
0.9840928786268043	2115.0	10.064291245502723	1243.0	1992.0	-0.5401185683972587	-1280.0	0.7847946045370937	9.731453096259962	-15872.0	-0.7847946045370937	-1280.0	0.0	5399.749755859375	45867.0	0.7391304347826088	1241.0	-574.0	0.3696969696969697	-0.6546906187624751	-433.0	-3.5117781415969653	53.0	-1.1144227972532088	121.0	-0.1017643478615969	184.0	
0.8863241314987522	2117.0	10.01797687697438	1247.0	2000.0	-0.5656557850959913	-1088.0	0.6670754138565297	9.692213366033108	-15808.0	-0.8240343347639485	-1344.0	0.0	5419.281005859375	46507.0	0.741304347826087	1242.0	-574.0	0.3696969696969697	-0.6207584830339322	-450.0	-4.477578280389131	-14.0	-0.48826341394200073	81.0	0.9269050603704313	248.0	
1.0215206090754207	2119.0	10.101077069458215	1240.0	1989.0	-0.587569203937555	-1408.0	0.8632740649908032	9.731453096259962	-15872.0	-0.7847946045370937	-1280.0	0.0	5438.812255859375	47147.0	0.741304347826087	1242.0	-582.0	0.35353535353535354	-0.658682634730539	-431.0	-5.920937792473264	-147.0	0.4908021004505977	17.0	2.9641523437042006	344.0	
1.105889018464614	2116.0	10.037687004279226	1245.0	1982.0	-0.5512148421822	-1408.0	0.8632740649908032	9.731453096259962	-15872.0	-0.8240343347639485	-1344.0	0.0	5458.343505859375	47787.0	0.7326086956521739	1238.0	-584.0	0.34949494949494947	-0.6686626746506987	-426.0	-6.3915307943505075	-170.0	0.6594880154252509	7.0	3.3186681596545315	375.0	
1.1297871046845072	2115.0	10.00038539355065	1248.0	1980.0	-0.5393006846562025	-1472.0	0.9025137952176578	9.613733905579398	-15680.0	-0.7847946045370937	-1280.0	0.0	5477.874755859375	48427.0	0.7391304347826088	1241.0	-577.0	0.36363636363636365	-0.6267465069860281	-447.0	-6.196136018934973	-155.0	0.4751039693639895	19.0	3.0885773297710992	362.0	
1.1052727089291083	2110.0	10.048446640623265	1244.0	1982.0	-0.4788242522876086	-1536.0	0.9417535254445125	9.613733905579398	-15680.0	-0.745554874310239	-1216.0	0.0	5497.406005859375	49067.0	0.7434782608695653	1243.0	-580.0	0.3575757575757576	-0.6427145708582835	-439.0	-4.702456281168079	-93.0	0.378877483297869	21.0	2.1306747529257493	264.0	
2.0192662704792177	2108.0	10.01731314771647	1245.0	1907.0	-0.44589926605900676	-2816.0	1.7265481299816063	9.574494175352545	-15616.0	-0.7063151440833844	-1152.0	0.0	5516.937255859375	49707.0	0.7369565217391304	1240.0	-576.0	0.3656565656565657	-0.6626746506986029	-429.0	3.9767748480438754	-118.0	0.7790841261019954	-47.0	2.4241105785157595	-301.0	
1.2041490861974238	2118.0	10.08495511280504	1241.0	1974.0	-0.5738559459617824	-1856.0	1.137952176578786	9.652973635806253	-15744.0	-0.8240343347639485	-1344.0	0.0	5536.468505859375	50347.0	0.7543478260869565	1248.0	-575.0	0.36767676767676766	-0.6227544910179642	-449.0	34.55110571987792	117.0	1.4627421440564432	-225.0	-1.4557772168945966	-2295.0	
0.7763423313321297	2109.0	10.091426840209044	1241.0	2009.0	-0.4696355612966363	-832.0	0.510116492949111	9.692213366033108	-15808.0	-0.745554874310239	-1216.0	0.0	5555.999755859375	50987.0	0.75	1246.0	-588.0	0.3414141414141414	-0.6327345309381238	-444.0	37.03751182848709	83.0	0.9541612895402118	-204.0	-0.9635310118209927	-2457.0	
0.6534666254883135	2111.0	9.972463430347709	1251.0	2019.0	-0.4961503379958564	-768.0	0.47087676272225626	9.613733905579398	-15680.0	-0.8240343347639485	-1344.0	0.0	5575.531005859375	51627.0	0.741304347826087	1242.0	-588.0	0.3414141414141414	-0.6447105788423154	-438.0	27.751405521758706	73.0	0.7248254209070895	-146.0	-0.7185786940008569	-1852.0	
0.4330484038028002	2108.0	9.915228824024657	1256.0	2037.0	-0.4627822879626891	-384.0	0.23543838136112813	9.53525444512569	-15552.0	-0.6670754138565297	-1088.0	0.0	5595.062255859375	52267.0	0.7326086956521739	1238.0	-602.0	0.31313131313131315	-0.7025948103792417	-409.0	12.517412637558344	53.0	-0.49092404069980977	5.0	-0.26205625565315	-860.0	
0.7512332138368073	2108.0	10.030729610216927	1246.0	2011.0	-0.4584454320004263	-896.0	0.5493562231759657	9.613733905579398	-15680.0	-0.7063151440833844	-1152.0	0.0	5614.593505859375	52907.0	0.75	1246.0	-595.0	0.32727272727272727	-0.660678642714571	-430.0	-2.2866258273567928	89.0	-0.8329646714330176	98.0	-0.6615443881142649	104.0	
1.0087149930764852	2114.0	10.100131112815614	1240.0	1990.0	-0.5274657558085487	-1216.0	0.745554874310239	9.770692826486817	-15936.0	-0.7847946045370937	-1280.0	0.0	5634.124755859375	53547.0	0.7434782608695653	1243.0	-589.0	0.3393939393939394	-0.6546906187624751	-433.0	-5.028064291088092	186.0	-0.31328408004694575	80.0	-2.1094151745796137	282.0	
0.948496806548239	2121.0	10.090841003242131	1241.0	1995.0	-0.6124981881671564	-1280.0	0.7847946045370937	9.770692826486817	-15936.0	-0.8240343347639485	-1344.0	0.0	5653.656005859375	54187.0	0.75	1246.0	-594.0	0.3292929292929293	-0.6167664670658684	-452.0	0.5535332266066653	220.0	-0.29127375918083875	54.0	-2.6823414159162566	-82.0	
0.8992374661919698	2116.0	10.102823948002488	1240.0	1999.0	-0.5526299882676938	-1216.0	0.745554874310239	9.731453096259962	-15872.0	-0.7847946045370937	-1280.0	0.0	5673.187255859375	54827.0	0.75	1246.0	-596.0	0.32525252525252524	-0.6526946107784432	-434.0	10.62632509419496	131.0	0.36281079246683856	-40.0	-1.4294571672917598	-737.0	
0.5682513577181434	2113.0	9.962473582485861	1252.0	2026.0	-0.5211987746943453	-704.0	0.4316370324954016	9.574494175352545	-15616.0	-0.7847946045370937	-1280.0	0.0	5692.718505859375	55467.0	0.7456521739130435	1244.0	-592.0	0.3333333333333333	-0.6546906187624751	-433.0	17.159849913137975	61.0	0.3752370411738879	-74.0	-0.43015363221122765	-1162.0	
0.47023479150815406	2112.0	9.92763415529966	1255.0	2034.0	-0.5104791418572229	-576.0	0.3531575720416922	9.613733905579398	-15680.0	-0.8240343347639485	-1344.0	0.0	5712.249755859375	56107.0	0.75	1246.0	-597.0	0.3232323232323232	-0.6267465069860281	-447.0	15.667963801771528	60.0	0.04368134081032915	-45.0	-0.40002564562227805	-1065.0	
0.5070440536417067	2109.0	9.987131426940067	1250.0	2031.0	-0.4733714982062303	-384.0	0.23543838136112813	9.692213366033108	-15808.0	-0.7063151440833844	-1152.0	0.0	5731.781005859375	56747.0	0.7521739130434782	1247.0	-601.0	0.3151515151515151	-0.6307385229540919	-445.0	10.154727571002995	81.0	0.020388142923532415	-17.0	-0.6642849182955813	-706.0	
0.6045779343651709	2110.0	9.97320986876529	1251.0	2023.0	-0.48458356775182765	-576.0	0.3531575720416922	9.613733905579398	-15680.0	-0.7063151440833844	-1152.0	0.0	5751.312255859375	57387.0	0.7478260869565218	1245.0	-603.0	0.3111111111111111	-0.6886227544910181	-416.0	6.010039283532215	92.0	0.10565541046686111	-3.0	-0.7901384156490106	-436.0	
0.5683655527511	2110.0	10.010519262848737	1248.0	2026.0	-0.48457259762713395	-576.0	0.3531575720416922	9.731453096259962	-15872.0	-0.7847946045370937	-1280.0	0.0	5770.843505859375	58027.0	0.7565217391304347	1249.0	-605.0	0.30707070707070705	-0.6367265469061877	-442.0	4.708334064700219	128.0	0.9377954142920235	-51.0	-1.3246498805709566	-351.0	
0.5442304413470607	2113.0	9.99953675821507	1249.0	2028.0	-0.521068352100764	-640.0	0.39239730226854685	9.613733905579398	-15680.0	-0.745554874310239	-1216.0	0.0	5790.374755859375	58667.0	0.7543478260869565	1248.0	-603.0	0.3111111111111111	-0.658682634730539	-431.0	4.805840079809059	113.0	1.251718602814048	-73.0	-1.0974880585927673	-357.0	
0.4102428362662629	2112.0	10.026387217792804	1247.0	2039.0	-0.5100915307847104	-256.0	0.15695892090741875	9.613733905579398	-15680.0	-0.745554874310239	-1216.0	0.0	5809.906005859375	59307.0	0.75	1246.0	-597.0	0.3232323232323232	-0.6367265469061877	-442.0	3.582129961308453	101.0	1.4795134843148126	-83.0	-0.9027414517043393	-277.0	
0.4718121544575932	2116.0	10.038300112359332	1246.0	2034.0	-0.5575494797414691	-384.0	0.23543838136112813	9.692213366033108	-15808.0	-0.8240343347639485	-1344.0	0.0	5829.437255859375	59947.0	0.7565217391304347	1249.0	-608.0	0.301010101010101	-0.6327345309381238	-444.0	-2.6192310080793813	69.0	0.9021552797995291	-17.0	-0.3540358268013355	127.0	
0.7274687516658946	2115.0	10.008510599240488	1248.0	2013.0	-0.5432426161294902	-896.0	0.5493562231759657	9.613733905579398	-15680.0	-0.7847946045370937	-1280.0	0.0	5848.968505859375	60587.0	0.75	1246.0	-602.0	0.31313131313131315	-0.6526946107784432	-434.0	-8.95370474557019	31.0	0.7352091350295447	22.0	0.2872556786344092	540.0	
0.7280742673036091	2116.0	10.057510019600834	1244.0	2013.0	-0.5547947595405939	-896.0	0.5493562231759657	9.692213366033108	-15808.0	-0.7847946045370937	-1280.0	0.0	5868.499755859375	61227.0	0.75	1246.0	-595.0	0.32727272727272727	-0.656686626746507	-432.0	-8.674603739880398	41.0	1.1716424676674273	-8.0	0.1323734138246595	522.0	
0.7408712481843119	2117.0	10.106263221606943	1240.0	2012.0	-0.5662274504828102	-896.0	0.5493562231759657	9.692213366033108	-15808.0	-0.8632740649908032	-1408.0	0.0	5888.031005859375	61867.0	0.7521739130434782	1247.0	-600.0	0.31717171717171716	-0.62874251497006	-446.0	-6.8656090628397655	74.0	1.4706100849721757	-35.0	-0.38761767363015753	404.0	
0.7298886554371944	2118.0	10.216460092022748	1231.0	2013.0	-0.5772835004772076	-1024.0	0.627835683629675	9.809932556713672	-16000.0	-0.8240343347639485	-1344.0	0.0	5907.562255859375	62507.0	0.7478260869565218	1245.0	-601.0	0.3151515151515151	-0.656686626746507	-432.0	-6.231958778381272	108.0	0.8924697971395928	2.0	-0.9110644426344383	362.0	
0.7907317866191791	2121.0	10.167183319888686	1235.0	2008.0	-0.6133124151999814	-960.0	0.5885959534028203	9.809932556713672	-16000.0	-0.8632740649908032	-1408.0	0.0	5927.093505859375	63147.0	0.75	1246.0	-603.0	0.3111111111111111	-0.6387225548902197	-441.0	-3.3802381360886202	193.0	0.3558959696007195	28.0	-2.2323573144566042	175.0	
0.6583129093695876	2120.0	10.352506981889599	1220.0	2019.0	-0.6007351745813838	-768.0	0.47087676272225626	9.966891477621092	-16256.0	-0.8632740649908032	-1408.0	0.0	5946.624755859375	63787.0	0.7456521739130435	1244.0	-596.0	0.32525252525252524	-0.6746506986027945	-423.0	2.6753315020972144	171.0	0.8805645322447943	-36.0	-1.9583122503821893	-219.0	
0.47580726239877397	2122.0	10.368867373542141	1219.0	2034.0	-0.6264930126767352	-576.0	0.3531575720416922	10.006131207847945	-16320.0	-0.9417535254445125	-1536.0	0.0	5966.156005859375	64427.0	0.7434782608695653	1243.0	-596.0	0.32525252525252524	-0.6646706586826349	-428.0	9.031773756491019	243.0	0.6918534851815699	-50.0	-3.1169337071466594	-634.0	
0.46398212882979595	2124.0	10.38178070823536	1218.0	2035.0	-0.6505785162076615	-512.0	0.3139178418148375	9.966891477621092	-16256.0	-0.9025137952176578	-1472.0	0.0	5985.687255859375	65067.0	0.75	1246.0	-606.0	0.30505050505050507	-0.6447105788423154	-438.0	9.19108781389204	269.0	1.671095460908941	-115.0	-3.513964110078084	-644.0	
0.4520363238891866	2126.0	10.382503796588331	1218.0	2036.0	-0.6747871289157065	-448.0	0.27467811158798283	10.006131207847945	-16320.0	-0.9025137952176578	-1472.0	0.0	6005.218505859375	171.0	0.75	1246.0	-606.0	0.30505050505050507	-0.6267465069860281	-447.0	8.12714329365153	207.0	1.7673973833314773	-119.0	-2.5603588854079984	-574.0	
0.427899053705589	2128.0	10.383473103295543	1218.0	2038.0	-0.699115194092639	-448.0	0.27467811158798283	10.0453709380748	-16384.0	-1.0594727161250765	-1728.0	0.0	6024.749755859375	811.0	0.7456521739130435	1244.0	-613.0	0.2909090909090909	-0.6546906187624751	-433.0	6.259532534803517	121.0	2.474748857933607	-161.0	-1.2336979869449933	-451.0	
0.41509775526576986	2125.0	10.358623523971188	1220.0	2039.0	-0.6633471245570278	-384.0	0.23543838136112813	9.966891477621092	-16256.0	-0.9025137952176578	-1472.0	0.0	6044.281005859375	1451.0	0.7521739130434782	1247.0	-600.0	0.31717171717171716	-0.6467065868263474	-437.0	4.58863846502125	5.0	2.4455102242445	-156.0	0.5472695088859092	-341.0	
0.34024661192765343	2119.0	10.26114825337845	1228.0	2045.0	-0.5927812320698304	-192.0	0.11771919068056406	9.809932556713672	-16000.0	-0.8240343347639485	-1344.0	0.0	6063.812255859375	2091.0	0.7478260869565218	1245.0	-606.0	0.30505050505050507	-0.6726546906187626	-424.0	1.7275622584877035	-59.0	2.36582570703249	-140.0	1.5492643013694958	-154.0	
0.6928337330012629	2119.0	10.156485950383606	1236.0	2016.0	-0.5903019838890426	-768.0	0.47087676272225626	9.849172286940528	-16064.0	-0.9025137952176578	-1472.0	0.0	6083.343505859375	2731.0	0.7543478260869565	1248.0	-607.0	0.30303030303030304	-0.6746506986027945	-423.0	-4.770634528143715	-125.0	2.283195488439128	-107.0	2.6180485506046316	270.0	
0.6204132873322372	2121.0	10.207201115868745	1232.0	2022.0	-0.6146154222330502	-768.0	0.47087676272225626	9.849172286940528	-16064.0	-0.8632740649908032	-1408.0	0.0	6102.874755859375	3371.0	0.7543478260869565	1248.0	-596.0	0.32525252525252524	-0.6267465069860281	-447.0	-1.516225986631019	-32.0	2.2332066307029126	-115.0	1.1710557959879833	57.0	
0.5090007009425053	2121.0	10.038753632293458	1246.0	2031.0	-0.6174140229327004	-512.0	0.3139178418148375	9.574494175352545	-15616.0	-0.8632740649908032	-1408.0	0.0	6122.406005859375	4011.0	0.7521739130434782	1247.0	-599.0	0.3191919191919192	-0.6626746506986029	-429.0	-2.1432877976013702	-43.0	2.28515062128545	-116.0	1.3446267943258237	98.0	
0.5450880936258287	2119.0	10.013157614551522	1248.0	2028.0	-0.5932127236411179	-512.0	0.3139178418148375	9.652973635806253	-15744.0	-0.7847946045370937	-1280.0	0.0	6141.937255859375	4651.0	0.7478260869565218	1245.0	-593.0	0.33131313131313134	-0.658682634730539	-431.0	-3.336930996051485	-57.0	2.4196810926239216	-120.0	1.5694909829643173	176.0	
0.5447260795109349	2119.0	9.976586875530788	1251.0	2028.0	-0.5935820511724741	-512.0	0.3139178418148375	9.574494175352545	-15616.0	-0.8240343347639485	-1344.0	0.0	6161.468505859375	5291.0	0.7478260869565218	1245.0	-594.0	0.3292929292929293	-0.6267465069860281	-447.0	-4.17717340890103	-58.0	2.7923961782498834	-141.0	1.5931025325680979	231.0	
0.6543329128853144	2121.0	9.938277041320653	1254.0	2019.0	-0.6169654667230003	-576.0	0.3531575720416922	9.574494175352545	-15616.0	-0.7847946045370937	-1280.0	0.0	6180.999755859375	5931.0	0.7565217391304347	1249.0	-599.0	0.3191919191919192	-0.658682634730539	-431.0	-4.720035452991135	-101.0	3.103869755663583	-161.0	2.2525235484462613	267.0	
0.6043495442992577	2116.0	9.877118508039542	1259.0	2023.0	-0.5578359218862503	-768.0	0.47087676272225626	9.574494175352545	-15616.0	-0.7847946045370937	-1280.0	0.0	6200.531005859375	6571.0	0.741304347826087	1242.0	-609.0	0.298989898989899	-0.6766467065868265	-422.0	-5.371024999112766	-149.0	3.2699021446423604	-171.0	2.9890714667211657	310.0	
0.7617439149951909	2112.0	9.81201269773576	1264.0	2010.0	-0.5087202651979914	-896.0	0.5493562231759657	9.53525444512569	-15552.0	-0.745554874310239	-1216.0	0.0	6220.062255859375	7211.0	0.7565217391304347	1249.0	-599.0	0.3191919191919192	-0.6307385229540919	-445.0	-7.264365334508593	-149.0	2.7120234595721167	-125.0	3.008004870075124	433.0	
0.835371074380529	2110.0	9.883199995653065	1258.0	2004.0	-0.4831757350827963	-1024.0	0.627835683629675	9.417535254445125	-15360.0	-0.7063151440833844	-1152.0	0.0	6239.593505859375	7851.0	0.75	1246.0	-600.0	0.31717171717171716	-0.6247504990019961	-448.0	-6.871388602082008	-34.0	2.319851647485886	-96.0	1.2550256730930636	406.0	
0.7388133585279059	2114.0	9.934884467845416	1254.0	2012.0	-0.5318172386037365	-896.0	0.5493562231759657	9.574494175352545	-15616.0	-0.745554874310239	-1216.0	0.0	6259.124755859375	8491.0	0.7478260869565218	1245.0	-596.0	0.32525252525252524	-0.656686626746507	-432.0	-5.037386363595906	106.0	2.142443660615717	-87.0	-0.8925919158317216	285.0	
0.581539659203604	2118.0	10.012180524489441	1248.0	2025.0	-0.5808097861148765	-640.0	0.39239730226854685	9.574494175352545	-15616.0	-0.7847946045370937	-1280.0	0.0	6278.656005859375	9131.0	0.7565217391304347	1249.0	-595.0	0.32727272727272727	-0.62874251497006	-446.0	-5.610891065002051	71.0	2.580856917115711	-115.0	-0.3545374771826792	323.0	
0.6793148826703308	2119.0	10.022639458995155	1247.0	2017.0	-0.5917756373062365	-832.0	0.510116492949111	9.652973635806253	-15744.0	-0.8632740649908032	-1408.0	0.0	6298.187255859375	9771.0	0.7586956521739131	1250.0	-597.0	0.3232323232323232	-0.6546906187624751	-433.0	-6.998441533369647	-61.0	3.0169163521521165	-143.0	1.6669425902386394	415.0	
0.6917390555383488	2115.0	10.094580978684913	1241.0	2016.0	-0.5427392092963215	-832.0	0.510116492949111	9.731453096259962	-15872.0	-0.7847946045370937	-1280.0	0.0	6317.718505859375	10411.0	0.7456521739130435	1244.0	-588.0	0.3414141414141414	-0.6526946107784432	-434.0	-8.37934872780939	-156.0	3.1451878385677947	-149.0	3.125618582335129	506.0	
0.949087210729046	2115.0	10.223503102988614	1230.0	1995.0	-0.5388765065013774	-1280.0	0.7847946045370937	9.809932556713672	-16000.0	-0.745554874310239	-1216.0	0.0	6337.249755859375	11051.0	0.7608695652173914	1251.0	-586.0	0.34545454545454546	-0.6207584830339322	-450.0	-8.60977464774079	-136.0	3.4282653466933892	-166.0	2.823740332028739	521.0	
1.3621532900901878	2117.0	10.04494510017985	1244.0	1961.0	-0.5606278112780223	-1664.0	1.020232985898222	9.692213366033108	-15808.0	-0.8240343347639485	-1344.0	0.0	6356.781005859375	11691.0	0.7521739130434782	1247.0	-591.0	0.33535353535353535	-0.6666666666666667	-427.0	-2.3190598050898927	-135.0	3.2609050261301653	-184.0	2.745624058126945	111.0	
0.947630519151238	2111.0	10.125027392269187	1238.0	1995.0	-0.49168305944001245	-1344.0	0.8240343347639485	9.770692826486817	-15936.0	-0.745554874310239	-1216.0	0.0	6376.312255859375	12331.0	0.7456521739130435	1244.0	-585.0	0.3474747474747475	-0.6546906187624751	-433.0	10.864418896103672	-68.0	2.7289229510077537	-207.0	1.5947778642709027	-749.0	
0.5561740875081117	2110.0	10.010765481202974	1248.0	2027.0	-0.4846920500960214	-640.0	0.39239730226854685	9.652973635806253	-15744.0	-0.7063151440833844	-1152.0	0.0	6395.843505859375	12971.0	0.7586956521739131	1250.0	-587.0	0.3434343434343434	-0.6187624750499002	-451.0	11.154882460254976	22.0	2.448616959943205	-186.0	0.22305193585372401	-769.0	
0.5818887206411485	2112.0	10.120462131555437	1239.0	2025.0	-0.5074343228033351	-512.0	0.3139178418148375	9.770692826486817	-15936.0	-0.7063151440833844	-1152.0	0.0	6415.374755859375	13611.0	0.7521739130434782	1247.0	-597.0	0.3232323232323232	-0.6646706586826349	-428.0	3.049735684031841	77.0	1.5919223880457467	-89.0	-0.5323984975247291	-242.0	
0.6789377570985294	2112.0	10.069731399360558	1243.0	2017.0	-0.5069711397607101	-832.0	0.510116492949111	9.692213366033108	-15808.0	-0.7847946045370937	-1280.0	0.0	6434.906005859375	14251.0	0.7521739130434782	1247.0	-599.0	0.3191919191919192	-0.6367265469061877	-442.0	-4.3178795581687135	72.0	1.441996418890307	-45.0	-0.38267671772629774	238.0	
0.7036805429198416	2111.0	10.117761513013694	1239.0	2015.0	-0.4941952179948813	-832.0	0.510116492949111	9.731453096259962	-15872.0	-0.7847946045370937	-1280.0	0.0	6454.437255859375	14891.0	0.7565217391304347	1249.0	-595.0	0.32727272727272727	-0.6307385229540919	-445.0	-7.22736467689635	46.0	1.7036416114000836	-50.0	0.04185539581839315	428.0	
0.8126797018769484	2111.0	10.042404069784087	1245.0	2006.0	-0.49385880083760625	-1088.0	0.6670754138565297	9.652973635806253	-15744.0	-0.6670754138565297	-1088.0	0.0	6473.968505859375	15531.0	0.7608695652173914	1251.0	-597.0	0.3232323232323232	-0.6327345309381238	-444.0	-6.653848103751555	22.0	1.903996661171073	-67.0	0.4011392414937893	391.0	
0.8012165824228641	2113.0	10.09188814349804	1241.0	2007.0	-0.5175749768371763	-1024.0	0.627835683629675	9.652973635806253	-15744.0	-0.7847946045370937	-1280.0	0.0	6493.499755859375	16171.0	0.741304347826087	1242.0	-585.0	0.3474747474747475	-0.6427145708582835	-439.0	-5.630512642400349	48.0	1.803612492310948	-64.0	-0.004531375477137194	324.0	
0.8852337715949544	2115.0	9.932168282593933	1254.0	2000.0	-0.5424283890966651	-1152.0	0.7063151440833844	9.574494175352545	-15616.0	-0.8240343347639485	-1344.0	0.0	6513.031005859375	16811.0	0.7586956521739131	1250.0	-585.0	0.3474747474747475	-0.6327345309381238	-444.0	-6.737444733146396	55.0	1.7199959797305675	-53.0	-0.09992593289667293	396.0	
0.8607172170599975	2109.0	9.992181341007424	1249.0	2002.0	-0.46978426743137375	-1024.0	0.627835683629675	9.574494175352545	-15616.0	-0.5493562231759657	-896.0	0.0	6532.562255859375	17451.0	0.75	1246.0	-588.0	0.3414141414141414	-0.6806387225548903	-420.0	-7.670365937738676	1.0	1.2273379533591664	-18.0	0.7306960548146492	457.0	
0.9591001149439968	2112.0	10.039687884532606	1245.0	1994.0	-0.504469951330535	-1280.0	0.7847946045370937	9.613733905579398	-15680.0	-0.7847946045370937	-1280.0	0.0	6552.093505859375	18091.0	0.75	1246.0	-577.0	0.36363636363636365	-0.658682634730539	-431.0	-7.826704512625324	8.0	1.0475751245787197	-5.0	0.6257955622365193	467.0	
0.8864340089725924	2112.0	10.08992618001901	1241.0	2000.0	-0.504694229435385	-1024.0	0.627835683629675	9.731453096259962	-15872.0	-0.7847946045370937	-1280.0	0.0	6571.624755859375	18731.0	0.7565217391304347	1249.0	-586.0	0.34545454545454546	-0.62874251497006	-446.0	-7.013794434139207	59.0	1.7716483864919645	-55.0	-0.1579989377878855	414.0	
0.898500485284833	2110.0	10.10139333800628	1240.0	1999.0	-0.48036250755022125	-1152.0	0.7063151440833844	9.652973635806253	-15744.0	-0.745554874310239	-1216.0	0.0	6591.156005859375	19371.0	0.75	1246.0	-587.0	0.3434343434343434	-0.6826347305389222	-419.0	-6.14693169619823	96.0	1.5389216969090573	-42.0	-0.7294052077528467	357.0	
0.9238552630825342	2113.0	10.162567437997131	1235.0	1997.0	-0.5156417970855888	-1280.0	0.7847946045370937	9.770692826486817	-15936.0	-0.7847946045370937	-1280.0	0.0	6610.687255859375	20011.0	0.7456521739130435	1244.0	-580.0	0.3575757575757576	-0.6227544910179642	-449.0	-6.968008844705785	140.0	1.4429266823041738	-30.0	-1.3903959571803188	410.0	
0.9854202637147481	2115.0	10.198383955245413	1232.0	1992.0	-0.5387643674489524	-1344.0	0.8240343347639485	9.692213366033108	-15808.0	-0.7847946045370937	-1280.0	0.0	6630.218505859375	20651.0	0.7543478260869565	1248.0	-576.0	0.3656565656565657	-0.6267465069860281	-447.0	-6.529264775115393	169.0	1.250122635634502	-18.0	-1.8358480366594925	381.0	
1.023087178127069	2118.0	10.27150208322227	1226.0	1989.0	-0.5738010953383136	-1408.0	0.8632740649908032	9.809932556713672	-16000.0	-0.9025137952176578	-1472.0	0.0	6649.749755859375	21291.0	0.7478260869565218	1245.0	-579.0	0.3595959595959596	-0.6786427145708583	-421.0	-4.644830586584247	190.0	1.2366892077488556	-25.0	-2.1740840135257926	258.0	
1.243384728440951	2121.0	10.316546443205077	1222.0	1971.0	-0.6072922545485997	-1664.0	1.020232985898222	9.927651747394236	-16192.0	-0.8632740649908032	-1408.0	0.0	6669.281005859375	21931.0	0.7478260869565218	1245.0	-587.0	0.3434343434343434	-0.6467065868263474	-437.0	-1.306059667706437	216.0	0.9301732198005008	-19.0	-2.602908985071985	40.0	
0.9513950782469472	2122.0	10.371455104067122	1218.0	1995.0	-0.6217112572130037	-1280.0	0.7847946045370937	9.966891477621092	-16256.0	-0.8632740649908032	-1408.0	0.0	6688.812255859375	22571.0	0.7586956521739131	1250.0	-580.0	0.3575757575757576	-0.6407185628742516	-440.0	5.7773277338540785	279.0	1.1651516252634004	-65.0	-3.631917764030556	-422.0	
0.8182629666653594	2126.0	10.423878231322185	1214.0	2006.0	-0.6707111181406062	-960.0	0.5885959534028203	10.084610668301655	-16448.0	-0.8632740649908032	-1408.0	0.0	6708.343505859375	23211.0	0.7543478260869565	1248.0	-583.0	0.3515151515151515	-0.660678642714571	-430.0	7.26884769024531	263.0	1.2015330334756475	-75.0	-3.4034869559899064	-519.0	
0.7576698133448699	2127.0	10.449728250773228	1212.0	2011.0	-0.683106742250385	-896.0	0.5493562231759657	10.006131207847945	-16320.0	-0.8632740649908032	-1408.0	0.0	6727.874755859375	23851.0	0.7434782608695653	1243.0	-574.0	0.3696969696969697	-0.6487025948103793	-436.0	3.458699511675805	205.0	1.4614191830976757	-77.0	-2.483256196637671	-270.0	
