Device	Device	Device	Device	Device	Device	Device	Device	Device	Device	Device	Device	Device	Device	Device	Device	Device	Device	Device	Device	Device	Device	Device	Device	Device	Device	Device	
Low Noise Accelerometer X	Low Noise Accelerometer X	Low Noise Accelerometer Z	Low Noise Accelerometer Z	Low Noise Accelerometer Y	Low Noise Accelerometer Y	Wide Range Accelerometer X	Wide Range Accelerometer X	Wide Range Accelerometer Z	Wide Range Accelerometer Z	Wide Range Accelerometer Y	Wide Range Accelerometer Y	Event_Marker	Timestamp	Timestamp	Magnetometer Z	Magnetometer Z	Magnetometer X	Magnetometer X	Magnetometer Y	Magnetometer Y	Gyroscope Y	Gyroscope Y	Gyroscope Z	Gyroscope Z	Gyroscope X	Gyroscope X	
CAL	UNCAL	CAL	UNCAL	CAL	UNCAL	CAL	UNCAL	UNCAL	CAL	CAL	UNCAL	CAL	UNCAL	CAL	UNCAL	CAL	CAL	UNCAL	CAL	UNCAL	CAL	UNCAL	CAL	UNCAL	CAL	UNCAL	
m/(s^2)	no units	m/(s^2)	no units	m/(s^2)	no units	m/(s^2)	no units	no units	m/(s^2)	m/(s^2)	no units	no units	no units	ms	no units	local_flux	local_flux	no units	local_flux	no units	deg/s	no units	deg/s	no units	deg/s	no units	
0.1561616194547451	1945.0	9.796202780184986	1263.0	1.49711400544218	2058.0	0.07847946045370938	-128.0	-15296.0	9.37829552421827	1.3341508277130594	2176.0	0.0	41580.0	1268.9208984375	1276.0	0.8152173913043478	0.26666666666666666	-625.0	-0.5169660678642716	-502.0	0.211480532727833	183.0	-1.2944741485147317	121.0	-2.1161832463919175	-60.0	
0.11921657449265373	1941.0	9.808177941590472	1262.0	1.5450570776909514	2061.0	-0.11771919068056406	192.0	-15296.0	9.37829552421827	1.4126302881667687	2304.0	0.0	42220.0	1288.4521484375	1273.0	0.808695652173913	0.2686868686868687	-624.0	-0.5129740518962077	-504.0	-3.988926897952959	278.0	-0.8993536032888871	118.0	-3.519046092237201	213.0	
0.29112107184726754	1949.0	9.831018857306578	1260.0	1.4506189896529837	2047.0	0.0	0.0	-15424.0	9.45677498467198	1.3733905579399142	2240.0	0.0	42860.0	1307.9833984375	1281.0	0.8260869565217391	0.26262626262626265	-627.0	-0.4890219560878244	-516.0	-4.974129541171867	306.0	-0.768771767544154	115.0	-3.9350495791129965	277.0	
0.7317118549159152	1953.0	9.945011199953942	1250.0	1.4079720498258066	2011.0	0.4316370324954016	-704.0	-15552.0	9.53525444512569	1.3341508277130594	2176.0	0.0	43500.0	1327.5146484375	1272.0	0.8065217391304348	0.2767676767676768	-620.0	-0.5049900199600799	-508.0	3.1486442365598997	324.0	-0.10877344853387891	34.0	-4.290041575445448	-252.0	
0.48970989086708466	1961.0	10.037174771415348	1243.0	1.3100881237312576	2031.0	0.47087676272225626	-768.0	-15552.0	9.53525444512569	1.1771919068056407	1920.0	0.0	44140.0	1347.0458984375	1279.0	0.8217391304347826	0.2686868686868687	-624.0	-0.5069860279441119	-507.0	14.015930751419543	327.0	0.05123123372460614	-27.0	-4.444341817019899	-960.0	
0.03947685281661256	1964.0	10.095761140881217	1239.0	1.2700270787321586	2068.0	0.03923973022685469	-64.0	-15872.0	9.731453096259962	1.1771919068056407	1920.0	0.0	44780.0	1366.5771484375	1277.0	0.8173913043478261	0.2545454545454545	-631.0	-0.5249500998003993	-498.0	14.662553634197101	269.0	-0.628759039944411	13.0	-3.568678768281135	-1002.0	
-0.1810706753587648	1957.0	10.074143533581429	1241.0	1.3519427767749972	2086.0	-0.3139178418148375	512.0	-15744.0	9.652973635806253	1.0594727161250765	1728.0	0.0	45420.0	1386.1083984375	1274.0	0.8108695652173913	0.24242424242424243	-637.0	-0.5568862275449102	-482.0	2.739756904424118	139.0	-0.837540079903754	77.0	-1.4722644891963326	-224.0	
0.0260678799595207	1959.0	10.033863952537393	1244.0	1.329514980975571	2069.0	-0.27467811158798283	448.0	-15872.0	9.731453096259962	1.1771919068056407	1920.0	0.0	46060.0	1405.6396484375	1275.0	0.8130434782608695	0.26666666666666666	-625.0	-0.49500998003992025	-513.0	-9.953390645860349	95.0	-1.570070468541806	183.0	-0.6761314927809403	603.0	
0.5385791529742032	1953.0	10.143994635065656	1234.0	1.4080305571575067	2027.0	0.27467811158798283	-448.0	-15808.0	9.692213366033108	1.2164316370324952	1984.0	0.0	46700.0	1425.1708984375	1277.0	0.8173913043478261	0.25656565656565655	-630.0	-0.5229540918163673	-499.0	-10.278846340143586	112.0	-1.6270315693852544	189.0	-0.9314320689179558	624.0	
0.5865089494629703	1957.0	10.009870791903486	1245.0	1.3589758456064351	2023.0	0.27467811158798283	-448.0	-15808.0	9.692213366033108	1.2949110974862048	2112.0	0.0	47340.0	1444.7021484375	1274.0	0.8108695652173913	0.2767676767676768	-620.0	-0.5149700598802396	-503.0	-0.9460684139221441	238.0	-1.1054861470416362	116.0	-2.941109658066102	15.0	
0.721578279329333	1956.0	10.116636172069708	1236.0	1.3734423854778455	2012.0	0.7063151440833844	-1152.0	-15744.0	9.652973635806253	1.137952176578786	1856.0	0.0	47980.0	1464.2333984375	1272.0	0.8065217391304348	0.26666666666666666	-625.0	-0.5109780439121757	-505.0	14.410867892623127	345.0	-0.08524585094596537	-19.0	-4.722055446987068	-986.0	
-0.09523046293485635	1965.0	10.02556649973573	1245.0	1.2559298663921046	2079.0	0.07847946045370938	-128.0	-15744.0	9.652973635806253	1.137952176578786	1856.0	0.0	48620.0	1483.7646484375	1278.0	0.8195652173913044	0.25252525252525254	-632.0	-0.5209580838323354	-500.0	23.740783851526732	467.0	0.08923771804003189	-69.0	-6.670867914560895	-1595.0	
-0.26469778628170476	1968.0	10.11506058607487	1238.0	1.2189855557087745	2093.0	-0.47087676272225626	768.0	-15744.0	9.652973635806253	0.9809932556713672	1600.0	0.0	49260.0	1503.2958984375	1273.0	0.808695652173913	0.2383838383838384	-639.0	-0.5129740518962077	-504.0	11.976572654734179	392.0	-0.3070158514428848	9.0	-5.412541391946582	-828.0	
-0.08218350419265825	1970.0	10.05089294905882	1243.0	1.1960726366173358	2078.0	-0.39239730226854685	640.0	-15744.0	9.652973635806253	1.0594727161250765	1728.0	0.0	49900.0	1522.8271484375	1279.0	0.8217391304347826	0.24242424242424243	-637.0	-0.500998003992016	-510.0	-4.338382104411665	402.0	-1.7291294909457549	180.0	-5.401483099107975	234.0	
0.5632314903376989	1966.0	10.012509143606271	1245.0	1.2503357195924512	2025.0	0.15695892090741875	-256.0	-15488.0	9.496014714898834	1.0594727161250765	1728.0	0.0	50540.0	1542.3583984375	1275.0	0.8130434782608695	0.25252525252525254	-632.0	-0.5389221556886228	-491.0	-10.543370789087605	400.0	-2.213021737166014	241.0	-5.309014961310646	638.0	
0.4785075431722867	1972.0	10.003473035741896	1246.0	1.1771089624156472	2032.0	0.39239730226854685	-640.0	-15552.0	9.53525444512569	1.0594727161250765	1728.0	0.0	51180.0	1561.8896484375	1271.0	0.8043478260869565	0.23030303030303031	-643.0	-0.5169660678642716	-502.0	0.5141473756417937	515.0	-1.2784801156991417	132.0	-7.168639572615734	-83.0	
0.5275147468875022	1972.0	10.026868655005435	1244.0	1.177832990645435	2028.0	0.39239730226854685	-640.0	-15488.0	9.496014714898834	0.9417535254445125	1536.0	0.0	51820.0	1581.4208984375	1275.0	0.8130434782608695	0.24848484848484848	-634.0	-0.5508982035928145	-485.0	13.91122789170404	479.0	-0.4337176105263725	12.0	-6.755081860666091	-955.0	
-0.17874122004528137	1974.0	10.10257742125117	1239.0	1.1474311330963958	2086.0	-0.03923973022685469	64.0	-15744.0	9.652973635806253	0.9809932556713672	1600.0	0.0	52460.0	1600.9521484375	1272.0	0.8065217391304348	0.23636363636363636	-640.0	-0.5588822355289422	-481.0	25.040607076711456	486.0	-0.09461856930848955	-62.0	-6.972839530843161	-1680.0	
-0.5068182629226083	1977.0	10.183082099855154	1233.0	1.1088108311404095	2113.0	-0.5885959534028203	960.0	-15808.0	9.692213366033108	0.9809932556713672	1600.0	0.0	53100.0	1620.4833984375	1273.0	0.808695652173913	0.24242424242424243	-637.0	-0.530938123752495	-495.0	17.812559056365714	452.0	-0.541766070122622	0.0	-6.383448784480008	-1209.0	
-0.40758634787807374	1982.0	10.292016745080291	1224.0	1.0506515328876844	2105.0	-0.7063151440833844	1152.0	-16000.0	9.809932556713672	0.9417535254445125	1536.0	0.0	53740.0	1640.0146484375	1271.0	0.8043478260869565	0.22828282828282828	-644.0	-0.5169660678642716	-502.0	0.3190779499832782	368.0	-1.534242986445497	144.0	-4.930947433492229	-69.0	
0.14005126440599855	1976.0	10.255125816462908	1226.0	1.1280481563508573	2060.0	-0.27467811158798283	448.0	-16128.0	9.888412017167381	0.9417535254445125	1536.0	0.0	54380.0	1659.5458984375	1272.0	0.8065217391304348	0.23636363636363636	-640.0	-0.5469061876247505	-487.0	-12.209979205656651	269.0	-2.0417890751301693	232.0	-3.2999534398825974	748.0	
0.24965593900081984	1977.0	10.228767793593649	1228.0	1.1168324300970285	2051.0	0.19619865113427343	-320.0	-16000.0	9.809932556713672	0.9809932556713672	1600.0	0.0	55020.0	1679.0771484375	1268.0	0.7978260869565218	0.2505050505050505	-633.0	-0.5069860279441119	-507.0	-4.9538596453169585	265.0	-0.9000730443120049	122.0	-3.3116781335848535	276.0	
0.12787059306080134	1981.0	10.195612978112763	1231.0	1.0670902573984824	2061.0	-0.15695892090741875	256.0	-16128.0	9.888412017167381	0.9417535254445125	1536.0	0.0	55660.0	1698.6083984375	1275.0	0.8130434782608695	0.24848484848484848	-634.0	-0.5149700598802396	-503.0	4.82030133052403	305.0	-0.5215372888493919	53.0	-4.01778476235467	-361.0	
-0.25017902450479124	1984.0	10.15520006673125	1235.0	1.0267610537957583	2092.0	-0.11771919068056406	192.0	-16000.0	9.809932556713672	0.9025137952176578	1472.0	0.0	56300.0	1718.1396484375	1270.0	0.8021739130434783	0.2404040404040404	-638.0	-0.5449101796407186	-488.0	11.038143060522511	261.0	0.5481682482150572	-49.0	-3.410761658742107	-765.0	
-0.7019980606229353	1979.0	10.150927724500956	1236.0	1.0824411038676955	2129.0	-0.7063151440833844	1152.0	-15936.0	9.770692826486817	0.9025137952176578	1472.0	0.0	56940.0	1737.6708984375	1269.0	0.8	0.24242424242424243	-637.0	-0.5109780439121757	-505.0	6.827369034967854	186.0	0.3908131427684056	-22.0	-2.227969507840173	-490.0	
0.1652896883911849	1981.0	10.280206047431761	1224.0	1.0683103790449762	2058.0	-0.5493562231759657	896.0	-15936.0	9.770692826486817	0.9025137952176578	1472.0	0.0	57580.0	1757.2021484375	1273.0	0.808695652173913	0.22626262626262628	-645.0	-0.5209580838323354	-500.0	-11.350109981775692	132.0	-1.015566688363024	154.0	-1.2249019420073382	694.0	
0.3480431544439357	1982.0	10.252370714437077	1226.0	1.0578113676044725	2043.0	0.15695892090741875	-256.0	-16000.0	9.809932556713672	0.9025137952176578	1472.0	0.0	58220.0	1776.7333984375	1272.0	0.8065217391304348	0.23636363636363636	-640.0	-0.5409181636726548	-490.0	-11.261466927255912	87.0	-0.5093825358805804	118.0	-0.5413777261647034	689.0	
-0.05438939360763341	1985.0	10.212450239764042	1230.0	1.0172432590639735	2076.0	-0.03923973022685469	64.0	-16128.0	9.888412017167381	0.9025137952176578	1472.0	0.0	58860.0	1796.2646484375	1266.0	0.7934782608695652	0.2545454545454545	-631.0	-0.532934131736527	-494.0	0.3099823075629998	169.0	0.6691635124432045	-11.0	-1.9042405074862765	-65.0	
0.14128172469745143	1987.0	10.245558355115708	1227.0	0.9954346658583723	2060.0	-0.27467811158798283	448.0	-16064.0	9.849172286940528	0.8240343347639485	1344.0	0.0	59500.0	1815.7958984375	1267.0	0.7956521739130434	0.23232323232323232	-642.0	-0.5548902195608784	-483.0	3.022594164540005	185.0	0.5200845749980392	-13.0	-2.1747126336606093	-242.0	
-0.13911549955260383	1990.0	10.215365943240544	1230.0	0.9561841911838671	2083.0	-0.11771919068056406	192.0	-16064.0	9.849172286940528	0.8240343347639485	1344.0	0.0	60140.0	1835.3271484375	1271.0	0.8043478260869565	0.23434343434343435	-641.0	-0.5528942115768464	-484.0	4.634176133159986	185.0	0.527858499967096	-21.0	-2.190828453346809	-347.0	
-0.2848075668307485	1991.0	10.267319983851738	1226.0	0.9431986181461133	2095.0	-0.4316370324954016	704.0	-16000.0	9.809932556713672	0.7847946045370937	1280.0	0.0	60780.0	1854.8583984375	1271.0	0.8043478260869565	0.24848484848484848	-634.0	-0.5129740518962077	-504.0	3.8657778927912556	172.0	0.22860268604271483	2.0	-1.9854258397644144	-297.0	
-0.004287512429503718	1989.0	10.297750830726272	1223.0	0.9704045127010398	2072.0	-0.23543838136112813	384.0	-16064.0	9.849172286940528	0.745554874310239	1216.0	0.0	61420.0	1874.3896484375	1272.0	0.8065217391304348	0.2404040404040404	-638.0	-0.5169660678642716	-502.0	-4.516119710679442	81.0	0.171913896337326	41.0	-0.5175764454787569	250.0	
0.1657874853346174	1988.0	10.2453043534066	1227.0	0.9836289906765685	2058.0	-0.07847946045370938	128.0	-15936.0	9.770692826486817	0.8240343347639485	1344.0	0.0	62060.0	1893.9208984375	1267.0	0.7956521739130434	0.2545454545454545	-631.0	-0.5429141716566867	-489.0	-5.69535607249245	59.0	0.09067967922000097	51.0	-0.1711833214043531	327.0	
-0.005250724622995556	1990.0	10.18827704866344	1232.0	0.9572519499873922	2072.0	-0.03923973022685469	64.0	-15936.0	9.770692826486817	0.7847946045370937	1280.0	0.0	62700.0	1913.4521484375	1267.0	0.7956521739130434	0.24646464646464647	-635.0	-0.5109780439121757	-505.0	-1.2752453807425708	75.0	0.3325039503109256	15.0	-0.45873043592641466	39.0	
-0.030362000897876024	1988.0	10.139531630012202	1236.0	0.9806097685802997	2074.0	-0.19619865113427343	320.0	-15872.0	9.731453096259962	0.7847946045370937	1280.0	0.0	63340.0	1932.9833984375	1270.0	0.8021739130434783	0.2383838383838384	-639.0	-0.5409181636726548	-490.0	-0.6005756344025023	73.0	0.2393526946832562	18.0	-0.435058882439245	-5.0	
0.005968893308268011	1987.0	10.126364293609878	1237.0	0.9928895969294221	2071.0	-0.19619865113427343	320.0	-15872.0	9.731453096259962	0.8240343347639485	1344.0	0.0	63980.0	1952.5146484375	1266.0	0.7934782608695652	0.24242424242424243	-637.0	-0.5548902195608784	-483.0	-2.4666091160332164	31.0	0.23872976796939327	25.0	0.22238472233903941	117.0	
0.05498473214171638	1991.0	10.10195266750991	1239.0	0.9449428679724196	2067.0	-0.15695892090741875	256.0	-15744.0	9.652973635806253	0.8240343347639485	1344.0	0.0	64620.0	1972.0458984375	1272.0	0.8065217391304348	0.2505050505050505	-633.0	-0.5129740518962077	-504.0	-3.1999537877247786	27.0	0.5122246532649695	10.0	0.29055467095709575	165.0	
0.06657068174699016	1990.0	10.052707028795325	1243.0	0.9566144638524109	2066.0	-0.11771919068056406	192.0	-15872.0	9.731453096259962	0.7847946045370937	1280.0	0.0	65260.0	1991.5771484375	1265.0	0.7913043478260869	0.22626262626262628	-645.0	-0.5369261477045909	-492.0	-2.669502942640683	-10.0	0.8126158586987167	-14.0	0.8479878050918062	131.0	
0.19983641737755858	1992.0	9.940763279835247	1252.0	0.9327312981769471	2055.0	-0.07847946045370938	128.0	-15680.0	9.613733905579398	0.745554874310239	1216.0	0.0	364.0	2011.1083984375	1272.0	0.8065217391304348	0.24242424242424243	-637.0	-0.5409181636726548	-490.0	-2.4839443345919503	-44.0	0.43418898272524065	9.0	1.3632424851710145	119.0	
0.11401131641055756	1991.0	9.90567763429481	1255.0	0.943570383482957	2062.0	0.03923973022685469	-64.0	-15616.0	9.574494175352545	0.8240343347639485	1344.0	0.0	1004.0	2030.6396484375	1276.0	0.8152173913043478	0.25252525252525254	-632.0	-0.5089820359281437	-506.0	-0.6455159989944966	-122.0	0.45368444781040523	-4.0	2.5311699888872834	0.0	
-0.06934334772079136	1991.0	9.860609924247395	1259.0	0.9412861597411694	2077.0	-0.07847946045370938	128.0	-15488.0	9.496014714898834	0.7847946045370937	1280.0	0.0	1644.0	2050.1708984375	1272.0	0.8065217391304348	0.24242424242424243	-637.0	-0.530938123752495	-495.0	2.745250280711426	-98.0	0.7120479951391767	-36.0	2.13224331468338	-221.0	
-0.04484622220185816	1988.0	9.908163167901794	1255.0	0.9781512417461556	2075.0	-0.15695892090741875	256.0	-15424.0	9.45677498467198	0.6670754138565297	1088.0	0.0	2284.0	2069.7021484375	1270.0	0.8021739130434783	0.2505050505050505	-633.0	-0.5349301397205589	-493.0	1.869413790773261	-93.0	0.6860930174451745	-30.0	2.064956052206336	-164.0	
-0.13164101170102568	1985.0	9.799459174321154	1264.0	1.0123408322286105	2082.0	-0.3531575720416922	576.0	-15552.0	9.53525444512569	0.9025137952176578	1472.0	0.0	2924.0	2089.2333984375	1271.0	0.8043478260869565	0.2383838383838384	-639.0	-0.5269461077844312	-497.0	-7.245896347096069	-43.0	0.03159652415636788	58.0	1.3956528798207706	429.0	
0.09950766609055153	1982.0	9.781875474252292	1265.0	1.0506210603190909	2063.0	-0.15695892090741875	256.0	-15168.0	9.299816063764561	0.9025137952176578	1472.0	0.0	3564.0	2108.7646484375	1272.0	0.8065217391304348	0.2404040404040404	-638.0	-0.5409181636726548	-490.0	-9.95170835746034	18.0	0.4969113662074319	42.0	0.49495434593201787	605.0	
0.23362457766121342	1987.0	9.719408015651295	1270.0	0.9910965909933658	2052.0	-0.03923973022685469	64.0	-15232.0	9.339055793991415	0.745554874310239	1216.0	0.0	4204.0	2128.2958984375	1267.0	0.7956521739130434	0.26464646464646463	-626.0	-0.5389221556886228	-491.0	-8.09095032604323	28.0	1.0181639185803304	-1.0	0.3242555108649951	484.0	
0.16132048580470265	1987.0	9.806217050158432	1263.0	0.9912416404198721	2058.0	0.03923973022685469	-64.0	-15168.0	9.299816063764561	0.8240343347639485	1344.0	0.0	4844.0	2147.8271484375	1271.0	0.8043478260869565	0.26262626262626265	-627.0	-0.5109780439121757	-505.0	-4.770277649906018	114.0	1.3491096193924432	-35.0	-1.016936006770902	267.0	
0.07694560007683493	1987.0	9.90546254936005	1255.0	0.9913903465546094	2065.0	-0.11771919068056406	192.0	-15552.0	9.53525444512569	0.7847946045370937	1280.0	0.0	5484.0	2167.3583984375	1268.0	0.7978260869565218	0.2545454545454545	-631.0	-0.5429141716566867	-489.0	-6.909100851161224	129.0	1.0273370695449466	-3.0	-1.2236846568876276	406.0	
0.21189209979200813	1985.0	10.011989494526903	1246.0	1.0179014665455983	2054.0	0.07847946045370938	-128.0	-15552.0	9.53525444512569	0.8240343347639485	1344.0	0.0	6124.0	2186.8896484375	1268.0	0.7978260869565218	0.25656565656565655	-630.0	-0.5548902195608784	-483.0	-7.435762432213777	139.0	0.6952637720731701	22.0	-1.3705092958299536	440.0	
0.2615069779244964	1987.0	10.07243272280991	1241.0	0.9949056620675847	2050.0	0.03923973022685469	-64.0	-15744.0	9.652973635806253	0.8240343347639485	1344.0	0.0	6764.0	2206.4208984375	1271.0	0.8043478260869565	0.25656565656565655	-630.0	-0.5608782435129741	-480.0	-5.303228221649852	163.0	0.9812302564217208	-6.0	-1.756853649342437	301.0	
0.21359445167219498	1991.0	10.110942075245067	1238.0	0.9466188592450759	2054.0	0.03923973022685469	-64.0	-15936.0	9.770692826486817	0.8240343347639485	1344.0	0.0	7404.0	2225.9521484375	1272.0	0.8065217391304348	0.25252525252525254	-632.0	-0.5289421157684632	-496.0	-3.410060116207397	119.0	0.8526827029426759	-8.0	-1.106583809484314	178.0	
0.17786907310376543	1993.0	10.173108832007737	1233.0	0.9227868874848497	2057.0	0.0	0.0	-15808.0	9.692213366033108	0.745554874310239	1216.0	0.0	8044.0	2245.4833984375	1267.0	0.7956521739130434	0.27474747474747474	-621.0	-0.5289421157684632	-496.0	-3.003428171105185	63.0	0.7603276710026713	-6.0	-0.2589391023193664	152.0	
0.10363423930115458	1993.0	10.06487392507096	1242.0	0.9209621900774558	2063.0	-0.07847946045370938	128.0	-15872.0	9.731453096259962	0.7847946045370937	1280.0	0.0	8684.0	2265.0146484375	1270.0	0.8021739130434783	0.2787878787878788	-619.0	-0.5149700598802396	-503.0	-6.1896448030693385	20.0	0.7160485927998709	10.0	0.42691545943753756	360.0	
0.16288273729723438	1984.0	10.00054568660424	1247.0	1.0293451276125085	2058.0	0.0	0.0	-15360.0	9.417535254445125	0.9025137952176578	1472.0	0.0	9324.0	2284.5458984375	1272.0	0.8065217391304348	0.27070707070707073	-623.0	-0.5528942115768464	-484.0	-6.997686724183871	-12.0	0.7678131336492033	9.0	0.9216878938578084	413.0	
0.16360460674746372	1983.0	10.085638975986585	1240.0	1.0422514719719185	2058.0	0.03923973022685469	-64.0	-15872.0	9.731453096259962	0.8632740649908032	1408.0	0.0	9964.0	2304.0771484375	1267.0	0.7956521739130434	0.2808080808080808	-618.0	-0.5369261477045909	-492.0	-7.80834805374195	76.0	0.8477862763631976	11.0	-0.408608534671706	465.0	
0.23638706653138308	1981.0	10.07149454952218	1241.0	1.0669342378472824	2052.0	0.03923973022685469	-64.0	-15680.0	9.613733905579398	0.9025137952176578	1472.0	0.0	10604.0	2323.6083984375	1269.0	0.8	0.27474747474747474	-621.0	-0.5069860279441119	-507.0	-7.311308018468078	129.0	0.7105031021826073	20.0	-1.219662585214559	432.0	
0.2614961840267053	1982.0	10.132191779514296	1236.0	1.0557441085510724	2050.0	0.03923973022685469	-64.0	-15808.0	9.692213366033108	0.8632740649908032	1408.0	0.0	11244.0	2343.1396484375	1270.0	0.8021739130434783	0.27070707070707073	-623.0	-0.5528942115768464	-484.0	-7.055366147383601	107.0	1.4139382011950477	-29.0	-0.8876212434691297	416.0	
0.3963349650475965	1986.0	10.154817610295643	1234.0	1.0091259835847575	2039.0	0.23543838136112813	-384.0	-16064.0	9.849172286940528	0.8632740649908032	1408.0	0.0	11884.0	2362.6708984375	1268.0	0.7978260869565218	0.2868686868686869	-615.0	-0.5069860279441119	-507.0	-3.288060452011552	147.0	2.7352887153627066	-133.0	-1.5336593194342572	171.0	
0.23978745273264035	1991.0	10.293303333640258	1223.0	0.9487044018396323	2052.0	0.11771919068056406	-192.0	-16064.0	9.849172286940528	0.8240343347639485	1344.0	0.0	12524.0	2382.2021484375	1261.0	0.782608695652174	0.2767676767676768	-620.0	-0.5568862275449102	-482.0	1.4356223415665421	234.0	3.718818464426242	-217.0	-2.904090063719848	-137.0	
0.16627664715981705	1991.0	10.25820990474495	1226.0	0.947618359494951	2058.0	0.0	0.0	-16000.0	9.809932556713672	0.7063151440833844	1152.0	0.0	13164.0	2401.7333984375	1269.0	0.8	0.2808080808080808	-618.0	-0.5089820359281437	-506.0	-0.3552594972064351	183.0	3.4226321269839852	-191.0	-2.1105158460925746	-20.0	
0.30122746443410664	1991.0	10.340833227230048	1219.0	0.9497941008925449	2047.0	0.03923973022685469	-64.0	-16128.0	9.888412017167381	0.745554874310239	1216.0	0.0	13804.0	2421.2646484375	1268.0	0.7978260869565218	0.2828282828282828	-617.0	-0.5289421157684632	-496.0	-7.1335667869009205	117.0	2.954699998204412	-131.0	-1.0389304918268083	422.0	
0.555918690669358	1990.0	10.213521743389247	1229.0	0.9631160910875738	2026.0	0.4316370324954016	-704.0	-15872.0	9.731453096259962	0.745554874310239	1216.0	0.0	14444.0	2440.7958984375	1271.0	0.8043478260869565	0.2828282828282828	-617.0	-0.5289421157684632	-496.0	-9.581813277463496	35.0	2.445526864967343	-89.0	0.2327002620522015	582.0	
0.580060278412072	1990.0	10.188648814000285	1231.0	0.9631087776711112	2024.0	0.39239730226854685	-640.0	-15936.0	9.770692826486817	0.745554874310239	1216.0	0.0	15084.0	2460.3271484375	1270.0	0.8021739130434783	0.2828282828282828	-617.0	-0.5369261477045909	-492.0	-5.199985209637985	-3.0	2.642171391908662	-124.0	0.766828749434783	297.0	
0.7135500865494373	1984.0	10.19670004844771	1230.0	1.036813344723465	2013.0	0.510116492949111	-832.0	-16064.0	9.849172286940528	0.9025137952176578	1472.0	0.0	15724.0	2479.8583984375	1265.0	0.7913043478260869	0.29494949494949496	-611.0	-0.5349301397205589	-493.0	-0.1077279841105084	17.0	2.629752671850948	-146.0	0.41172366767380475	-35.0	
0.32354818770456073	1986.0	10.192865659441802	1231.0	1.0087785963027887	2045.0	0.07847946045370938	-128.0	-15936.0	9.770692826486817	0.8240343347639485	1344.0	0.0	16364.0	2499.3896484375	1270.0	0.8021739130434783	0.2686868686868687	-624.0	-0.5289421157684632	-496.0	8.178473145494847	64.0	3.1910715064852706	-220.0	-0.38596724096065194	-575.0	
-0.055229775649935794	1987.0	10.103214892700576	1239.0	0.9920461162307471	2076.0	-0.19619865113427343	320.0	-15872.0	9.731453096259962	0.8632740649908032	1408.0	0.0	17004.0	2518.9208984375	1267.0	0.7956521739130434	0.2808080808080808	-618.0	-0.5449101796407186	-488.0	5.734002985483736	52.0	2.5892885582394847	-169.0	-0.17901303365711874	-416.0	
0.2491991588689933	1989.0	10.03658507214215	1244.0	0.9703277218281835	2051.0	0.11771919068056406	-192.0	-15680.0	9.613733905579398	0.8240343347639485	1344.0	0.0	17644.0	2538.4521484375	1268.0	0.7978260869565218	0.29494949494949496	-611.0	-0.5109780439121757	-505.0	-6.431974851615136	13.0	2.467786643828187	-106.0	0.5358026382499917	377.0	
0.8224458443713785	1992.0	10.013537868150847	1245.0	0.9396851383300413	2004.0	0.627835683629675	-1024.0	-15744.0	9.652973635806253	0.7847946045370937	1280.0	0.0	18284.0	2557.9833984375	1265.0	0.7913043478260869	0.29494949494949496	-611.0	-0.5069860279441119	-507.0	-11.777504844189671	8.0	1.9372434813287618	-46.0	0.6653035655521629	725.0	
0.518740938082237	1990.0	10.15330916675074	1234.0	0.9621421877953173	2029.0	0.23543838136112813	-384.0	-15872.0	9.731453096259962	0.7847946045370937	1280.0	0.0	18924.0	2577.5146484375	1268.0	0.7978260869565218	0.29292929292929293	-612.0	-0.5429141716566867	-489.0	-4.1263023799587275	83.0	2.3498973911317	-106.0	-0.5518928697365345	226.0	
0.44596711341655043	1996.0	10.119646347851637	1237.0	0.8887886647331635	2035.0	0.15695892090741875	-256.0	-15872.0	9.731453096259962	0.6670754138565297	1088.0	0.0	19564.0	2597.0458984375	1269.0	0.8	0.27070707070707073	-623.0	-0.530938123752495	-495.0	-0.15125619181477967	163.0	2.0319483554690376	-100.0	-1.8083733696407878	-34.0	
0.2868747083995468	1996.0	10.061895954755501	1242.0	0.886620236752032	2048.0	0.11771919068056406	-192.0	-15808.0	9.692213366033108	0.7063151440833844	1152.0	0.0	20204.0	2616.5771484375	1264.0	0.7891304347826087	0.2767676767676768	-620.0	-0.5628742514970061	-479.0	-0.3948814828837649	93.0	2.6959742968104337	-146.0	-0.7412983334601357	-17.0	
0.3119881434539855	1999.0	10.098689562065864	1239.0	0.8510947288624272	2046.0	0.15695892090741875	-256.0	-15872.0	9.731453096259962	0.6670754138565297	1088.0	0.0	20844.0	2636.1083984375	1267.0	0.7956521739130434	0.2909090909090909	-613.0	-0.5528942115768464	-484.0	-4.756731309016982	30.0	2.9612320485115866	-146.0	0.26049506974416226	268.0	
0.6892016965363921	2000.0	10.005963503702157	1246.0	0.8418914110385298	2015.0	0.5493562231759657	-896.0	-15552.0	9.53525444512569	0.7063151440833844	1152.0	0.0	21484.0	2655.6396484375	1266.0	0.7934782608695652	0.30303030303030304	-607.0	-0.530938123752495	-495.0	-10.836413717000266	6.0	2.395264440022764	-81.0	0.6863109052308392	664.0	
0.6528772786689226	2004.0	9.983275406081852	1248.0	0.7931085147993147	2018.0	0.510116492949111	-832.0	-15616.0	9.574494175352545	0.5493562231759657	896.0	0.0	22124.0	2675.1708984375	1267.0	0.7956521739130434	0.2868686868686869	-615.0	-0.5409181636726548	-490.0	-9.95510108493384	46.0	2.118379621621382	-65.0	0.06913275989876805	606.0	
0.6649308023038141	1996.0	10.066453432114384	1241.0	0.8904463724646636	2017.0	0.47087676272225626	-768.0	-15872.0	9.731453096259962	0.745554874310239	1216.0	0.0	22764.0	2694.7021484375	1267.0	0.7956521739130434	0.298989898989899	-609.0	-0.5489021956087825	-486.0	-9.297805700323726	-41.0	2.0646816174429032	-68.0	1.385753722402477	564.0	
0.6884690331883717	1996.0	9.980629271024197	1248.0	0.8898235131626073	2015.0	0.510116492949111	-832.0	-15744.0	9.652973635806253	0.7063151440833844	1152.0	0.0	23404.0	2714.2333984375	1266.0	0.7934782608695652	0.3151515151515151	-601.0	-0.5109780439121757	-505.0	-8.701515719134443	-55.0	1.6248576270346955	-42.0	1.5927185792445766	525.0	
0.6385912245170389	1984.0	10.015323663469466	1245.0	1.0342499922533588	2019.0	0.47087676272225626	-768.0	-15680.0	9.613733905579398	0.8632740649908032	1408.0	0.0	24044.0	2733.7646484375	1263.0	0.7869565217391304	0.29292929292929293	-612.0	-0.5369261477045909	-492.0	-8.849806776996184	-97.0	1.5046798276265119	-35.0	2.232984759785171	535.0	
0.7369654872828055	1983.0	10.110637452358155	1237.0	1.0482350655409876	2011.0	0.5493562231759657	-896.0	-15872.0	9.731453096259962	0.9417535254445125	1536.0	0.0	24684.0	2753.2958984375	1267.0	0.7956521739130434	0.32525252525252524	-596.0	-0.5289421157684632	-496.0	-8.636528445976218	-20.0	0.9819571235707409	2.0	1.0597493148780133	520.0	
0.8585094904795615	1979.0	10.119411775158554	1236.0	1.0977310198852965	2001.0	0.7063151440833844	-1152.0	-15872.0	9.731453096259962	0.9417535254445125	1536.0	0.0	25324.0	2772.8271484375	1259.0	0.7782608695652175	0.3212121212121212	-598.0	-0.5528942115768464	-484.0	-7.98798880213317	91.0	1.5290849126539388	-33.0	-0.6349490093170713	477.0	
0.6759952083905151	1977.0	10.183579412174604	1231.0	1.120643938976735	2016.0	0.510116492949111	-832.0	-15936.0	9.770692826486817	0.9025137952176578	1472.0	0.0	25964.0	2792.3583984375	1267.0	0.7956521739130434	0.3232323232323232	-597.0	-0.5069860279441119	-507.0	-3.371281103101351	185.0	1.130015834855263	-24.0	-2.110773880984196	175.0	
0.6524569775059572	1977.0	10.269403573264789	1224.0	1.1212667982787914	2018.0	0.510116492949111	-832.0	-16128.0	9.888412017167381	0.9417535254445125	1536.0	0.0	26604.0	2811.8896484375	1264.0	0.7891304347826087	0.3191919191919192	-599.0	-0.5469061876247505	-487.0	-0.9256802306734622	280.0	1.5723193296210252	-61.0	-3.580096809860566	15.0	
0.7512148421821998	1986.0	10.281769987765443	1223.0	1.0139443061308016	2010.0	0.6670754138565297	-1088.0	-16128.0	9.888412017167381	0.8632740649908032	1408.0	0.0	27244.0	2831.4208984375	1265.0	0.7913043478260869	0.3212121212121212	-598.0	-0.5069860279441119	-507.0	-2.7465273460390374	319.0	1.1830463896593804	-25.0	-4.155044232243032	133.0	
1.007481272587332	1988.0	10.277076272325191	1223.0	0.9923636477382817	1989.0	0.8240343347639485	-1344.0	-16064.0	9.849172286940528	0.8240343347639485	1344.0	0.0	27884.0	2850.9521484375	1267.0	0.7956521739130434	0.3111111111111111	-603.0	-0.5189620758483035	-501.0	-4.2840102266628985	309.0	0.7592339167762794	10.0	-3.9875781486839412	233.0	
0.97273637644886	1997.0	10.353102320423682	1217.0	0.8843427243181228	1992.0	0.8240343347639485	-1344.0	-16256.0	9.966891477621092	0.745554874310239	1216.0	0.0	28524.0	2870.4833984375	1264.0	0.7891304347826087	0.3151515151515151	-601.0	-0.530938123752495	-495.0	-1.421484724848369	284.0	-0.3697497122609793	71.0	-3.635975266819958	46.0	
0.9597066879431277	2000.0	10.232161380373576	1227.0	0.8468584397193114	1993.0	0.7847946045370937	-1280.0	-15936.0	9.770692826486817	0.5885959534028203	960.0	0.0	29164.0	2890.0146484375	1268.0	0.7978260869565218	0.32727272727272727	-595.0	-0.5289421157684632	-496.0	1.2405202283418129	274.0	-1.3707041095919306	125.0	-3.510504061599008	-128.0	
0.666859385470356	1995.0	10.273449184899171	1224.0	0.9045838085952613	2017.0	0.47087676272225626	-768.0	-16256.0	9.966891477621092	0.7063151440833844	1152.0	0.0	29804.0	2909.5458984375	1264.0	0.7891304347826087	0.30707070707070705	-605.0	-0.5409181636726548	-490.0	3.7664488026532936	166.0	-2.1219572878535233	159.0	-1.8931777960113239	-292.0	
0.3968392383297037	1996.0	10.084060482247853	1240.0	0.8879415273262572	2039.0	0.19619865113427343	-320.0	-15872.0	9.731453096259962	0.7847946045370937	1280.0	0.0	30444.0	2929.0771484375	1264.0	0.7891304347826087	0.32727272727272727	-595.0	-0.5449101796407186	-488.0	-1.9499110089041962	-13.0	-2.477673644541579	202.0	0.8864192621802968	82.0	
0.8102543791283902	1992.0	10.013784086505083	1245.0	0.9395656858611537	2005.0	0.627835683629675	-1024.0	-15808.0	9.692213366033108	0.7063151440833844	1152.0	0.0	31084.0	2948.6083984375	1264.0	0.7891304347826087	0.301010101010101	-608.0	-0.5728542914171657	-474.0	-6.524668163810889	-111.0	-2.5487254008819615	224.0	2.4226611303073105	381.0	
0.9925230009150577	1992.0	9.949139579490298	1250.0	0.9407419270088726	1990.0	0.745554874310239	-1216.0	-15680.0	9.613733905579398	0.7847946045370937	1280.0	0.0	31724.0	2968.1396484375	1265.0	0.7913043478260869	0.3151515151515151	-601.0	-0.5808383233532934	-470.0	0.27037239748563924	-71.0	-2.337655458270203	180.0	1.7463457056829386	-62.0	
1.139184756725369	1993.0	9.970803886919304	1248.0	0.9303769948701813	1978.0	0.9417535254445125	-1536.0	-15488.0	9.496014714898834	0.7847946045370937	1280.0	0.0	32364.0	2987.6708984375	1264.0	0.7891304347826087	0.296969696969697	-610.0	-0.564870259481038	-478.0	12.106762607197249	1.0	-2.443003266831642	135.0	0.53292476936529	-834.0	
0.7246814148024427	1996.0	9.94331987694075	1251.0	0.8898125430379136	2012.0	0.510116492949111	-832.0	-15488.0	9.496014714898834	0.745554874310239	1216.0	0.0	33004.0	3007.2021484375	1264.0	0.7891304347826087	0.32727272727272727	-595.0	-0.5189620758483035	-501.0	23.510002318960385	119.0	-2.190368934898825	70.0	-1.375784433835992	-1578.0	
0.09097304124899053	1999.0	9.944648290018959	1252.0	0.8473441651199082	2064.0	-0.07847946045370938	128.0	-15616.0	9.574494175352545	0.6670754138565297	1088.0	0.0	33644.0	3026.7333984375	1269.0	0.8	0.296969696969697	-610.0	-0.5409181636726548	-490.0	19.79159210163428	65.0	-1.9044492798070405	66.0	-0.5173075559973315	-1335.0	
0.030866890974142677	2002.0	9.995355672149229	1248.0	0.8111055991252093	2069.0	-0.07847946045370938	128.0	-15616.0	9.574494175352545	0.5885959534028203	960.0	0.0	34284.0	3046.2646484375	1268.0	0.7978260869565218	0.30505050505050507	-606.0	-0.5548902195608784	-483.0	4.028567339761225	-24.0	-1.8210074829527507	130.0	0.9939348589217795	-307.0	
0.35919175293340677	2002.0	9.903376052203104	1255.0	0.8134690515453408	2042.0	0.15695892090741875	-256.0	-15488.0	9.496014714898834	0.6670754138565297	1088.0	0.0	34924.0	3065.7958984375	1268.0	0.7978260869565218	0.301010101010101	-608.0	-0.5129740518962077	-504.0	-8.608129819104228	-80.0	-1.6952019816703987	178.0	1.9720128571264037	517.0	
0.895252050730438	2001.0	9.867923516936797	1257.0	0.8305233219417324	1998.0	0.7063151440833844	-1152.0	-15488.0	9.496014714898834	0.6670754138565297	1088.0	0.0	35564.0	3085.3271484375	1273.0	0.808695652173913	0.29494949494949496	-611.0	-0.5149700598802396	-503.0	-5.112142123914388	-28.0	-1.2322250756013513	133.0	1.1461784554596761	289.0	
0.9441429006331388	2003.0	9.855225267178337	1258.0	0.8067888624010061	1994.0	0.8240343347639485	-1344.0	-15296.0	9.37829552421827	0.7063151440833844	1152.0	0.0	36204.0	3104.8583984375	1263.0	0.7869565217391304	0.3090909090909091	-604.0	-0.5269461077844312	-497.0	9.785248599149806	70.0	-0.26043821080712976	3.0	-0.4932897483489126	-682.0	
0.3344403319938619	1999.0	9.903153183913476	1255.0	0.849363886966302	2044.0	0.11771919068056406	-192.0	-15552.0	9.53525444512569	0.627835683629675	1024.0	0.0	36844.0	3124.3896484375	1268.0	0.7978260869565218	0.3090909090909091	-604.0	-0.5269461077844312	-497.0	23.6071615468183	183.0	0.8253123899360553	-129.0	-2.350140056532822	-1583.0	
-0.28647537823800395	2001.0	9.977138421679548	1250.0	0.8197981966994755	2095.0	-0.510116492949111	832.0	-15616.0	9.574494175352545	0.6670754138565297	1088.0	0.0	37484.0	3143.9208984375	1270.0	0.8021739130434783	0.28888888888888886	-614.0	-0.5528942115768464	-484.0	15.95285409495935	195.0	1.4253225838060795	-133.0	-2.456106487717655	-1084.0	
-0.2618532637883232	2000.0	10.01297828899244	1247.0	0.8324510092881855	2093.0	-0.4316370324954016	704.0	-15744.0	9.652973635806253	0.6670754138565297	1088.0	0.0	38124.0	3163.4521484375	1266.0	0.7934782608695652	0.30303030303030304	-607.0	-0.5409181636726548	-490.0	-4.212909849509322	136.0	0.634045678489291	11.0	-1.3571104452311424	230.0	
0.49292074503447636	1995.0	9.947759590671895	1251.0	0.8995875262486297	2031.0	0.39239730226854685	-640.0	-15616.0	9.574494175352545	0.7063151440833844	1152.0	0.0	38764.0	3182.9833984375	1268.0	0.7978260869565218	0.29292929292929293	-612.0	-0.5289421157684632	-496.0	-15.906765183485984	66.0	1.2104499096776313	24.0	-0.1755331086214139	993.0	
0.725648944555051	1997.0	10.02889003632183	1244.0	0.8786297271581661	2012.0	0.510116492949111	-832.0	-15616.0	9.574494175352545	0.7063151440833844	1152.0	0.0	39404.0	3202.5146484375	1263.0	0.7869565217391304	0.2909090909090909	-613.0	-0.5548902195608784	-483.0	-6.381025536330391	174.0	2.3372997833233162	-91.0	-1.9133760564237685	372.0	
0.4463463977679099	2004.0	10.060602596145356	1242.0	0.7918164778909396	2035.0	0.27467811158798283	-448.0	-15680.0	9.613733905579398	0.5885959534028203	960.0	0.0	40044.0	3222.0458984375	1265.0	0.7913043478260869	0.3111111111111111	-603.0	-0.5449101796407186	-488.0	1.0415408488397577	267.0	3.181614935770491	-178.0	-3.402050389476991	-112.0	
0.6414055240966056	2002.0	10.08056672515931	1240.0	0.8180630959865348	2019.0	0.39239730226854685	-640.0	-15808.0	9.692213366033108	0.6670754138565297	1088.0	0.0	40684.0	3241.5771484375	1269.0	0.8	0.2828282828282828	-617.0	-0.5608782435129741	-480.0	4.816623973355292	189.0	3.486109332494484	-219.0	-2.253489433649903	-357.0	
0.06912852712638684	2001.0	10.177232277190818	1233.0	0.825355174308232	2066.0	-0.07847946045370938	128.0	-15872.0	9.731453096259962	0.6670754138565297	1088.0	0.0	41324.0	3261.1083984375	1270.0	0.8021739130434783	0.29494949494949496	-611.0	-0.5489021956087825	-486.0	3.132024866516244	193.0	2.3764055830602	-137.0	-2.2974799444826526	-248.0	
0.5199670808145734	1999.0	10.167645328085294	1233.0	0.8538640758962273	2029.0	0.3531575720416922	-576.0	-15936.0	9.770692826486817	0.745554874310239	1216.0	0.0	41964.0	3280.6396484375	1262.0	0.7847826086956522	0.30505050505050507	-606.0	-0.5189620758483035	-501.0	-11.680957697906084	140.0	1.3211728100431366	0.0	-1.3432664686483158	717.0	
0.9221669212411128	2000.0	10.135378064714335	1235.0	0.8455152088956988	1996.0	0.7847946045370937	-1280.0	-15872.0	9.731453096259962	0.627835683629675	1024.0	0.0	42604.0	3300.1708984375	1265.0	0.7913043478260869	0.30303030303030304	-607.0	-0.5169660678642716	-502.0	-10.956736455216499	124.0	1.3659806974846407	-7.0	-1.1071626734706488	670.0	
0.3377114117052551	2005.0	10.160578967054818	1234.0	0.7796816989683234	2044.0	0.15695892090741875	-256.0	-15872.0	9.731453096259962	0.5885959534028203	960.0	0.0	43244.0	3319.7021484375	1262.0	0.7847826086956522	0.30303030303030304	-607.0	-0.5449101796407186	-488.0	-2.0054189828509363	216.0	1.5935412818077215	-60.0	-2.5959153919205407	86.0	
0.5931180310520612	2000.0	10.154216206618992	1234.0	0.8424131014128549	2023.0	0.4316370324954016	-704.0	-16064.0	9.849172286940528	0.6670754138565297	1088.0	0.0	43884.0	3339.2333984375	1261.0	0.782608695652174	0.29494949494949496	-611.0	-0.5788423153692616	-471.0	-4.580261158690693	109.0	1.8575802776932073	-70.0	-0.9427905443066293	255.0	
0.2640734584221259	2002.0	10.149150725841896	1235.0	0.8149756153366158	2050.0	0.03923973022685469	-64.0	-15936.0	9.770692826486817	0.6670754138565297	1088.0	0.0	44524.0	3358.7646484375	1265.0	0.7913043478260869	0.30303030303030304	-607.0	-0.5429141716566867	-489.0	-3.3262168848338645	149.0	2.019520953215117	-85.0	-1.5636960060566045	173.0	
0.61763242680746	2005.0	10.106154959546377	1238.0	0.7819366690442611	2021.0	0.510116492949111	-832.0	-15808.0	9.692213366033108	0.627835683629675	1024.0	0.0	45164.0	3378.2958984375	1264.0	0.7891304347826087	0.296969696969697	-610.0	-0.5548902195608784	-483.0	-10.411899406822338	112.0	1.9504448161095593	-49.0	-0.9301015382511684	635.0	
0.9594869329954473	2010.0	10.08826277428432	1239.0	0.7249353283980987	1993.0	0.8240343347639485	-1344.0	-15680.0	9.613733905579398	0.510116492949111	832.0	0.0	45804.0	3397.8271484375	1263.0	0.7869565217391304	0.3212121212121212	-598.0	-0.5409181636726548	-490.0	-11.103979934275172	120.0	1.9285180222317384	-44.0	-1.0448537367789212	680.0	
0.6188456168624472	2008.0	10.192201988926193	1231.0	0.7466646929253561	2021.0	0.47087676272225626	-768.0	-16000.0	9.809932556713672	0.627835683629675	1024.0	0.0	46444.0	3417.3583984375	1259.0	0.7782608695652175	0.30505050505050507	-606.0	-0.5528942115768464	-484.0	-4.356511017752832	144.0	1.743360013564324	-62.0	-1.477347437350989	240.0	
0.655066633594751	2012.0	10.10708534947924	1238.0	0.6979829656138722	2018.0	0.47087676272225626	-768.0	-15872.0	9.731453096259962	0.5885959534028203	960.0	0.0	47084.0	3436.8896484375	1262.0	0.7847826086956522	0.31313131313131315	-602.0	-0.5528942115768464	-484.0	-5.5529809546666815	135.0	1.671233998521166	-52.0	-1.3285006087042837	318.0	
0.6785832766837266	2002.0	10.14077930179782	1235.0	0.819036999278791	2016.0	0.4316370324954016	-704.0	-15872.0	9.731453096259962	0.627835683629675	1024.0	0.0	47724.0	3456.4208984375	1262.0	0.7847826086956522	0.32727272727272727	-595.0	-0.5129740518962077	-504.0	-7.775979246370688	88.0	1.1976613738051913	-12.0	-0.5914417284488407	463.0	
0.6539611622340458	2003.0	10.10493943448493	1238.0	0.806384186690081	2018.0	0.510116492949111	-832.0	-15808.0	9.692213366033108	0.5493562231759657	896.0	0.0	48364.0	3475.9521484375	1264.0	0.7891304347826087	0.32525252525252524	-596.0	-0.5249500998003993	-498.0	-7.846565324803955	139.0	1.053690735856217	0.0	-1.3664012669040517	467.0	
0.6921172384715661	2009.0	10.190963113800136	1231.0	0.7353368276191024	2015.0	0.510116492949111	-832.0	-16064.0	9.849172286940528	0.510116492949111	832.0	0.0	49004.0	3495.4833984375	1259.0	0.7782608695652175	0.3292929292929293	-594.0	-0.5369261477045909	-492.0	-7.4537813268705015	181.0	1.0668968041466538	-1.0	-2.009112376845364	441.0	
0.7658758631263266	2012.0	10.2145816013533	1229.0	0.7001660204279285	2009.0	0.5885959534028203	-960.0	-15936.0	9.770692826486817	0.510116492949111	832.0	0.0	49644.0	3515.0146484375	1261.0	0.782608695652174	0.3333333333333333	-592.0	-0.5229540918163673	-499.0	-6.2669792416872045	184.0	1.61580563149622	-43.0	-2.066607774123052	364.0	
0.7531995536172551	2011.0	10.17801864568744	1232.0	0.7117218205472636	2010.0	0.6670754138565297	-1088.0	-15936.0	9.770692826486817	0.510116492949111	832.0	0.0	50284.0	3534.5458984375	1263.0	0.7869565217391304	0.32727272727272727	-595.0	-0.5249500998003993	-498.0	-6.161914270100889	110.0	1.788361654288857	-58.0	-0.9421831386678126	358.0	
0.9241149334236787	2008.0	10.234807515431232	1227.0	0.7501434413560187	1996.0	0.745554874310239	-1216.0	-15936.0	9.770692826486817	0.627835683629675	1024.0	0.0	50924.0	3554.0771484375	1257.0	0.7739130434782608	0.33535353535353535	-591.0	-0.5389221556886228	-491.0	-7.383813914403848	63.0	1.6649026686612958	-46.0	-0.21513524488637978	438.0	
0.9360758498211954	2013.0	10.150421747692123	1234.0	0.6891782289871811	1995.0	0.7847946045370937	-1280.0	-15872.0	9.731453096259962	0.4316370324954016	704.0	0.0	51564.0	3573.6083984375	1264.0	0.7891304347826087	0.34545454545454546	-586.0	-0.530938123752495	-495.0	-6.785924231835965	137.0	1.1885484382213853	-14.0	-1.3465894268831613	398.0	
0.7301548021170136	2016.0	10.252844735434218	1226.0	0.6519986700743072	2012.0	0.5885959534028203	-960.0	-15936.0	9.770692826486817	0.47087676272225626	768.0	0.0	52204.0	3593.1396484375	1263.0	0.7869565217391304	0.32525252525252524	-596.0	-0.5289421157684632	-496.0	-4.058310229370692	144.0	0.8680325250497486	-5.0	-1.4803294452348104	220.0	
0.7917241203083438	2020.0	10.264757630000746	1225.0	0.6045407211175486	2007.0	0.5493562231759657	-896.0	-16064.0	9.849172286940528	0.4316370324954016	704.0	0.0	52844.0	3612.6708984375	1258.0	0.7760869565217391	0.33131313131313134	-593.0	-0.5748502994011977	-473.0	-4.7394175816654	85.0	0.9245215718921651	-8.0	-0.5761799686700381	265.0	
0.8400072957937718	2020.0	10.215011771222818	1229.0	0.6045260942846236	2003.0	0.745554874310239	-1216.0	-16000.0	9.809932556713672	0.3531575720416922	576.0	0.0	53484.0	3632.2021484375	1260.0	0.7804347826086957	0.34949494949494947	-584.0	-0.5249500998003993	-498.0	-6.461969319261847	19.0	1.0942141040628806	-14.0	0.4448478300747478	378.0	
0.9481552788107852	2017.0	10.090178037634134	1239.0	0.6405038150921598	1994.0	0.745554874310239	-1216.0	-15872.0	9.731453096259962	0.3531575720416922	576.0	0.0	54124.0	3651.7333984375	1264.0	0.7891304347826087	0.3434343434343434	-587.0	-0.5409181636726548	-490.0	-6.954468208968129	-22.0	1.868166752161393	-65.0	1.073346963458503	411.0	
1.033614048103776	2016.0	10.112596566835592	1237.0	0.6536307808481887	1987.0	0.8240343347639485	-1344.0	-15872.0	9.731453096259962	0.4316370324954016	704.0	0.0	54764.0	3671.2646484375	1260.0	0.7804347826086957	0.36363636363636365	-577.0	-0.5449101796407186	-488.0	-6.80506754353492	-103.0	1.76351338806294	-62.0	2.3037921203022695	402.0	
0.8617246622060696	2015.0	10.006092971733349	1246.0	0.6628950438092734	2001.0	0.745554874310239	-1216.0	-15616.0	9.574494175352545	0.47087676272225626	768.0	0.0	55404.0	3690.7958984375	1259.0	0.7782608695652175	0.35555555555555557	-581.0	-0.5189620758483035	-501.0	-4.307710083623367	-71.0	1.8190600419352236	-76.0	1.7921265304940286	239.0	
0.9219493250729905	2011.0	9.9795276472842	1248.0	0.7114244082777885	1996.0	0.6670754138565297	-1088.0	-15680.0	9.613733905579398	0.47087676272225626	768.0	0.0	56044.0	3710.3271484375	1256.0	0.7717391304347826	0.33535353535353535	-591.0	-0.5568862275449102	-482.0	-3.801468204217794	-40.0	2.2674525389098537	-107.0	1.3155812219661323	206.0	
0.8500158824496065	2015.0	10.055100175448564	1242.0	0.663268028048861	2002.0	0.6670754138565297	-1088.0	-15680.0	9.613733905579398	0.510116492949111	832.0	0.0	56684.0	3729.8583984375	1260.0	0.7804347826086957	0.36363636363636365	-577.0	-0.5469061876247505	-487.0	-3.4974064801007145	3.0	2.6322696286838174	-131.0	0.6585482092876993	186.0	
0.9596183982648695	2015.0	10.040693963920182	1243.0	0.6642199910917299	1993.0	0.745554874310239	-1216.0	-15552.0	9.53525444512569	0.5493562231759657	896.0	0.0	57324.0	3749.3896484375	1263.0	0.7869565217391304	0.36767676767676766	-575.0	-0.5149700598802396	-503.0	-4.576922244989512	58.0	2.9507590544394686	-145.0	-0.1671585342040973	256.0	
1.0693351091130892	2012.0	10.074333432754674	1240.0	0.7017981312018099	1984.0	0.9025137952176578	-1472.0	-15808.0	9.692213366033108	0.47087676272225626	768.0	0.0	57964.0	3768.9208984375	1263.0	0.7869565217391304	0.3474747474747475	-585.0	-0.5429141716566867	-489.0	-4.805522033454778	47.0	2.9449850807593996	-144.0	0.002427843908692251	271.0	
1.0694579392642787	2013.0	10.074571867754042	1240.0	0.6897535510822311	1984.0	0.9417535254445125	-1536.0	-15808.0	9.692213366033108	0.39239730226854685	640.0	0.0	58604.0	3788.4521484375	1262.0	0.7847826086956522	0.3595959595959596	-579.0	-0.5229540918163673	-499.0	-3.4835216420308797	53.0	3.2464291410816393	-170.0	-0.10204691285725775	185.0	
1.0690959251493848	2013.0	10.038001128733308	1243.0	0.6893842235508749	1984.0	0.8632740649908032	-1408.0	-15616.0	9.574494175352545	0.510116492949111	832.0	0.0	59244.0	3807.9833984375	1261.0	0.782608695652174	0.3434343434343434	-587.0	-0.5728542914171657	-474.0	-3.4969034528135063	117.0	2.88149827512944	-143.0	-1.0752971251676824	185.0	
1.0317975011906326	2013.0	9.965598305754554	1249.0	0.6882872110814999	1987.0	0.8240343347639485	-1344.0	-15616.0	9.574494175352545	0.47087676272225626	768.0	0.0	59884.0	3827.5146484375	1262.0	0.7847826086956522	0.35353535353535354	-582.0	-0.5109780439121757	-505.0	-4.317270715531926	151.0	2.7044076835428887	-126.0	-1.584203718700194	238.0	
1.0695807694154682	2014.0	10.074810302753411	1240.0	0.6777089709626524	1984.0	0.9025137952176578	-1472.0	-15808.0	9.692213366033108	0.47087676272225626	768.0	0.0	60524.0	3847.0458984375	1256.0	0.7717391304347826	0.3717171717171717	-573.0	-0.5349301397205589	-493.0	-3.9168338175100668	158.0	2.9506608980399136	-144.0	-1.6946719660074088	212.0	
0.947543286834396	2013.0	10.077034051296417	1240.0	0.6885590263933561	1994.0	0.7847946045370937	-1280.0	-15744.0	9.652973635806253	0.510116492949111	832.0	0.0	61164.0	3866.5771484375	1261.0	0.782608695652174	0.35555555555555557	-581.0	-0.5209580838323354	-500.0	-3.932458672069351	161.0	2.9685659867224	-145.0	-1.7401430938876716	213.0	
1.0455598530443855	2014.0	10.111873478482618	1237.0	0.6778393935562337	1986.0	0.9025137952176578	-1472.0	-15744.0	9.652973635806253	0.47087676272225626	768.0	0.0	61804.0	3886.1083984375	1260.0	0.7804347826086957	0.3575757575757576	-580.0	-0.5568862275449102	-482.0	-4.932027818225433	107.0	3.485044408208277	-177.0	-0.9088546267607115	279.0	
1.094084371273076	2014.0	10.08650811238518	1239.0	0.6780709850775462	1982.0	0.9025137952176578	-1472.0	-15744.0	9.652973635806253	0.47087676272225626	768.0	0.0	62444.0	3905.6396484375	1254.0	0.7673913043478261	0.34949494949494947	-584.0	-0.5489021956087825	-486.0	-3.106998012420524	127.0	3.6550472053188767	-196.0	-1.231287434324464	160.0	
1.1434579066623016	2016.0	10.1225708479877	1236.0	0.654828962245295	1978.0	0.9417535254445125	-1536.0	-15808.0	9.692213366033108	0.47087676272225626	768.0	0.0	63084.0	3925.1708984375	1261.0	0.782608695652174	0.3616161616161616	-578.0	-0.5209580838323354	-500.0	-2.2962193821360644	131.0	3.451125435245865	-186.0	-1.3002317225284492	107.0	
1.1443047650432787	2017.0	10.195950761028534	1230.0	0.6435230371884287	1978.0	0.9025137952176578	-1472.0	-15872.0	9.731453096259962	0.39239730226854685	640.0	0.0	63724.0	3944.7021484375	1258.0	0.7760869565217391	0.3616161616161616	-578.0	-0.5489021956087825	-486.0	-2.8368696969864886	141.0	3.2549582873795533	-170.0	-1.446916474132797	142.0	
1.1801508149833395	2015.0	10.145974250606107	1234.0	0.6674781181257737	1975.0	1.0594727161250765	-1728.0	-15872.0	9.731453096259962	0.47087676272225626	768.0	0.0	64364.0	3964.2333984375	1258.0	0.7760869565217391	0.3656565656565657	-576.0	-0.5369261477045909	-492.0	-4.41890462064039	121.0	2.828162986501229	-135.0	-1.1269136153905543	245.0	
1.2162360488871045	2012.0	10.132330044205048	1235.0	0.7038471067140538	1972.0	1.0987124463519313	-1792.0	-15936.0	9.770692826486817	0.47087676272225626	768.0	0.0	65004.0	3983.7646484375	1256.0	0.7717391304347826	0.37575757575757573	-571.0	-0.5728542914171657	-474.0	-3.6625063721185276	68.0	2.45841675118211	-116.0	-0.3283939476856589	196.0	
1.241110299977839	2016.0	10.132791347494043	1235.0	0.6559076911735138	1970.0	1.0987124463519313	-1792.0	-15936.0	9.770692826486817	0.47087676272225626	768.0	0.0	108.0	4003.2958984375	1258.0	0.7760869565217391	0.36363636363636365	-577.0	-0.5508982035928145	-485.0	-2.27820334005503	50.0	2.4860512235414185	-125.0	-0.06847271945116074	106.0	
1.1799073134605187	2014.0	10.133545569266495	1235.0	0.6793995890682337	1975.0	0.9809932556713672	-1600.0	-15872.0	9.731453096259962	0.47087676272225626	768.0	0.0	748.0	4022.8271484375	1261.0	0.782608695652174	0.3838383838383838	-567.0	-0.5149700598802396	-503.0	-1.2848593649875633	59.0	2.1975022118259364	-110.0	-0.21528828847940196	41.0	
1.155767884497363	2015.0	10.146466687314582	1234.0	0.6672392131879987	1977.0	1.020232985898222	-1664.0	-16000.0	9.809932556713672	0.47087676272225626	768.0	0.0	1388.0	4042.3583984375	1262.0	0.7847826086956522	0.3616161616161616	-578.0	-0.5209580838323354	-500.0	-2.9088761473035682	35.0	2.1160229744413455	-98.0	0.16597089075060223	147.0	
1.1666233295341744	2011.0	10.059935004581162	1241.0	0.71467522189537	1976.0	1.020232985898222	-1664.0	-15744.0	9.652973635806253	0.5493562231759657	896.0	0.0	2028.0	4061.8896484375	1259.0	0.7782608695652175	0.36767676767676766	-575.0	-0.5449101796407186	-488.0	-2.652756137253015	44.0	1.773837224454159	-76.0	0.02652756137253015	130.0	
1.093720198378624	2013.0	10.061889184705322	1241.0	0.6898693468428874	1982.0	0.9417535254445125	-1536.0	-15616.0	9.574494175352545	0.510116492949111	832.0	0.0	2668.0	4081.4208984375	1257.0	0.7739130434782608	0.3575757575757576	-580.0	-0.5808383233532934	-470.0	-1.4921446601578285	68.0	1.5577343886233483	-66.0	-0.3500975648052659	54.0	
1.179801753545795	2021.0	10.037692643540113	1243.0	0.5941026548142324	1975.0	1.0987124463519313	-1792.0	-15552.0	9.53525444512569	0.3139178418148375	512.0	0.0	3308.0	4100.9521484375	1261.0	0.782608695652174	0.3616161616161616	-578.0	-0.5508982035928145	-485.0	-1.6393372530939152	77.0	2.3230794656690996	-116.0	-0.48550776815347163	64.0	
1.203945500068067	2022.0	10.000867902810272	1246.0	0.5819276521010723	1973.0	0.9809932556713672	-1600.0	-15616.0	9.574494175352545	0.3139178418148375	512.0	0.0	3948.0	4120.4833984375	1261.0	0.782608695652174	0.36363636363636365	-577.0	-0.5628742514970061	-479.0	-1.7989048832277628	39.0	2.6708875919590045	-140.0	0.09403467620870348	75.0	
1.2154064607425932	2019.0	9.963335640437197	1249.0	0.61781151739734	1972.0	1.0594727161250765	-1728.0	-15552.0	9.53525444512569	0.39239730226854685	640.0	0.0	4588.0	4140.0146484375	1258.0	0.7760869565217391	0.38181818181818183	-568.0	-0.5249500998003993	-498.0	-3.212071412946631	22.0	2.2941341609123396	-109.0	0.3667214745857401	167.0	
1.311604321259881	2016.0	9.863128617883238	1257.0	0.6539160040902262	1964.0	1.137952176578786	-1856.0	-15424.0	9.45677498467198	0.510116492949111	832.0	0.0	5228.0	4159.5458984375	1256.0	0.7717391304347826	0.3696969696969697	-574.0	-0.5369261477045909	-492.0	-3.8548530838286275	28.0	2.567409511541684	-124.0	0.281894538442849	209.0	
1.2633189869948946	2015.0	9.924826288002043	1252.0	0.6660983202198487	1968.0	1.0594727161250765	-1728.0	-15488.0	9.496014714898834	0.510116492949111	832.0	0.0	5868.0	4179.0771484375	1258.0	0.7760869565217391	0.38181818181818183	-568.0	-0.5568862275449102	-482.0	-3.309952473406363	56.0	2.2316760708779695	-103.0	-0.14940998096935845	173.0	
1.2633146694357784	2013.0	9.948729910683797	1250.0	0.6904336988132438	1968.0	1.137952176578786	-1856.0	-15424.0	9.45677498467198	0.47087676272225626	768.0	0.0	6508.0	4198.6083984375	1257.0	0.7739130434782608	0.3838383838383838	-567.0	-0.5189620758483035	-501.0	-3.8858033101503358	96.0	2.041217326157665	-86.0	-0.7520164916133256	210.0	
1.216124012633706	2016.0	10.072332552501296	1240.0	0.655053240350145	1972.0	1.020232985898222	-1664.0	-15744.0	9.652973635806253	0.47087676272225626	768.0	0.0	7148.0	4218.1396484375	1257.0	0.7739130434782608	0.3838383838383838	-567.0	-0.5249500998003993	-498.0	-2.894210032782253	117.0	1.7600905432301972	-71.0	-1.081324059367995	145.0	
1.1923487565650024	2018.0	10.10987259822924	1237.0	0.6310945027045688	1974.0	1.020232985898222	-1664.0	-15808.0	9.692213366033108	0.4316370324954016	704.0	0.0	7788.0	4237.6708984375	1255.0	0.7695652173913043	0.38181818181818183	-568.0	-0.5588822355289422	-481.0	-3.204021172133312	74.0	2.3551938526365777	-111.0	-0.42423355253722206	166.0	
1.2897619659168353	2019.0	10.083760793714218	1239.0	0.6197593239818525	1966.0	1.137952176578786	-1856.0	-15680.0	9.613733905579398	0.39239730226854685	640.0	0.0	8428.0	4257.2021484375	1255.0	0.7695652173913043	0.3898989898989899	-564.0	-0.5209580838323354	-500.0	-4.8001827636385075	-5.0	2.6880909303697047	-129.0	0.7932489759253585	271.0	
1.3988731611273404	2015.0	10.068400842188366	1240.0	0.6688896075030364	1957.0	1.2949110974862048	-2112.0	-15680.0	9.613733905579398	0.510116492949111	832.0	0.0	9068.0	4276.7333984375	1262.0	0.7847826086956522	0.3797979797979798	-569.0	-0.5189620758483035	-501.0	-4.458573449335903	-43.0	2.506264517638677	-120.0	1.367779650843169	249.0	
1.3629129161543232	2020.0	10.070331672247917	1240.0	0.60830834949848	1960.0	1.137952176578786	-1856.0	-15808.0	9.692213366033108	0.39239730226854685	640.0	0.0	9708.0	4296.2646484375	1256.0	0.7717391304347826	0.38181818181818183	-568.0	-0.5588822355289422	-481.0	-2.580932469311961	3.0	2.193670443829772	-106.0	0.6493834691798117	126.0	
1.571139672596848	2023.0	10.127812496925205	1235.0	0.5748208469964252	1943.0	1.3733905579399142	-2240.0	-15872.0	9.731453096259962	0.3531575720416922	576.0	0.0	10348.0	4315.7958984375	1260.0	0.7804347826086957	0.38181818181818183	-568.0	-0.5429141716566867	-489.0	-3.0893588065246416	-12.0	1.7701563291708253	-76.0	0.8826046146812161	159.0	
1.4365465518783358	2021.0	10.105663536142593	1237.0	0.5973498117235826	1954.0	1.3341508277130594	-2176.0	-15936.0	9.770692826486817	0.39239730226854685	640.0	0.0	10988.0	4335.3271484375	1260.0	0.7804347826086957	0.3696969696969697	-574.0	-0.5249500998003993	-498.0	0.2246492332648489	-45.0	1.1596052340190781	-52.0	1.351365674967732	-57.0	
1.2164903443077162	2018.0	10.084999668840275	1239.0	0.6310871892881063	1972.0	1.0594727161250765	-1728.0	-15744.0	9.652973635806253	0.47087676272225626	768.0	0.0	11628.0	4354.8583984375	1257.0	0.7739130434782608	0.3939393939393939	-562.0	-0.5429141716566867	-489.0	3.622407493771091	-48.0	0.17167097662451253	-2.0	1.363015468788525	-279.0	
1.2396622435182638	2016.0	9.986508391411109	1247.0	0.6544303810480887	1970.0	1.137952176578786	-1856.0	-15552.0	9.53525444512569	0.4316370324954016	704.0	0.0	12268.0	4374.3896484375	1252.0	0.7630434782608696	0.3797979797979798	-569.0	-0.5688622754491018	-476.0	3.3402144339333715	-68.0	0.808829470630279	-44.0	1.6700199088926058	-260.0	
0.7896770245497289	2022.0	10.033619819534836	1244.0	0.5781124865131346	2007.0	0.6670754138565297	-1088.0	-15744.0	9.652973635806253	0.4316370324954016	704.0	0.0	12908.0	4393.9208984375	1262.0	0.7847826086956522	0.38181818181818183	-568.0	-0.5508982035928145	-485.0	5.737281136019264	33.0	1.0932435925365274	-70.0	0.10992756886794425	-417.0	
1.3507300860295677	2024.0	10.022770645238648	1244.0	0.5595181398428025	1961.0	1.2164316370324952	-1984.0	-15680.0	9.613733905579398	0.3531575720416922	576.0	0.0	13548.0	4413.4521484375	1258.0	0.7760869565217391	0.38585858585858585	-566.0	-0.5469061876247505	-487.0	-5.993784824221821	-23.0	1.230979681135253	-27.0	1.0789492550863249	348.0	
1.5332400505594976	2024.0	9.98250663090435	1247.0	0.5609405993447588	1946.0	1.3341508277130594	-2176.0	-15808.0	9.692213366033108	0.3531575720416922	576.0	0.0	14188.0	4432.9833984375	1256.0	0.7717391304347826	0.39595959595959596	-561.0	-0.5229540918163673	-499.0	-6.582059664664601	-28.0	2.1834245135706953	-88.0	1.1608776308671784	387.0	
1.2050401775309811	2026.0	10.062772874508966	1241.0	0.5343648775083512	1973.0	1.0594727161250765	-1728.0	-15680.0	9.613733905579398	0.39239730226854685	640.0	0.0	14828.0	4452.5146484375	1260.0	0.7804347826086957	0.37575757575757573	-571.0	-0.5489021956087825	-486.0	0.7328414405430322	25.0	2.396205915069642	-134.0	0.2816449696249879	-90.0	
1.4483911144633377	2028.0	9.985183899381484	1247.0	0.5119261115842312	1953.0	1.3733905579399142	-2240.0	-15680.0	9.613733905579398	0.3139178418148375	512.0	0.0	15468.0	4472.0458984375	1258.0	0.7760869565217391	0.38585858585858585	-566.0	-0.56686626746507	-477.0	-0.20400032402868284	41.0	2.576091468424897	-141.0	0.04766737966614235	-29.0	
1.0325387996568858	2021.0	9.943125293069007	1251.0	0.5916843517706323	1987.0	0.9025137952176578	-1472.0	-15552.0	9.53525444512569	0.3531575720416922	576.0	0.0	16108.0	4491.5771484375	1258.0	0.7760869565217391	0.3878787878787879	-565.0	-0.532934131736527	-494.0	1.808469021730802	10.0	2.297224256385676	-133.0	0.49902557594238783	-160.0	
1.0572772679190814	2018.0	10.015059029403895	1245.0	0.6287956521298561	1985.0	0.8632740649908032	-1408.0	-15616.0	9.574494175352545	0.47087676272225626	768.0	0.0	16748.0	4511.1083984375	1263.0	0.7869565217391304	0.37373737373737376	-572.0	-0.5369261477045909	-492.0	1.1623043179178494	94.0	1.8835548539317337	-99.0	-0.7720793169434371	-119.0	
1.3132915616831604	2015.0	10.045743877987539	1242.0	0.6678072218665863	1964.0	1.0987124463519313	-1792.0	-15616.0	9.574494175352545	0.510116492949111	832.0	0.0	17388.0	4530.6396484375	1256.0	0.7717391304347826	0.3898989898989899	-564.0	-0.5389221556886228	-491.0	-4.455827378272036	132.0	2.372657209449613	-104.0	-1.2938447680423746	247.0	
1.1429752211757767	2016.0	10.073809862626721	1240.0	0.6543365255368199	1978.0	1.020232985898222	-1664.0	-15744.0	9.652973635806253	0.39239730226854685	640.0	0.0	18028.0	4550.1708984375	1255.0	0.7695652173913043	0.3898989898989899	-564.0	-0.5548902195608784	-483.0	-2.1694279810027783	206.0	3.4579431226565918	-184.0	-2.44218404718617	98.0	
1.460925164805196	2019.0	10.129074722115872	1235.0	0.6219240952547526	1952.0	1.2949110974862048	-2112.0	-15808.0	9.692213366033108	0.39239730226854685	640.0	0.0	18668.0	4569.7021484375	1258.0	0.7760869565217391	0.3797979797979798	-569.0	-0.56686626746507	-477.0	-2.1596308280199157	183.0	4.087946506541138	-227.0	-2.0924721327844398	98.0	
1.448128183924493	2018.0	10.080321520109763	1239.0	0.6333567861969689	1953.0	1.25567136725935	-2048.0	-15744.0	9.652973635806253	0.47087676272225626	768.0	0.0	19308.0	4589.2333984375	1251.0	0.7608695652173914	0.39595959595959596	-561.0	-0.5508982035928145	-485.0	-2.9239715073099384	135.0	3.662167984463397	-197.0	-1.3547907031778514	148.0	
1.4849460811762787	2019.0	10.092011546386663	1238.0	0.6217936726611714	1950.0	1.3733905579399142	-2240.0	-15808.0	9.692213366033108	0.39239730226854685	640.0	0.0	19948.0	4608.7646484375	1258.0	0.7760869565217391	0.4	-559.0	-0.5189620758483035	-501.0	-2.596708191404747	44.0	2.7744340385475574	-143.0	0.02596708191404747	127.0	
1.398752489755709	2015.0	10.056210595848121	1241.0	0.6687664983259176	1957.0	1.25567136725935	-2048.0	-15744.0	9.652973635806253	0.47087676272225626	768.0	0.0	20588.0	4628.2958984375	1259.0	0.7782608695652175	0.37575757575757573	-571.0	-0.5548902195608784	-483.0	-1.6209365461934844	56.0	2.3090231110695902	-116.0	-0.16630014024148723	63.0	
1.459959793832146	2019.0	10.031552751393916	1243.0	0.6209392218378026	1952.0	1.2949110974862048	-2112.0	-15680.0	9.613733905579398	0.3139178418148375	512.0	0.0	21228.0	4647.8271484375	1251.0	0.7608695652173914	0.39191919191919194	-563.0	-0.5548902195608784	-483.0	-3.6944844768704077	41.0	1.9194789405751251	-81.0	0.08257222119455959	198.0	
1.4349691889288967	2017.0	9.99499757908292	1246.0	0.6444201496078288	1954.0	1.2949110974862048	-2112.0	-15552.0	9.53525444512569	0.4316370324954016	704.0	0.0	21868.0	4667.3583984375	1259.0	0.7782608695652175	0.3939393939393939	-562.0	-0.5249500998003993	-498.0	-3.230073717380719	92.0	1.558362477729202	-57.0	-0.6977372856398811	167.0	
1.423628899626002	2020.0	10.04472008779624	1242.0	0.60865939348868	1955.0	1.2949110974862048	-2112.0	-15808.0	9.692213366033108	0.39239730226854685	640.0	0.0	22508.0	4686.8896484375	1255.0	0.7695652173913043	0.38181818181818183	-568.0	-0.530938123752495	-495.0	-3.8667711325904954	107.0	1.042086950684188	-19.0	-0.9195071936170609	208.0	
1.4359431950201795	2021.0	10.04471230444137	1242.0	0.5967342658379888	1954.0	1.25567136725935	-2048.0	-15744.0	9.652973635806253	0.4316370324954016	704.0	0.0	23148.0	4706.4208984375	1257.0	0.7739130434782608	0.4	-559.0	-0.5429141716566867	-489.0	-1.9834882898031696	78.0	1.6879705779255338	-72.0	-0.49727538326166415	86.0	
1.363277089048775	2021.0	10.094950599927774	1238.0	0.5965099877331388	1960.0	1.137952176578786	-1856.0	-15872.0	9.731453096259962	0.4316370324954016	704.0	0.0	23788.0	4725.9521484375	1261.0	0.782608695652174	0.39595959595959596	-561.0	-0.5409181636726548	-490.0	-2.1919053591316437	42.0	1.7855227915032668	-79.0	0.05233730454188678	100.0	
1.508372275807438	2023.0	9.946189893592724	1250.0	0.5723769469952064	1948.0	1.2949110974862048	-2112.0	-15552.0	9.53525444512569	0.3531575720416922	576.0	0.0	24428.0	4745.4833984375	1258.0	0.7760869565217391	0.3898989898989899	-564.0	-0.5489021956087825	-486.0	-3.2447868037074987	-2.0	1.7270877529723627	-72.0	0.7320676399001929	169.0	
1.4960579804132603	2022.0	9.946197676947595	1250.0	0.5843020746458976	1949.0	1.3341508277130594	-2176.0	-15552.0	9.53525444512569	0.4316370324954016	704.0	0.0	25068.0	4765.0146484375	1254.0	0.7673913043478261	0.4	-559.0	-0.5489021956087825	-486.0	-3.6002652988114496	-10.0	1.3571570386282321	-46.0	0.8572954286535138	192.0	
1.470948862917938	2021.0	9.885500446955477	1255.0	0.5954922039421074	1951.0	1.3341508277130594	-2176.0	-15360.0	9.417535254445125	0.3531575720416922	576.0	0.0	25708.0	4784.5458984375	1256.0	0.7717391304347826	0.39191919191919194	-563.0	-0.5269461077844312	-497.0	-3.751904160750045	35.0	0.6904398531127527	1.0	0.174401170885067	201.0	
1.4709445453588215	2019.0	9.909404069637231	1253.0	0.6198275825355025	1951.0	1.25567136725935	-2048.0	-15552.0	9.53525444512569	0.3531575720416922	576.0	0.0	26348.0	4804.0771484375	1255.0	0.7695652173913043	0.3878787878787879	-565.0	-0.5628742514970061	-479.0	-3.456157060176327	35.0	1.104638463608474	-28.0	0.17144369987932984	182.0	
1.4841078579135345	2022.0	9.97082438798232	1248.0	0.5844288405312476	1950.0	1.2949110974862048	-2112.0	-15680.0	9.613733905579398	0.3531575720416922	576.0	0.0	26988.0	4823.6083984375	1253.0	0.7652173913043478	0.40606060606060607	-556.0	-0.5528942115768464	-484.0	-3.91472943687966	45.0	1.4424888261796587	-48.0	0.023938168893511427	212.0	
1.5209300727244364	2025.0	9.958610791577467	1249.0	0.5485303484020551	1947.0	1.3341508277130594	-2176.0	-15488.0	9.496014714898834	0.3531575720416922	576.0	0.0	27628.0	4843.1396484375	1259.0	0.7782608695652175	0.4101010101010101	-554.0	-0.5269461077844312	-497.0	-4.2255697739768845	69.0	1.4187540591053958	-44.0	-0.33797243914236047	232.0	
1.5828614050306604	2029.0	10.007094425164729	1245.0	0.5014417269766526	1942.0	1.4518700183936235	-2368.0	-15680.0	9.613733905579398	0.3531575720416922	576.0	0.0	28268.0	4862.6708984375	1251.0	0.7608695652173914	0.3939393939393939	-562.0	-0.5608782435129741	-480.0	-4.563448539004778	65.0	1.3348894348384097	-37.0	-0.27375714959094083	254.0	
1.6319828037788326	2026.0	10.078535724791143	1239.0	0.5387919322736514	1938.0	1.5303494788473329	-2496.0	-15808.0	9.692213366033108	0.27467811158798283	448.0	0.0	28908.0	4882.2021484375	1253.0	0.7652173913043478	0.39191919191919194	-563.0	-0.5848303393213574	-468.0	-3.8525649878680457	86.0	0.6085324326647398	9.0	-0.6002576200832968	207.0	
1.4969156326920285	2028.0	9.959818533284045	1249.0	0.5121577031055438	1949.0	1.4126302881667687	-2304.0	-15616.0	9.574494175352545	0.3139178418148375	512.0	0.0	29548.0	4901.7333984375	1256.0	0.7717391304347826	0.402020202020202	-558.0	-0.5289421157684632	-496.0	-2.9152347915361796	142.0	0.03763255713214697	45.0	-1.4613419486625852	145.0	
1.36268452608841	2026.0	9.974240311522166	1248.0	0.5350559953640575	1960.0	1.2164316370324952	-1984.0	-15616.0	9.574494175352545	0.39239730226854685	640.0	0.0	30188.0	4921.2646484375	1253.0	0.7652173913043478	0.40606060606060607	-556.0	-0.5489021956087825	-486.0	-2.4031768247182703	128.0	0.3832813098267351	19.0	-1.2535347716767717	112.0	
1.4109633840147215	2024.0	9.948398075425992	1250.0	0.5593767471245275	1956.0	1.2164316370324952	-1984.0	-15616.0	9.574494175352545	0.3531575720416922	576.0	0.0	30828.0	4940.7958984375	1251.0	0.7608695652173914	0.4101010101010101	-554.0	-0.5429141716566867	-489.0	-3.065648611085222	108.0	1.3617497819095807	-44.0	-0.9427275443073988	156.0	
1.544711805131815	2026.0	9.885215311826892	1255.0	0.5359860181575388	1945.0	1.3341508277130594	-2176.0	-15360.0	9.417535254445125	0.3139178418148375	512.0	0.0	31468.0	4960.3271484375	1254.0	0.7673913043478261	0.4080808080808081	-555.0	-0.5588822355289422	-481.0	-2.736247080085559	104.0	2.0110526439416256	-89.0	-0.8851850577162548	135.0	
1.4592487182797076	2025.0	9.886700405307186	1255.0	0.547194430994905	1952.0	1.3341508277130594	-2176.0	-15360.0	9.417535254445125	0.3139178418148375	512.0	0.0	32108.0	4979.8583984375	1254.0	0.7673913043478261	0.39595959595959596	-561.0	-0.56686626746507	-477.0	-2.683722953797361	84.0	2.3550497543267612	-113.0	-0.5815277894734333	132.0	
1.7134615765875503	2026.0	9.686724313423655	1271.0	0.5356886058880638	1931.0	1.6088289393010422	-2624.0	-15040.0	9.221336603310851	0.3139178418148375	512.0	0.0	32748.0	4999.3896484375	1255.0	0.7695652173913043	0.4222222222222222	-548.0	-0.5568862275449102	-482.0	-5.965837942070227	84.0	2.5834849575105525	-113.0	-0.5487066395907046	346.0	
1.7011472811933726	2025.0	9.686732096778526	1271.0	0.547613733538755	1932.0	1.6088289393010422	-2624.0	-15168.0	9.299816063764561	0.3531575720416922	576.0	0.0	33388.0	5018.9208984375	1255.0	0.7695652173913043	0.4121212121212121	-553.0	-0.5249500998003993	-498.0	-5.098702992764964	114.0	2.271518248142982	-95.0	-1.0136517533423126	289.0	
1.6030122023913103	2025.0	9.627750611911203	1276.0	0.5460425679020611	1940.0	1.491109748620478	-2432.0	-14976.0	9.182096873083998	0.27467811158798283	448.0	0.0	34028.0	5038.4521484375	1250.0	0.7586956521739131	0.4101010101010101	-554.0	-0.5628742514970061	-479.0	-5.512655850093032	175.0	1.707754475751422	-53.0	-1.9372688787614274	315.0	
1.6757925033956715	2022.0	9.625557996787673	1276.0	0.5828930230741225	1934.0	1.5303494788473329	-2496.0	-14976.0	9.182096873083998	0.3139178418148375	512.0	0.0	34668.0	5057.9833984375	1253.0	0.7652173913043478	0.42424242424242425	-547.0	-0.5369261477045909	-492.0	-8.216483032823422	169.0	1.3525605226228552	-17.0	-1.8189758540824121	491.0	
1.6889601335095008	2027.0	9.663074692451008	1273.0	0.5231589024764725	1933.0	1.6088289393010422	-2624.0	-14912.0	9.142857142857142	0.3139178418148375	512.0	0.0	35308.0	5077.5146484375	1254.0	0.7673913043478261	0.42828282828282827	-545.0	-0.532934131736527	-494.0	-8.342243702950844	228.0	1.9519296400660564	-54.0	-2.715056650422963	499.0	
1.6771414762791976	2032.0	9.640132593121596	1275.0	0.4625703310554536	1934.0	1.491109748620478	-2432.0	-15104.0	9.260576333537706	0.19619865113427343	320.0	0.0	35948.0	5097.0458984375	1248.0	0.7543478260869565	0.42828282828282827	-545.0	-0.5628742514970061	-479.0	-8.456002257748539	277.0	2.064619640152164	-59.0	-3.4591662131639596	506.0	
1.8484210289800727	2030.0	9.721540390545247	1268.0	0.48919359009886754	1920.0	1.765787860208461	-2880.0	-15296.0	9.37829552421827	0.23543838136112813	384.0	0.0	36588.0	5116.5771484375	1249.0	0.7565217391304347	0.4161616161616162	-551.0	-0.5469061876247505	-487.0	-7.460308361813404	274.0	1.8285767087086595	-48.0	-3.423495775697456	441.0	
1.6061734046288634	2036.0	9.813227092007917	1261.0	0.4153988242434761	1940.0	1.4518700183936235	-2368.0	-15424.0	9.45677498467198	0.15695892090741875	256.0	0.0	37228.0	5136.1083984375	1253.0	0.7652173913043478	0.41414141414141414	-552.0	-0.5409181636726548	-490.0	-5.5977616800544	382.0	2.48428706162151	-96.0	-5.084706793845845	319.0	
1.9112013784468325	2036.0	9.831452125832469	1259.0	0.4186313543199013	1915.0	1.765787860208461	-2880.0	-15360.0	9.417535254445125	0.15695892090741875	256.0	0.0	37868.0	5155.6396484375	1250.0	0.7586956521739131	0.43232323232323233	-543.0	-0.5588822355289422	-481.0	-6.540836444348975	351.0	2.860900832085829	-118.0	-4.603793156469059	381.0	
1.5103505109038187	2045.0	9.878293985537347	1256.0	0.306657529301761	1948.0	1.3733905579399142	-2240.0	-15296.0	9.37829552421827	0.11771919068056406	192.0	0.0	38508.0	5175.1708984375	1251.0	0.7608695652173914	0.44242424242424244	-538.0	-0.5449101796407186	-488.0	0.1542639856159021	411.0	4.125576666839189	-231.0	-5.583291689285817	-55.0	
1.7669681615260537	2042.0	9.969930065822213	1248.0	0.346284644924085	1927.0	1.648068669527897	-2688.0	-15552.0	9.53525444512569	0.15695892090741875	256.0	0.0	39148.0	5194.7021484375	1250.0	0.7586956521739131	0.4262626262626263	-546.0	-0.5708582834331338	-475.0	0.5558651628616604	371.0	3.773440549179909	-211.0	-4.978942682046868	-81.0	
1.547284761968119	2044.0	9.926077880836246	1252.0	0.3195529035364773	1945.0	1.4126302881667687	-2304.0	-15424.0	9.45677498467198	0.07847946045370938	128.0	0.0	39788.0	5214.2333984375	1252.0	0.7630434782608696	0.4303030303030303	-544.0	-0.5788423153692616	-471.0	1.8300256124642058	369.0	3.7734972743383044	-217.0	-4.961266035592322	-164.0	
1.6219979636981385	2042.0	10.106977395815754	1237.0	0.34620541624574125	1939.0	1.491109748620478	-2432.0	-15744.0	9.652973635806253	0.0	0.0	0.0	40428.0	5233.7646484375	1249.0	0.7565217391304347	0.4404040404040404	-539.0	-0.5409181636726548	-490.0	-2.0318272057249467	349.0	4.045107433852167	-218.0	-4.618464997904728	88.0	
1.865592402153316	2045.0	10.041817102027885	1242.0	0.31184517937916134	1919.0	1.7265481299816063	-2816.0	-15744.0	9.652973635806253	0.11771919068056406	192.0	0.0	41068.0	5253.2958984375	1247.0	0.7521739130434782	0.42828282828282827	-545.0	-0.5369261477045909	-492.0	-10.06621448303273	297.0	4.0329356724316625	-182.0	-3.7472466004168212	612.0	
2.036038049150563	2048.0	9.978134118365439	1247.0	0.27676822769925635	1905.0	1.883507050889025	-3072.0	-15552.0	9.53525444512569	0.07847946045370938	128.0	0.0	41708.0	5272.8271484375	1244.0	0.7456521739130435	0.45252525252525255	-533.0	-0.5628742514970061	-479.0	-14.034782860309386	250.0	3.965712296885937	-161.0	-2.9927320193056515	871.0	
1.9136277585568067	2042.0	10.003546184592096	1245.0	0.3480874020820914	1915.0	1.765787860208461	-2880.0	-15616.0	9.574494175352545	0.15695892090741875	256.0	0.0	42348.0	5292.3583984375	1246.0	0.75	0.45252525252525255	-533.0	-0.5409181636726548	-490.0	-11.742324355317617	188.0	3.588528508782291	-149.0	-2.0726908248878884	722.0	
2.023210845356046	2033.0	10.096706275131606	1237.0	0.45854856879523787	1906.0	1.9227467811158798	-3136.0	-15744.0	9.652973635806253	0.23543838136112813	384.0	0.0	42988.0	5311.8896484375	1250.0	0.7586956521739131	0.4505050505050505	-534.0	-0.564870259481038	-478.0	-13.612204753995277	120.0	2.8077381458461765	-91.0	-1.0197714885817204	844.0	
2.0478351185852848	2033.0	10.12059433110362	1235.0	0.45903369208725037	1904.0	1.9227467811158798	-3136.0	-15872.0	9.731453096259962	0.23543838136112813	384.0	0.0	43628.0	5331.4208984375	1246.0	0.75	0.45656565656565656	-531.0	-0.5688622754491018	-476.0	-14.202883382791283	137.0	2.3194614488010386	-55.0	-1.2724198353736083	882.0	
2.1590171561295453	2038.0	10.20490226529403	1228.0	0.40074762794917546	1895.0	1.9619865113427344	-3200.0	-15936.0	9.770692826486817	0.19619865113427343	320.0	0.0	44268.0	5350.9521484375	1245.0	0.7478260869565218	0.4626262626262626	-528.0	-0.5568862275449102	-482.0	-12.810640772535317	181.0	2.549179498926244	-75.0	-1.9555437823887154	791.0	
2.1223350417062985	2044.0	10.12173980597124	1235.0	0.32726002558520906	1898.0	1.9619865113427344	-3200.0	-15936.0	9.770692826486817	0.07847946045370938	128.0	0.0	44908.0	5370.4833984375	1240.0	0.7369565217391304	0.45454545454545453	-532.0	-0.5828343313373254	-469.0	-10.92009884242922	217.0	1.8397987713502328	-35.0	-2.5219777188000423	667.0	
2.1592649752114825	2041.0	10.19342732395189	1229.0	0.3644907784133204	1895.0	2.040465971796444	-3328.0	-16000.0	9.809932556713672	0.15695892090741875	256.0	0.0	45548.0	5390.0146484375	1243.0	0.7434782608695653	0.47878787878787876	-520.0	-0.5628742514970061	-479.0	-9.481449595715791	209.0	1.3150117586793608	-7.0	-2.414691207464895	573.0	
2.2202330953242146	2046.0	10.132437175476321	1234.0	0.30424959427427034	1890.0	2.0797057020232983	-3392.0	-15936.0	9.770692826486817	0.07847946045370938	128.0	0.0	46188.0	5409.5458984375	1241.0	0.7391304347826088	0.45656565656565656	-531.0	-0.596806387225549	-462.0	-9.14635451166329	229.0	1.3638264562020388	-11.0	-2.722224667811124	551.0	
2.0617569998427165	2052.0	10.063927146036148	1240.0	0.22969057639854762	1903.0	1.9227467811158798	-3136.0	-15808.0	9.692213366033108	0.03923973022685469	64.0	0.0	46828.0	5429.0771484375	1242.0	0.741304347826087	0.46060606060606063	-529.0	-0.5568862275449102	-482.0	-6.165909459680208	285.0	0.9805608691748917	3.0	-3.603740144946925	356.0	
2.2818110486337777	2054.0	10.096542824679341	1237.0	0.20812088813072152	1885.0	2.2366646229307174	-3648.0	-15808.0	9.692213366033108	0.0	0.0	0.0	47468.0	5448.6083984375	1240.0	0.7369565217391304	0.47878787878787876	-520.0	-0.5708582834331338	-475.0	-6.871331464215735	267.0	0.7638351066302183	20.0	-3.322921666346436	402.0	
2.172577023272084	2057.0	10.111664341205827	1236.0	0.1710351847291164	1894.0	2.118945432250153	-3456.0	-15872.0	9.731453096259962	0.0	0.0	0.0	48108.0	5468.1396484375	1241.0	0.7391304347826088	0.48282828282828283	-518.0	-0.5489021956087825	-486.0	-5.299945427704375	260.0	1.2499082332809852	-20.0	-3.2321716483845537	300.0	
2.269378240647527	2054.0	10.07240855035309	1239.0	0.2077552173075965	1886.0	2.158185162477008	-3520.0	-15808.0	9.692213366033108	0.0	0.0	0.0	48748.0	5487.6708984375	1243.0	0.7434782608695653	0.47474747474747475	-522.0	-0.5808383233532934	-470.0	-4.852519389066691	249.0	1.3170228920195584	-27.0	-3.0693455285427933	271.0	
2.2337821685689616	2060.0	10.098958308092499	1237.0	0.13537559753769893	1889.0	2.0797057020232983	-3392.0	-15808.0	9.692213366033108	-0.07847946045370938	-128.0	0.0	49388.0	5507.2021484375	1241.0	0.7391304347826088	0.4808080808080808	-519.0	-0.5828343313373254	-469.0	-3.7044494739712555	260.0	1.1838392261455377	-23.0	-3.248126607921885	196.0	
2.20844034344861	2063.0	9.966073340056386	1248.0	0.09764875129288128	1891.0	2.0797057020232983	-3392.0	-15616.0	9.574494175352545	-0.11771919068056406	-192.0	0.0	50028.0	5526.7333984375	1239.0	0.7347826086956522	0.4909090909090909	-514.0	-0.5489021956087825	-486.0	-5.01279584324824	183.0	1.1680860119908338	-19.0	-2.0639404826321566	282.0	
2.208313195738304	2060.0	9.989738527738773	1246.0	0.1340287100058551	1891.0	2.001226241569589	-3264.0	-15744.0	9.652973635806253	-0.07847946045370938	-128.0	0.0	50668.0	5546.2646484375	1243.0	0.7434782608695653	0.4808080808080808	-519.0	-0.5449101796407186	-488.0	-4.437221132185676	149.0	1.4221841801651363	-40.0	-1.5525859635830865	245.0	
2.1238284325365955	2065.0	10.017034723895764	1244.0	0.07321586047998624	1898.0	2.0797057020232983	-3392.0	-15744.0	9.652973635806253	-0.15695892090741875	-256.0	0.0	51308.0	5565.7958984375	1236.0	0.7282608695652174	0.494949494949495	-512.0	-0.564870259481038	-478.0	-3.828703067015014	221.0	1.9783562428787391	-77.0	-2.6537281784553253	205.0	
2.171747435127572	2064.0	9.942669937437977	1250.0	0.08499959541240248	1894.0	2.040465971796444	-3328.0	-15616.0	9.574494175352545	-0.19619865113427343	-320.0	0.0	51948.0	5585.3271484375	1241.0	0.7391304347826088	0.4909090909090909	-514.0	-0.56686626746507	-477.0	-4.04296740950552	160.0	2.6458139473701756	-123.0	-1.7238288810380247	220.0	
2.268798630364511	2065.0	9.879987393902223	1255.0	0.07329508915833	1886.0	2.1974248927038627	-3584.0	-15488.0	9.496014714898834	-0.15695892090741875	-256.0	0.0	52588.0	5604.8583984375	1242.0	0.741304347826087	0.4727272727272727	-523.0	-0.5688622754491018	-476.0	-4.276077961955547	121.0	3.297982370996794	-167.0	-1.1283418819774027	236.0	
2.2916063566806066	2062.0	9.756877188793199	1265.0	0.10843664268365372	1884.0	2.0797057020232983	-3392.0	-15360.0	9.417535254445125	-0.19619865113427343	-320.0	0.0	53228.0	5624.3896484375	1237.0	0.7304347826086957	0.4909090909090909	-514.0	-0.5808383233532934	-470.0	-3.760940616895227	90.0	3.6930446086350197	-197.0	-0.6620103656941656	203.0	
2.438755115536559	2065.0	9.803398858901431	1261.0	0.07422876866004255	1872.0	2.3151440833844266	-3776.0	-15552.0	9.53525444512569	-0.11771919068056406	-192.0	0.0	53868.0	5643.9208984375	1239.0	0.7347826086956522	0.501010101010101	-509.0	-0.5528942115768464	-484.0	-4.13877063167459	127.0	3.307068474671434	-168.0	-1.2209697081319235	227.0	
2.437425571669057	2064.0	9.681257960499618	1271.0	0.08504225700843374	1872.0	2.3151440833844266	-3776.0	-15232.0	9.339055793991415	-0.19619865113427343	-320.0	0.0	54508.0	5663.4521484375	1239.0	0.7347826086956522	0.47878787878787876	-520.0	-0.5788423153692616	-471.0	-2.994891364440014	139.0	2.76998724170814	-137.0	-1.4149180065076912	152.0	
2.3770651259735978	2061.0	9.779295717994659	1263.0	0.12156360843968256	1877.0	2.275904353157572	-3712.0	-15360.0	9.417535254445125	-0.11771919068056406	-192.0	0.0	55148.0	5682.9833984375	1239.0	0.7347826086956522	0.501010101010101	-509.0	-0.5808383233532934	-470.0	-0.452114341282973	173.0	2.7936044165203087	-149.0	-1.9574560428989576	-14.0	
2.5336126382885538	2056.0	9.640809994650041	1274.0	0.18198519018480763	1864.0	2.3151440833844266	-3776.0	-15104.0	9.260576333537706	0.03923973022685469	64.0	0.0	55788.0	5702.5146484375	1233.0	0.7217391304347827	0.4868686868686869	-516.0	-0.6067864271457086	-457.0	4.621714777124218	207.0	2.686037876747445	-164.0	-2.525304600242725	-345.0	
1.9987655305465095	2060.0	9.762309559296165	1265.0	0.12965894366951106	1908.0	1.883507050889025	-3072.0	-15360.0	9.417535254445125	-0.11771919068056406	-192.0	0.0	56428.0	5722.0458984375	1240.0	0.7369565217391304	0.4909090909090909	-514.0	-0.5748502994011977	-473.0	8.744400980884885	292.0	3.3953376797136063	-227.0	-3.8593071276795716	-614.0	
2.060455520109471	2064.0	9.786412700202938	1263.0	0.08232410388987108	1903.0	1.883507050889025	-3072.0	-15488.0	9.496014714898834	-0.15695892090741875	-256.0	0.0	57068.0	5741.5771484375	1237.0	0.7304347826086957	0.498989898989899	-510.0	-0.5628742514970061	-479.0	-0.16270035063031085	239.0	3.578230985180059	-200.0	-2.964152464174305	-33.0	
2.365729154229819	2066.0	9.805114604026224	1261.0	0.06146747372713875	1878.0	2.2366646229307174	-3648.0	-15424.0	9.45677498467198	-0.11771919068056406	-192.0	0.0	57708.0	5761.1083984375	1236.0	0.7282608695652174	0.48282828282828283	-518.0	-0.5868263473053893	-467.0	-7.481429863040709	203.0	3.2411257124124857	-145.0	-2.3434366519399354	444.0	
2.5233648676690144	2062.0	9.764389286402931	1264.0	0.11082934876963511	1865.0	2.393623543838136	-3904.0	-15232.0	9.339055793991415	-0.15695892090741875	-256.0	0.0	58348.0	5780.6396484375	1238.0	0.7326086956521739	0.4888888888888889	-515.0	-0.5808383233532934	-470.0	-5.20836981937128	175.0	2.9759314903520186	-139.0	-1.9403117390686448	296.0	
2.670147294850957	2063.0	9.798243840172184	1261.0	0.10058752580806271	1853.0	2.4721030042918453	-4032.0	-15616.0	9.574494175352545	-0.11771919068056406	-192.0	0.0	58988.0	5800.1708984375	1235.0	0.7260869565217392	0.4888888888888889	-515.0	-0.5768463073852296	-472.0	1.9648042826058743	179.0	3.618542317788025	-215.0	-2.0728799819895567	-171.0	
2.3535355302072727	2065.0	9.817312633721338	1260.0	0.07351571055494877	1879.0	2.3543838136112814	-3840.0	-15424.0	9.45677498467198	-0.15695892090741875	-256.0	0.0	59628.0	5819.7021484375	1237.0	0.7304347826086957	0.49696969696969695	-511.0	-0.5768463073852296	-472.0	12.117339567167518	230.0	3.63260765036591	-261.0	-2.950070734074717	-833.0	
2.0127778602617576	2065.0	9.88515797934121	1255.0	0.07078658731169234	1907.0	1.883507050889025	-3072.0	-15552.0	9.53525444512569	-0.19619865113427343	-320.0	0.0	60268.0	5839.2333984375	1238.0	0.7326086956521739	0.4686868686868687	-525.0	-0.6027944111776448	-459.0	9.922211994755525	194.0	3.0438472088113286	-213.0	-2.380590941240331	-690.0	
2.098837827633347	2063.0	9.980479551584768	1247.0	0.09669678825001246	1900.0	1.9619865113427344	-3200.0	-15680.0	9.613733905579398	-0.19619865113427343	-320.0	0.0	60908.0	5858.7646484375	1236.0	0.7282608695652174	0.4868686868686869	-516.0	-0.5928143712574852	-464.0	-0.6309414369443057	190.0	2.0517752965471088	-98.0	-2.214222905022192	-3.0	
2.48994303905937	2069.0	9.998411666925865	1245.0	0.028498004891177667	1868.0	2.393623543838136	-3904.0	-15616.0	9.574494175352545	-0.23543838136112813	-384.0	0.0	61548.0	5878.2958984375	1241.0	0.7391304347826088	0.4808080808080808	-519.0	-0.5748502994011977	-473.0	-5.624391495827053	205.0	1.7337822272648522	-53.0	-2.3924252865626423	322.0	
2.635753618929588	2067.0	9.97059968399579	1247.0	0.05377437640274775	1856.0	2.4328632740649905	-3968.0	-15616.0	9.574494175352545	-0.15695892090741875	-256.0	0.0	62188.0	5897.8271484375	1237.0	0.7304347826086957	0.4727272727272727	-523.0	-0.5928143712574852	-464.0	3.0233606416031074	266.0	1.82867910957695	-97.0	-3.406659461929339	-242.0	
2.1610148202419497	2069.0	10.029440055170767	1243.0	0.02551900658545249	1895.0	2.0797057020232983	-3392.0	-15680.0	9.613733905579398	-0.27467811158798283	-448.0	0.0	62828.0	5917.3583984375	1237.0	0.7304347826086957	0.48484848484848486	-517.0	-0.56686626746507	-477.0	16.135251724411656	334.0	1.827025528897555	-155.0	-4.571998905076816	-1097.0	
1.979235360280482	2072.0	10.1069901135239	1237.0	-0.011667865743883857	1910.0	1.8050275904353157	-2944.0	-15872.0	9.731453096259962	-0.27467811158798283	-448.0	0.0	63468.0	5936.8896484375	1238.0	0.7326086956521739	0.48282828282828283	-518.0	-0.56686626746507	-477.0	17.07842540837571	352.0	1.26258608339958	-121.0	-4.85519490047159	-1159.0	
1.955462262991336	2075.0	10.132578347910966	1235.0	-0.04779429268615766	1912.0	1.765787860208461	-2880.0	-16000.0	9.809932556713672	-0.19619865113427343	-320.0	0.0	64108.0	5956.4208984375	1236.0	0.7282608695652174	0.44646464646464645	-536.0	-0.6147704590818364	-453.0	11.194379734376703	290.0	-0.2696509448807903	6.0	-3.8533886642639197	-776.0	
2.090768618041845	2072.0	10.287627843439429	1222.0	-0.008746155867114927	1901.0	2.001226241569589	-3264.0	-16320.0	10.006131207847945	-0.27467811158798283	-448.0	0.0	64748.0	5975.9521484375	1239.0	0.7347826086956522	0.45252525252525255	-533.0	-0.5868263473053893	-467.0	4.41320171577599	194.0	0.05396098089996881	12.0	-2.3255008384505356	-333.0	
2.138099375231572	2078.0	10.068649145894284	1240.0	-0.08275179189717512	1897.0	2.040465971796444	-3328.0	-15872.0	9.731453096259962	-0.3531575720416922	-576.0	0.0	65388.0	5995.4833984375	1241.0	0.7391304347826088	0.45656565656565656	-531.0	-0.5888223552894213	-466.0	2.9510181603190744	251.0	0.5052483411540651	-9.0	-3.1777991549872215	-238.0	
2.1388277210204762	2080.0	10.117887001254	1236.0	-0.10634851542785762	1897.0	2.0797057020232983	-3392.0	-15808.0	9.692213366033108	-0.39239730226854685	-640.0	0.0	492.0	6015.0146484375	1241.0	0.7391304347826088	0.46060606060606063	-529.0	-0.596806387225549	-462.0	3.212950472252124	152.0	0.6366847678351586	-23.0	-1.6747150560533197	-254.0	
2.1385863782772137	2080.0	10.09350650857351	1238.0	-0.10659473378209512	1897.0	2.040465971796444	-3328.0	-15872.0	9.731453096259962	-0.39239730226854685	-640.0	0.0	1132.0	6034.5458984375	1235.0	0.7260869565217392	0.4686868686868687	-525.0	-0.5928143712574852	-464.0	7.264899258527755	87.0	1.1996831272140636	-82.0	-0.72664138802254	-517.0	
1.7354168493185078	2077.0	10.052155423904265	1242.0	-0.07489536160512163	1930.0	1.6088289393010422	-2624.0	-15744.0	9.652973635806253	-0.3139178418148375	-512.0	0.0	1772.0	6054.0771484375	1242.0	0.741304347826087	0.45454545454545453	-532.0	-0.6027944111776448	-459.0	11.798058619286195	64.0	1.4099129752005475	-118.0	-0.42216309569856536	-812.0	
1.6626365483141465	2080.0	10.054348039027794	1242.0	-0.11174581677718294	1936.0	1.491109748620478	-2432.0	-15744.0	9.652973635806253	-0.3531575720416922	-576.0	0.0	2412.0	6073.6083984375	1242.0	0.741304347826087	0.45252525252525255	-533.0	-0.6147704590818364	-453.0	6.320847373138315	36.0	1.174392507475083	-78.0	0.05846453007089823	-455.0	
2.076174519264023	2077.0	9.984310078284393	1247.0	-0.07216623836186521	1902.0	1.8442673206621703	-3008.0	-15744.0	9.652973635806253	-0.3139178418148375	-512.0	0.0	3052.0	6093.1396484375	1241.0	0.7391304347826088	0.46464646464646464	-527.0	-0.5708582834331338	-475.0	-3.45173228238097	-21.0	0.69544946430613	-3.0	1.023110478717346	182.0	
2.0764115444481686	2075.0	10.032594193646636	1243.0	-0.047584641414232645	1902.0	1.9619865113427344	-3200.0	-15680.0	9.613733905579398	-0.27467811158798283	-448.0	0.0	3692.0	6112.6708984375	1241.0	0.7391304347826088	0.44646464646464645	-536.0	-0.6187624750499002	-451.0	-4.025765749247202	-38.0	1.3547451456981152	-45.0	1.2874059464658563	220.0	
1.9559557423756522	2080.0	10.121580276567562	1236.0	-0.10814030246117023	1912.0	1.8442673206621703	-3008.0	-15744.0	9.652973635806253	-0.3531575720416922	-576.0	0.0	4332.0	6132.2021484375	1240.0	0.7369565217391304	0.46060606060606063	-529.0	-0.594810379241517	-463.0	0.2458637451489348	26.0	1.291277642830511	-58.0	0.27130562110364376	-59.0	
1.9559557423756522	2080.0	10.121580276567562	1236.0	-0.10814030246117023	1912.0	1.8050275904353157	-2944.0	-15872.0	9.731453096259962	-0.3139178418148375	-512.0	0.0	4972.0	6151.7333984375	1239.0	0.7347826086956522	0.4585858585858586	-530.0	-0.5708582834331338	-475.0	-0.14081357295099706	37.0	1.1599648581500066	-47.0	0.10787201405650618	-34.0	
2.004598773196416	2079.0	10.120356968151244	1236.0	-0.09561791246604143	1908.0	1.8442673206621703	-3008.0	-15872.0	9.731453096259962	-0.3531575720416922	-576.0	0.0	5612.0	6171.2646484375	1244.0	0.7456521739130435	0.45252525252525255	-533.0	-0.5768463073852296	-472.0	-1.5622046969194188	0.0	1.191406663430409	-44.0	0.6848235678817417	59.0	
