Device	Device	Device	Device	Device	Device	Device	Device	Device	Device	Device	Device	Device	Device	Device	Device	Device	Device	Device	Device	Device	Device	Device	Device	Device	Device	Device	
Low Noise Accelerometer X	Low Noise Accelerometer X	Low Noise Accelerometer Z	Low Noise Accelerometer Z	Low Noise Accelerometer Y	Low Noise Accelerometer Y	Wide Range Accelerometer X	Wide Range Accelerometer X	Wide Range Accelerometer Z	Wide Range Accelerometer Z	Wide Range Accelerometer Y	Wide Range Accelerometer Y	Event_Marker	Timestamp	Timestamp	Magnetometer Z	Magnetometer Z	Magnetometer X	Magnetometer X	Magnetometer Y	Magnetometer Y	Gyroscope Y	Gyroscope Y	Gyroscope Z	Gyroscope Z	Gyroscope X	Gyroscope X	
CAL	UNCAL	CAL	UNCAL	CAL	UNCAL	CAL	UNCAL	CAL	UNCAL	UNCAL	CAL	CAL	UNCAL	CAL	CAL	UNCAL	CAL	UNCAL	UNCAL	CAL	UNCAL	CAL	UNCAL	CAL	UNCAL	CAL	
m/(s^2)	no units	m/(s^2)	no units	m/(s^2)	no units	m/(s^2)	no units	m/(s^2)	no units	no units	m/(s^2)	no units	no units	ms	local_flux	no units	local_flux	no units	no units	local_flux	no units	deg/s	no units	deg/s	no units	deg/s	
-0.395220241774499	2007.0	10.005165489544382	1248.0	0.7467018621162528	2104.0	-0.47087676272225626	768.0	9.652973635806253	-15744.0	960.0	0.5885959534028203	0.0	38473.0	1174.102783203125	0.7869565217391304	1263.0	0.18585858585858586	-665.0	-472.0	-0.5768463073852296	150.0	-3.2098089263716445	-44.0	1.397334670651995	165.0	-1.5800692111165118	
-0.2005274471198135	2003.0	10.012462502219353	1247.0	0.7969145312738867	2088.0	-0.39239730226854685	640.0	9.613733905579398	-15680.0	896.0	0.5493562231759657	0.0	39113.0	1193.634033203125	0.8	1269.0	0.18787878787878787	-664.0	-479.0	-0.5628742514970061	109.0	-3.5908473630711653	-20.0	1.0390918901117914	190.0	-0.9526846822628247	
-0.29817552287623433	2005.0	9.978338380031255	1250.0	0.7715004237522729	2096.0	-0.4316370324954016	704.0	9.613733905579398	-15680.0	1024.0	0.627835683629675	0.0	39753.0	1213.165283203125	0.7934782608695652	1266.0	0.16767676767676767	-674.0	-460.0	-0.6007984031936129	131.0	-5.378090934133383	13.0	0.6821154493878168	306.0	-1.2694130070084761	
-0.18759900096968843	2009.0	10.013646893861324	1247.0	0.7247665030253017	2087.0	-0.27467811158798283	448.0	9.613733905579398	-15680.0	960.0	0.5885959534028203	0.0	40393.0	1232.696533203125	0.7956521739130434	1267.0	0.1696969696969697	-673.0	-478.0	-0.564870259481038	123.0	-3.9611273117487262	-19.0	1.0583879810577834	214.0	-1.1619096394300412	
-0.19978830743311854	2010.0	10.001941300874684	1248.0	0.7124793612597166	2088.0	-0.4316370324954016	704.0	9.731453096259962	-15872.0	768.0	0.47087676272225626	0.0	41033.0	1252.227783203125	0.7956521739130434	1267.0	0.19797979797979798	-659.0	-482.0	-0.5568862275449102	22.0	-5.100860779445045	9.0	0.6564784585417689	289.0	0.3856093682507242	
-0.1299019605683493	2008.0	9.69523096224441	1273.0	0.7342075068842302	2082.0	-0.39239730226854685	640.0	9.613733905579398	-15680.0	960.0	0.5885959534028203	0.0	41673.0	1271.759033203125	0.7869565217391304	1263.0	0.1898989898989899	-663.0	-468.0	-0.5848303393213574	-1.0	-4.7605410025142465	12.0	0.5738222953857451	267.0	0.7320160564129753	
-0.1266567862116546	2002.0	10.096078481476273	1240.0	0.8105375904466218	2082.0	-0.47087676272225626	768.0	9.692213366033108	-15808.0	896.0	0.5493562231759657	0.0	42313.0	1291.290283203125	0.7978260869565218	1268.0	0.19393939393939394	-661.0	-484.0	-0.5528942115768464	12.0	-4.478375342896381	61.0	-0.17254037293468089	248.0	0.5314757686380893	
-0.3109725037569371	2004.0	9.929585178025148	1254.0	0.7829331146944891	2097.0	-0.15695892090741875	256.0	9.613733905579398	-15680.0	1088.0	0.6670754138565297	0.0	42953.0	1310.821533203125	0.7804347826086957	1260.0	0.18181818181818182	-667.0	-448.0	-0.6247504990019961	144.0	-3.268576862379919	47.0	0.03345688780464212	168.0	-1.488226778904718	
-0.13919947167174557	2007.0	9.999994904105392	1248.0	0.7492103639628904	2083.0	-0.5493562231759657	896.0	9.45677498467198	-15424.0	704.0	0.4316370324954016	0.0	43593.0	1330.352783203125	0.7934782608695652	1266.0	0.18585858585858586	-665.0	-473.0	-0.5748502994011977	78.0	-10.486862958596893	75.0	0.07590740389906447	639.0	-0.4122416365737269	
0.056831501968674786	2008.0	10.081625569818673	1241.0	0.739938787585343	2067.0	-0.11771919068056406	192.0	9.652973635806253	-15744.0	960.0	0.5885959534028203	0.0	44233.0	1349.884033203125	0.7847826086956522	1262.0	0.2080808080808081	-654.0	-480.0	-0.5608782435129741	156.0	-8.39183221898872	40.0	0.5022833670896332	502.0	-1.6195037310420521	
0.057316346234758016	2009.0	10.118434743838774	1238.0	0.7282635349971206	2067.0	-0.07847946045370938	128.0	9.692213366033108	-15808.0	896.0	0.5493562231759657	0.0	44873.0	1369.415283203125	0.7934782608695652	1266.0	0.1919191919191919	-662.0	-477.0	-0.56686626746507	207.0	-2.941103363878848	52.0	-0.02597079023394344	146.0	-2.4496764188326945	
-0.12530997210768688	2011.0	10.122604889151072	1238.0	0.7023825877246505	2082.0	-0.19619865113427343	320.0	9.692213366033108	-15808.0	832.0	0.510116492949111	0.0	45513.0	1388.946533203125	0.7956521739130434	1267.0	0.19595959595959597	-660.0	-464.0	-0.5928143712574852	304.0	-2.2727305656515866	103.0	-0.7780958213008772	101.0	-3.931645317917629	
-0.06240463371017983	2019.0	10.220803248096784	1230.0	0.607608082529408	2077.0	-0.3139178418148375	512.0	9.692213366033108	-15808.0	640.0	0.39239730226854685	0.0	46153.0	1408.477783203125	0.7869565217391304	1263.0	0.21212121212121213	-652.0	-486.0	-0.5489021956087825	317.0	-9.332486991069274	122.0	-0.5636856000590506	561.0	-4.058766384842159	
0.17020073565920532	2020.0	10.30169525874735	1223.0	0.5986948635585232	2058.0	-0.03923973022685469	64.0	9.809932556713672	-16000.0	640.0	0.39239730226854685	0.0	46793.0	1428.009033203125	0.7913043478260869	1265.0	0.1919191919191919	-662.0	-484.0	-0.5528942115768464	285.0	-8.099810949205724	115.0	-0.564000006944237	481.0	-3.5844011300516696	
0.21945144089724156	2021.0	10.3375195593505	1220.0	0.5874974208458508	2054.0	0.07847946045370938	-128.0	10.006131207847945	-16320.0	640.0	0.39239730226854685	0.0	47433.0	1447.540283203125	0.7891304347826087	1264.0	0.21616161616161617	-650.0	-468.0	-0.5848303393213574	321.0	1.2974081653983922	109.0	-1.1061902941475172	-132.0	-4.225901838307976	
-0.21895862236381064	2021.0	10.395144405464029	1216.0	0.5836895686743755	2090.0	0.0	0.0	10.006131207847945	-16320.0	576.0	0.3531575720416922	0.0	48073.0	1467.071533203125	0.7891304347826087	1264.0	0.2101010101010101	-653.0	-479.0	-0.5628742514970061	293.0	7.017844509314654	138.0	-1.9561494929120609	-505.0	-3.8572506884391546	
-0.3045402218079909	2021.0	10.372487441263203	1218.0	0.5826071830379255	2097.0	-0.5885959534028203	960.0	9.849172286940528	-16064.0	640.0	0.39239730226854685	0.0	48713.0	1486.602783203125	0.7913043478260869	1265.0	0.2080808080808081	-654.0	-483.0	-0.5548902195608784	174.0	-1.3590692981050565	171.0	-1.940264352866162	42.0	-1.963595618806022	
-0.03705633225115325	2019.0	10.317832782110264	1222.0	0.608831860884133	2075.0	-0.3139178418148375	512.0	9.849172286940528	-16064.0	640.0	0.39239730226854685	0.0	49353.0	1506.134033203125	0.7782608695652175	1259.0	0.2101010101010101	-653.0	-468.0	-0.5848303393213574	34.0	-8.450212176166023	139.0	-1.052131791274686	506.0	0.23659337651451193	
0.16984303910342796	2022.0	10.241220897044862	1228.0	0.5739901574337719	2058.0	-0.11771919068056406	192.0	9.770692826486817	-15936.0	640.0	0.39239730226854685	0.0	49993.0	1525.665283203125	0.7804347826086957	1260.0	0.21414141414141413	-651.0	-483.0	-0.5548902195608784	36.0	-5.869695761284472	111.0	-0.8107288987648926	338.0	0.1803699614151261	
0.16947670742941778	2020.0	10.228553780705882	1229.0	0.5979562084958107	2058.0	0.03923973022685469	-64.0	9.770692826486817	-15936.0	640.0	0.39239730226854685	0.0	50633.0	1545.196533203125	0.7956521739130434	1267.0	0.19595959595959597	-660.0	-483.0	-0.5548902195608784	61.0	3.225833974231531	82.0	-0.9937860341858693	-255.0	-0.2908134728221632	
-0.42740945131313257	2026.0	10.21766859737924	1231.0	0.5195893384486128	2107.0	-0.39239730226854685	640.0	9.809932556713672	-16000.0	704.0	0.4316370324954016	0.0	51273.0	1564.727783203125	0.782608695652174	1261.0	0.2080808080808081	-654.0	-475.0	-0.5708582834331338	139.0	6.8073539023744845	55.0	-0.790809748502329	-489.0	-1.5129404591758362	
-0.1109226756001957	2022.0	10.210313180171593	1231.0	0.5708734231180029	2081.0	-0.4316370324954016	704.0	9.652973635806253	-15744.0	576.0	0.3531575720416922	0.0	51913.0	1584.259033203125	0.7956521739130434	1267.0	0.2222222222222222	-647.0	-477.0	-0.56686626746507	41.0	-4.659102942049168	113.0	-0.9219293413848647	259.0	0.09221840584634722	
0.09499405454486977	2017.0	10.131793815111248	1237.0	0.6323883606242718	2064.0	-0.11771919068056406	192.0	9.731453096259962	-15872.0	768.0	0.47087676272225626	0.0	52553.0	1603.790283203125	0.7891304347826087	1264.0	0.19393939393939394	-661.0	-470.0	-0.5808383233532934	47.0	-6.253826380919201	105.0	-0.6873463699404345	363.0	0.016910887383336494	
0.1318227456944463	2023.0	10.083724784683765	1241.0	0.5599868006049867	2061.0	-0.07847946045370938	128.0	9.692213366033108	-15808.0	704.0	0.4316370324954016	0.0	53193.0	1623.321533203125	0.7847826086956522	1262.0	0.22626262626262628	-645.0	-473.0	-0.5748502994011977	194.0	-0.6899130462302105	87.0	-0.7153000127738446	-1.0	-2.274469690830474	
-0.013498672350571672	2028.0	10.124442318952187	1238.0	0.49869979791179914	2073.0	-0.03923973022685469	64.0	9.731453096259962	-15872.0	576.0	0.3531575720416922	0.0	53833.0	1642.852783203125	0.7847826086956522	1262.0	0.23030303030303031	-643.0	-480.0	-0.5608782435129741	285.0	2.000464720585046	58.0	-0.4124064799184964	-177.0	-3.685403886749577	
-0.12334253090909723	2028.0	10.11446803780008	1239.0	0.4975016165146928	2082.0	-0.23543838136112813	384.0	9.652973635806253	-15744.0	512.0	0.3139178418148375	0.0	54473.0	1662.384033203125	0.7804347826086957	1260.0	0.19595959595959597	-660.0	-460.0	-0.6007984031936129	315.0	0.4551987056663172	106.0	-1.0062451946198556	-77.0	-4.126224990858945	
0.2063075573585525	2027.0	10.168532938937522	1234.0	0.5133869591798281	2055.0	0.15695892090741875	-256.0	9.849172286940528	-16064.0	448.0	0.27467811158798283	0.0	55113.0	1681.915283203125	0.7847826086956522	1262.0	0.22424242424242424	-646.0	-469.0	-0.5828343313373254	225.0	-0.4115718794979879	144.0	-1.570385956032232	-20.0	-2.748735992231637	
0.010888575694521258	2030.0	10.100046259561958	1240.0	0.4746033242561791	2071.0	-0.27467811158798283	448.0	9.692213366033108	-15808.0	384.0	0.23543838136112813	0.0	55753.0	1701.446533203125	0.7869565217391304	1263.0	0.22828282828282828	-644.0	-483.0	-0.5548902195608784	281.0	5.738928484582916	87.0	-1.1098196266644458	-421.0	-3.661952022488415	
-0.038241458171883735	2029.0	10.076412205299052	1242.0	0.4859238761459703	2075.0	-0.23543838136112813	384.0	9.652973635806253	-15744.0	384.0	0.23543838136112813	0.0	56393.0	1720.977783203125	0.7956521739130434	1267.0	0.19797979797979798	-659.0	-466.0	-0.5888223552894213	327.0	7.770238935456085	99.0	-1.4031240881482052	-554.0	-4.381884898860264	
-0.22062211621194977	2033.0	10.081059220610086	1242.0	0.4359537686343427	2090.0	-0.27467811158798283	448.0	9.53525444512569	-15552.0	512.0	0.3139178418148375	0.0	57033.0	1740.509033203125	0.782608695652174	1261.0	0.21414141414141413	-651.0	-464.0	-0.5928143712574852	356.0	5.573568124152182	94.0	-1.1576306953894928	-411.0	-4.800982829530495	
-0.023492147549498785	2040.0	10.200691235340306	1232.0	0.354784039070679	2074.0	-0.15695892090741875	256.0	9.731453096259962	-15872.0	384.0	0.23543838136112813	0.0	57673.0	1760.040283203125	0.7847826086956522	1262.0	0.21212121212121213	-652.0	-477.0	-0.56686626746507	303.0	-2.4722651028053924	105.0	-0.7948015900302354	114.0	-3.914440847070806	
0.08561904766100638	2036.0	10.185331283814453	1233.0	0.4039143225918629	2065.0	-0.15695892090741875	256.0	9.849172286940528	-16064.0	384.0	0.23543838136112813	0.0	58313.0	1779.571533203125	0.7891304347826087	1264.0	0.2	-658.0	-480.0	-0.5608782435129741	256.0	-1.2891042666958277	136.0	-1.3705103563089012	37.0	-3.211443558093498	
-0.26877382642795544	2038.0	10.083236269023875	1242.0	0.3752530581608988	2094.0	-0.47087676272225626	768.0	9.613733905579398	-15680.0	192.0	0.11771919068056406	0.0	58953.0	1799.102783203125	0.7913043478260869	1265.0	0.2222222222222222	-647.0	-469.0	-0.5828343313373254	288.0	3.8012524553401947	115.0	-1.3904889248435988	-295.0	-3.7490391405229837	
-0.23293209404701107	2034.0	10.057163381283202	1244.0	0.4235435176916389	2091.0	-0.4316370324954016	704.0	9.574494175352545	-15616.0	512.0	0.3139178418148375	0.0	59593.0	1818.634033203125	0.8	1269.0	0.21616161616161617	-650.0	-479.0	-0.5628742514970061	238.0	0.20660242323914185	100.0	-0.9458319773380468	-60.0	-2.952636366437715	
-0.09883029393325662	2032.0	10.078358602068343	1242.0	0.4491928734427965	2080.0	-0.27467811158798283	448.0	9.613733905579398	-15680.0	448.0	0.27467811158798283	0.0	60233.0	1838.165283203125	0.7804347826086957	1260.0	0.21212121212121213	-652.0	-456.0	-0.6087824351297406	137.0	-4.502304397363655	99.0	-0.6645444257961183	248.0	-1.3694256252278845	
-0.16015611060176632	2029.0	10.078874388841427	1242.0	0.4847293514570953	2085.0	-0.3139178418148375	512.0	9.613733905579398	-15680.0	512.0	0.3139178418148375	0.0	60873.0	1857.696533203125	0.7869565217391304	1263.0	0.20202020202020202	-657.0	-441.0	-0.6387225548902197	128.0	-3.6006601733225163	27.0	0.3466861209045831	190.0	-1.2415599381907292	
-0.11137513817290584	2036.0	9.99422683603834	1249.0	0.40003333625576265	2081.0	-0.23543838136112813	384.0	9.574494175352545	-15616.0	192.0	0.11771919068056406	0.0	61513.0	1877.227783203125	0.7804347826086957	1260.0	0.20404040404040405	-656.0	-477.0	-0.56686626746507	228.0	3.171038942510936	-22.0	0.6708450480018863	-252.0	-2.830189476877581	
-0.3419290942245596	2035.0	10.12056901317193	1239.0	0.41103941123766635	2100.0	-0.5493562231759657	896.0	9.652973635806253	-15744.0	320.0	0.19619865113427343	0.0	62153.0	1896.759033203125	0.7804347826086957	1260.0	0.2	-658.0	-454.0	-0.6127744510978045	230.0	3.1086501868946503	-17.0	0.601441516690173	-248.0	-2.8599838402719886	
-0.1594169709150713	2036.0	10.068353187496756	1243.0	0.40029418144292517	2085.0	-0.3139178418148375	512.0	9.652973635806253	-15744.0	256.0	0.15695892090741875	0.0	62793.0	1916.290283203125	0.7782608695652175	1259.0	0.2222222222222222	-647.0	-461.0	-0.5988023952095809	157.0	-3.6163330614286964	1.0	0.7552246369193785	191.0	-1.6824678480929376	
0.0841666736423149	2034.0	10.062951950413272	1243.0	0.42677239105983283	2065.0	-0.11771919068056406	192.0	9.652973635806253	-15744.0	256.0	0.15695892090741875	0.0	63433.0	1935.821533203125	0.7869565217391304	1263.0	0.22626262626262628	-645.0	-479.0	-0.5628742514970061	22.0	-9.068645960648679	-21.0	1.3824114195973198	548.0	0.42528722006276054	
0.0955048041656515	2030.0	10.025181253040829	1246.0	0.4747008364756791	2064.0	-0.11771919068056406	192.0	9.613733905579398	-15680.0	512.0	0.3139178418148375	0.0	64073.0	1955.352783203125	0.7934782608695652	1266.0	0.21212121212121213	-652.0	-465.0	-0.5908183632734532	39.0	-3.6063653405394396	-53.0	1.4923390137009407	192.0	0.11210928078182025	
-0.12393725264902068	2032.0	10.005709560735351	1248.0	0.44821531344230897	2082.0	-0.39239730226854685	640.0	9.496014714898834	-15488.0	320.0	0.19619865113427343	0.0	64713.0	1974.884033203125	0.7891304347826087	1264.0	0.22828282828282828	-644.0	-481.0	-0.5588822355289422	140.0	1.6593169529718654	-83.0	1.6370675054364838	-152.0	-1.4766692151570953	
0.03660105004799982	2031.0	10.221694721255297	1230.0	0.46402874084556295	2069.0	-0.11771919068056406	192.0	9.731453096259962	-15872.0	384.0	0.23543838136112813	0.0	65353.0	1994.415283203125	0.782608695652174	1261.0	0.21212121212121213	-652.0	-475.0	-0.5708582834331338	227.0	-4.406334854253917	-15.0	1.0926743730008273	242.0	-2.7392066134346473	
-0.036289128430201545	2039.0	10.151938033334197	1236.0	0.36621673001289523	2075.0	-0.15695892090741875	256.0	9.652973635806253	-15744.0	256.0	0.15695892090741875	0.0	457.0	2013.946533203125	0.7847826086956522	1262.0	0.2202020202020202	-648.0	-464.0	-0.5928143712574852	189.0	-3.1427087148559396	-18.0	1.0265856342206723	160.0	-2.1738961067677907	
0.10963996403208913	2036.0	10.148268108085244	1236.0	0.4037838999982816	2063.0	-0.07847946045370938	128.0	9.770692826486817	-15936.0	384.0	0.23543838136112813	0.0	1097.0	2033.477783203125	0.7739130434782608	1257.0	0.23232323232323232	-642.0	-470.0	-0.5808383233532934	75.0	-1.9137061695572475	-23.0	0.9466559636412126	81.0	-0.45234582803826784	
-0.08639964472656407	2031.0	10.114444687735471	1239.0	0.46172623356261905	2079.0	-0.23543838136112813	384.0	9.770692826486817	-15936.0	512.0	0.3139178418148375	0.0	1737.0	2053.009033203125	0.7804347826086957	1260.0	0.2202020202020202	-648.0	-460.0	-0.6007984031936129	155.0	0.4683907633187839	-31.0	0.9494712486189608	-75.0	-1.6928968353898417	
0.04734445883141298	2031.0	10.075165546818125	1242.0	0.4626708831890254	2068.0	-0.07847946045370938	128.0	9.652973635806253	-15744.0	320.0	0.19619865113427343	0.0	2377.0	2072.540283203125	0.782608695652174	1261.0	0.21818181818181817	-649.0	-454.0	-0.6127744510978045	155.0	-2.094683555913021	-19.0	0.9479511762599833	92.0	-1.6672660921975238	
0.10757775681656671	2031.0	10.000792977005469	1248.0	0.46252949047075037	2063.0	-0.03923973022685469	64.0	9.53525444512569	-15552.0	384.0	0.23543838136112813	0.0	3017.0	2092.071533203125	0.7782608695652175	1259.0	0.23434343434343435	-641.0	-464.0	-0.5928143712574852	299.0	-1.9705613876044359	36.0	0.20232912993642188	82.0	-3.8586213823216746	
-0.013619343722202928	2028.0	10.112252072611943	1239.0	0.49857668873468036	2073.0	-0.19619865113427343	320.0	9.770692826486817	-15936.0	512.0	0.3139178418148375	0.0	3657.0	2111.602783203125	0.7695652173913043	1255.0	0.2202020202020202	-648.0	-453.0	-0.6147704590818364	452.0	-3.7496883032495405	92.0	-0.42034399872098605	196.0	-6.1678263108838545	
0.1963162409391836	2040.0	10.232830043984762	1229.0	0.3573035110420104	2056.0	-0.03923973022685469	64.0	9.809932556713672	-16000.0	256.0	0.15695892090741875	0.0	4297.0	2131.134033203125	0.7869565217391304	1263.0	0.21818181818181817	-649.0	-452.0	-0.6167664670658684	568.0	-4.225822457386424	86.0	-0.22667969689898004	226.0	-7.9273235244755655	
0.11376437846313396	2046.0	10.44321837024479	1212.0	0.2862927190533442	2063.0	-0.03923973022685469	64.0	10.0453709380748	-16384.0	192.0	0.11771919068056406	0.0	4937.0	2150.665283203125	0.7739130434782608	1257.0	0.22626262626262628	-645.0	-450.0	-0.6207584830339322	554.0	0.6828570734090804	94.0	-0.6967809324935144	-94.0	-7.763482563129528	
0.017081673679763126	2048.0	10.506616218778648	1207.0	0.2618634849486804	2071.0	-0.19619865113427343	320.0	10.084610668301655	-16448.0	64.0	0.03923973022685469	0.0	5577.0	2170.196533203125	0.7891304347826087	1264.0	0.23636363636363636	-640.0	-475.0	-0.5708582834331338	433.0	5.979429216438284	74.0	-0.8391844459862086	-438.0	-5.976144102050315	
-0.3724310633399137	2053.0	10.515687381111087	1207.0	0.19781810534638639	2103.0	-0.627835683629675	1024.0	10.123850398528509	-16512.0	-128.0	-0.07847946045370938	0.0	6217.0	2189.727783203125	0.7760869565217391	1258.0	0.22828282828282828	-644.0	-453.0	-0.6147704590818364	332.0	1.6247711300658951	63.0	-0.432627568865457	-153.0	-4.396475848182789	
0.02963731181720336	2049.0	10.530988928104268	1205.0	0.2501845756522267	2070.0	-0.11771919068056406	192.0	10.084610668301655	-16448.0	-64.0	-0.03923973022685469	0.0	6857.0	2209.259033203125	0.7760869565217391	1258.0	0.23232323232323232	-642.0	-474.0	-0.5728542914171657	143.0	-6.824814036350143	35.0	0.46027267507146963	400.0	-1.4374552816897306	
0.11474486089309148	2053.0	10.457077661580609	1211.0	0.20210376739341163	2063.0	-0.03923973022685469	64.0	9.927651747394236	-16192.0	0.0	0.0	0.0	7497.0	2228.790283203125	0.7760869565217391	1258.0	0.22626262626262628	-645.0	-472.0	-0.5768463073852296	77.0	-3.2520608729151728	2.0	0.6662095873297986	168.0	-0.46938053195525903	
0.21143835957425336	2056.0	10.333920756342366	1221.0	0.16569455501458785	2055.0	-0.03923973022685469	64.0	9.927651747394236	-16192.0	-128.0	-0.07847946045370938	0.0	8137.0	2248.321533203125	0.7739130434782608	1257.0	0.22626262626262628	-645.0	-462.0	-0.596806387225549	48.0	2.8018335013380287	-44.0	0.9168711257442381	-226.0	-0.08885483691452098	
-0.1432088099353202	2052.0	10.27915611691656	1226.0	0.20979320800957138	2084.0	-0.3531575720416922	576.0	9.927651747394236	-16192.0	0.0	0.0	0.0	8777.0	2267.852783203125	0.7869565217391304	1263.0	0.23434343434343435	-641.0	-464.0	-0.5928143712574852	-7.0	5.907928689614967	-44.0	0.6672268245945359	-428.0	0.7165861123433941	
-0.08297335317060829	2053.0	10.19283173576303	1233.0	0.19748412599459886	2079.0	-0.3139178418148375	512.0	9.809932556713672	-16000.0	0.0	0.0	0.0	9417.0	2287.384033203125	0.782608695652174	1261.0	0.21818181818181817	-649.0	-474.0	-0.5728542914171657	-112.0	-3.3402922051266866	-44.0	1.2470246718723572	176.0	2.4060264961957536	
0.2090076619051625	2048.0	10.18573032026449	1233.0	0.26057388584579283	2055.0	0.0	0.0	9.809932556713672	-16000.0	64.0	0.03923973022685469	0.0	10057.0	2306.915283203125	0.782608695652174	1261.0	0.22828282828282828	-644.0	-452.0	-0.6167664670658684	-96.0	-7.0863490927147	-34.0	1.367559034071406	420.0	2.2001410574670714	
0.14854381507453732	2053.0	10.175963340692272	1234.0	0.19963061372634275	2060.0	-0.03923973022685469	64.0	9.731453096259962	-15872.0	0.0	0.0	0.0	10697.0	2326.446533203125	0.7760869565217391	1258.0	0.24646464646464647	-635.0	-471.0	-0.5788423153692616	12.0	-1.8356767733259076	-73.0	1.6525233088720894	77.0	0.5050487829423845	
0.19767816650005876	2056.0	10.175693772273426	1234.0	0.1639746832431565	2056.0	0.03923973022685469	-64.0	9.809932556713672	-16000.0	0.0	0.0	0.0	11337.0	2345.977783203125	0.7804347826086957	1260.0	0.21212121212121213	-652.0	-466.0	-0.5888223552894213	6.0	-0.15672132008450293	-13.0	0.6324675943248632	-33.0	0.5795139812616815	
-0.09564966267967978	2052.0	10.156268780097166	1236.0	0.20903992611393385	2080.0	-0.23543838136112813	384.0	9.692213366033108	-15808.0	64.0	0.03923973022685469	0.0	11977.0	2365.509033203125	0.7717391304347826	1256.0	0.21616161616161617	-650.0	-457.0	-0.6067864271457086	-27.0	-1.2414321253615985	-9.0	0.6279174057522688	38.0	1.0922622299988631	
0.20780094818884998	2048.0	10.063827856862044	1243.0	0.25934279407460525	2055.0	0.07847946045370938	-128.0	9.53525444512569	-15552.0	64.0	0.03923973022685469	0.0	12617.0	2385.040283203125	0.7739130434782608	1257.0	0.24444444444444444	-636.0	-473.0	-0.5748502994011977	-124.0	-5.677253657860166	6.0	0.6527516213481737	328.0	2.6119056164265104	
0.14720779486836066	2049.0	10.08967787631309	1241.0	0.24694716996482646	2060.0	0.0	0.0	9.613733905579398	-15680.0	128.0	0.07847946045370938	0.0	13257.0	2404.571533203125	0.7804347826086957	1260.0	0.22424242424242424	-646.0	-458.0	-0.6047904191616768	-93.0	-3.2409484443876275	-9.0	0.7269316503017276	169.0	2.116059674557945	
0.07260447061218141	2046.0	9.98072766437821	1250.0	0.2812562129161689	2066.0	-0.07847946045370938	128.0	9.613733905579398	-15680.0	192.0	0.11771919068056406	0.0	13897.0	2424.102783203125	0.7782608695652175	1259.0	0.2383838383838384	-639.0	-458.0	-0.6047904191616768	-80.0	-2.572961243933912	24.0	0.19359586270914148	125.0	1.9116611713747005	
0.072600153053065	2044.0	10.004631287059963	1248.0	0.30559159150956394	2066.0	-0.19619865113427343	320.0	9.574494175352545	-15616.0	128.0	0.07847946045370938	0.0	14537.0	2443.634033203125	0.7869565217391304	1263.0	0.2505050505050505	-633.0	-474.0	-0.5728542914171657	-118.0	-4.7612055785448915	28.0	0.2628097826831285	268.0	2.511490382781647	
0.29241070032130556	2045.0	10.024818284363546	1246.0	0.2959433741841978	2048.0	0.15695892090741875	-256.0	9.53525444512569	-15552.0	192.0	0.11771919068056406	0.0	15177.0	2463.165283203125	0.782608695652174	1261.0	0.2404040404040404	-638.0	-467.0	-0.5868263473053893	-139.0	-4.370223035646128	-2.0	0.6725968447419131	243.0	2.8269721923336477	
0.34068524068850076	2041.0	10.022879670949123	1246.0	0.3445995045380629	2044.0	0.11771919068056406	-192.0	9.613733905579398	-15680.0	192.0	0.11771919068056406	0.0	15817.0	2482.696533203125	0.7782608695652175	1259.0	0.25252525252525254	-632.0	-476.0	-0.5688622754491018	-132.0	1.5498809322060905	-9.0	0.36976368994936	-143.0	2.661307274328129	
-0.07382457757309997	2041.0	10.0312510949932	1246.0	0.3405381205958876	2078.0	-0.23543838136112813	384.0	9.53525444512569	-15552.0	192.0	0.11771919068056406	0.0	16457.0	2502.227783203125	0.7782608695652175	1259.0	0.23030303030303031	-643.0	-452.0	-0.6167664670658684	-62.0	5.452097998140113	-19.0	0.2906799709724097	-398.0	1.5576463203988271	
0.10856255680564064	2040.0	9.990748645659535	1249.0	0.35400516021742273	2063.0	-0.07847946045370938	128.0	9.613733905579398	-15680.0	256.0	0.15695892090741875	0.0	17097.0	2521.759033203125	0.7804347826086957	1260.0	0.23030303030303031	-643.0	-473.0	-0.5748502994011977	-19.0	-3.8716654996532216	34.0	0.17117090758564188	209.0	0.9968915599394981	
0.1946311592954624	2042.0	10.038262972539586	1245.0	0.33124460396895283	2056.0	0.0	0.0	9.613733905579398	-15680.0	256.0	0.15695892090741875	0.0	17737.0	2541.290283203125	0.7739130434782608	1257.0	0.2545454545454545	-631.0	-471.0	-0.5788423153692616	-44.0	-7.5191196980410036	40.0	0.3198695718293908	447.0	1.4135942388055052	
0.4744336618055942	2043.0	9.959696907350024	1251.0	0.3212087755710742	2033.0	0.23543838136112813	-384.0	9.496014714898834	-15488.0	128.0	0.07847946045370938	0.0	18377.0	2560.821533203125	0.782608695652174	1261.0	0.24646464646464647	-635.0	-481.0	-0.5588822355289422	-52.0	0.0043612157672537205	-8.0	0.5110085599862897	-43.0	1.4600324334697041	
-0.037248023064576974	2042.0	10.01856062858961	1247.0	0.32872878870585265	2075.0	-0.23543838136112813	384.0	9.613733905579398	-15680.0	256.0	0.15695892090741875	0.0	19017.0	2580.352783203125	0.7804347826086957	1260.0	0.2404040404040404	-638.0	-456.0	-0.6087824351297406	17.0	10.922318196441822	-62.0	0.6026911428419273	-755.0	0.3014232058682815	
0.0366226378435819	2041.0	10.102176607846529	1240.0	0.34235184787858775	2069.0	-0.11771919068056406	192.0	9.692213366033108	-15808.0	256.0	0.15695892090741875	0.0	19657.0	2599.884033203125	0.782608695652174	1261.0	0.2505050505050505	-633.0	-467.0	-0.5868263473053893	89.0	5.323308707105585	-23.0	0.4514768384916391	-391.0	-0.7376437334588887	
0.11062692280072127	2046.0	10.126271965398432	1238.0	0.2830918804482565	2063.0	-0.03923973022685469	64.0	9.770692826486817	-15936.0	128.0	0.07847946045370938	0.0	20297.0	2619.415283203125	0.7804347826086957	1260.0	0.2383838383838384	-639.0	-476.0	-0.5688622754491018	191.0	-5.635382119087929	34.0	0.42168223829069296	322.0	-2.179387623676041	
0.33128001089082243	2046.0	10.2437424984246	1228.0	0.2864731166594192	2045.0	0.15695892090741875	-256.0	9.849172286940528	-16064.0	64.0	0.03923973022685469	0.0	20937.0	2638.946533203125	0.7760869565217391	1258.0	0.23434343434343435	-641.0	-461.0	-0.5988023952095809	234.0	-7.086328245443957	54.0	0.24897770954004433	416.0	-2.818870557849743	
0.4301542293795798	2053.0	10.292202781947253	1224.0	0.203609112281943	2037.0	0.23543838136112813	-384.0	9.770692826486817	-15936.0	0.0	0.0	0.0	21577.0	2658.477783203125	0.782608695652174	1261.0	0.25656565656565655	-630.0	-477.0	-0.56686626746507	295.0	2.2021317676819416	33.0	-0.04554626250317786	-190.0	-3.8395118119733977	
-0.2518308433206258	2059.0	10.307421619780762	1224.0	0.12465229330677001	2093.0	-0.510116492949111	832.0	9.966891477621092	-16256.0	-256.0	-0.15695892090741875	0.0	22217.0	2678.009033203125	0.782608695652174	1261.0	0.24848484848484848	-634.0	-476.0	-0.5688622754491018	348.0	11.693686428117248	-5.0	-0.10419997843308504	-809.0	-4.740511008767864	
-0.06872399827121405	2056.0	10.363964271170317	1219.0	0.1631933665844127	2078.0	-0.23543838136112813	384.0	9.927651747394236	-16192.0	0.0	0.0	0.0	22857.0	2697.540283203125	0.782608695652174	1261.0	0.22828282828282828	-644.0	-462.0	-0.596806387225549	289.0	3.655976023164051	60.0	-0.5551816139982014	-285.0	-3.7627955016765076	
0.1504853509184285	2058.0	10.3112482254318	1223.0	0.14076191407675528	2060.0	-0.07847946045370938	128.0	9.888412017167381	-16128.0	0.0	0.0	0.0	23497.0	2717.071533203125	0.7739130434782608	1257.0	0.24444444444444444	-636.0	-477.0	-0.56686626746507	265.0	-4.304163422096973	85.0	-0.3905692627674562	234.0	-3.318175095817053	
0.22362766603768341	2055.0	10.345626349329006	1220.0	0.17798169678017287	2054.0	-0.03923973022685469	64.0	9.927651747394236	-16192.0	-128.0	-0.07847946045370938	0.0	24137.0	2736.602783203125	0.7891304347826087	1264.0	0.23636363636363636	-640.0	-470.0	-0.5808383233532934	163.0	-2.33549304730277	45.0	0.010058197132741253	107.0	-1.786531001085908	
-0.04602614942895873	2058.0	10.168904763016666	1235.0	0.13737336444913006	2076.0	-0.19619865113427343	320.0	9.731453096259962	-15872.0	-128.0	-0.07847946045370938	0.0	24777.0	2756.134033203125	0.7717391304347826	1256.0	0.21414141414141413	-651.0	-462.0	-0.596806387225549	157.0	7.753466907044668	-33.0	0.47363168654991394	-550.0	-1.7961658477776712	
-0.32752236870104456	2055.0	10.100711002124559	1241.0	0.1700210429607411	2099.0	-0.47087676272225626	768.0	9.692213366033108	-15808.0	-192.0	-0.11771919068056406	0.0	25417.0	2775.665283203125	0.7695652173913043	1255.0	0.24646464646464647	-635.0	-464.0	-0.5928143712574852	82.0	9.288462994488873	-71.0	0.8908837248667275	-649.0	-0.6708313980057253	
0.3177719544576814	2051.0	10.050136950331765	1244.0	0.22416101675873779	2046.0	0.11771919068056406	-192.0	9.652973635806253	-15744.0	0.0	0.0	0.0	26057.0	2795.196533203125	0.7804347826086957	1260.0	0.23232323232323232	-642.0	-459.0	-0.6027944111776448	-29.0	-5.088776334668469	-22.0	1.0893783814076414	289.0	1.161153923042502	
0.13501848840493064	2050.0	10.07797228332645	1242.0	0.23466002819924142	2061.0	-0.03923973022685469	64.0	9.652973635806253	-15744.0	0.0	0.0	0.0	26697.0	2814.727783203125	0.7869565217391304	1263.0	0.23636363636363636	-640.0	-456.0	-0.6087824351297406	-82.0	-6.23281608890505	-12.0	0.9868351648136436	364.0	1.9786779707749822	
0.31705440256656847	2054.0	9.941140038267669	1253.0	0.1869192938059327	2046.0	0.11771919068056406	-192.0	9.53525444512569	-15552.0	64.0	0.03923973022685469	0.0	27337.0	2834.259033203125	0.7804347826086957	1260.0	0.2505050505050505	-633.0	-476.0	-0.5688622754491018	7.0	0.923612869731414	-59.0	1.2475398721464797	-103.0	0.5535015138882373	
-0.5240338690484317	2055.0	9.958367539709425	1253.0	0.16663249333311592	2115.0	-0.627835683629675	1024.0	9.613733905579398	-15680.0	-64.0	-0.03923973022685469	0.0	27977.0	2853.790283203125	0.782608695652174	1261.0	0.23636363636363636	-640.0	-459.0	-0.6027944111776448	-22.0	0.6344935146043401	-46.0	1.0551174449863563	-84.0	0.997457346222778	
0.14696861090465635	2050.0	10.053345572291724	1244.0	0.23453326231389143	2060.0	-0.03923973022685469	64.0	9.613733905579398	-15680.0	0.0	0.0	0.0	28617.0	2873.321533203125	0.7739130434782608	1257.0	0.24444444444444444	-636.0	-457.0	-0.6067864271457086	-63.0	-9.575156008314135	-38.0	1.620826056017007	582.0	1.7231279859386546	
0.27999516257152046	2053.0	9.90506951931028	1256.0	0.19823618898749265	2049.0	0.07847946045370938	-128.0	9.496014714898834	-15488.0	0.0	0.0	0.0	29257.0	2892.852783203125	0.7782608695652175	1259.0	0.22828282828282828	-644.0	-469.0	-0.5828343313373254	6.0	-2.8285595880657954	-94.0	2.032820341374562	142.0	0.6062323639414945	
0.43933538667046124	2056.0	9.951344971064273	1252.0	0.164147767432769	2036.0	0.15695892090741875	-256.0	9.574494175352545	-15616.0	-192.0	-0.11771919068056406	0.0	29897.0	2912.384033203125	0.782608695652174	1261.0	0.22424242424242424	-646.0	-454.0	-0.6127744510978045	50.0	8.443398463119056	-132.0	1.8447752642773834	-593.0	-0.1756887374829016	
-0.40126804067845573	2058.0	10.00538164652613	1249.0	0.13218571437172974	2105.0	-0.5885959534028203	960.0	9.613733905579398	-15680.0	-128.0	-0.07847946045370938	0.0	30537.0	2931.915283203125	0.7717391304347826	1256.0	0.2404040404040404	-638.0	-457.0	-0.6067864271457086	61.0	1.536404845163931	-107.0	1.9573814415930375	-143.0	-0.2739191815314872	
0.07406547974910575	2052.0	10.055299752415884	1244.0	0.20972738726140888	2066.0	-0.07847946045370938	128.0	9.53525444512569	-15552.0	64.0	0.03923973022685469	0.0	31177.0	2951.446533203125	0.7804347826086957	1260.0	0.24242424242424243	-637.0	-478.0	-0.564870259481038	-26.0	-11.973273603214666	-37.0	1.7952520425773804	738.0	1.184371519302109	
0.23254805156927844	2049.0	10.087954347833426	1241.0	0.24778333724703902	2053.0	0.0	0.0	9.652973635806253	-15744.0	64.0	0.03923973022685469	0.0	31817.0	2970.977783203125	0.782608695652174	1261.0	0.23434343434343435	-641.0	-473.0	-0.5748502994011977	38.0	-7.516252025571789	-59.0	1.8538137844489364	447.0	0.1664172731074289	
0.2566810041937596	2045.0	10.11088866380797	1239.0	0.2964467810173666	2051.0	0.0	0.0	9.613733905579398	-15680.0	128.0	0.07847946045370938	0.0	32457.0	2990.509033203125	0.7695652173913043	1255.0	0.24444444444444444	-636.0	-464.0	-0.5928143712574852	122.0	-1.3146307165583155	-75.0	1.7131636629085718	42.0	-1.1731654799066602	
-0.09552683252849031	2053.0	10.156507215096534	1236.0	0.1969953459943551	2080.0	-0.19619865113427343	320.0	9.692213366033108	-15808.0	-64.0	-0.03923973022685469	0.0	33097.0	3010.040283203125	0.7891304347826087	1264.0	0.24646464646464647	-635.0	-478.0	-0.564870259481038	227.0	0.9899803098608001	-102.0	2.0214386636653994	-109.0	-2.793169765075795	
0.05174043891953524	2055.0	10.227170942885886	1230.0	0.1750782704445602	2068.0	-0.15695892090741875	256.0	9.770692826486817	-15936.0	-64.0	-0.03923973022685469	0.0	33737.0	3029.571533203125	0.782608695652174	1261.0	0.2383838383838384	-639.0	-462.0	-0.596806387225549	187.0	-9.366836325395449	-34.0	1.6984482458462145	566.0	-2.081236579711825	
0.25910954308329226	2052.0	10.271030911226722	1226.0	0.21373513948285913	2051.0	0.07847946045370938	-128.0	9.849172286940528	-16064.0	128.0	0.07847946045370938	0.0	34377.0	3049.102783203125	0.7739130434782608	1257.0	0.25656565656565655	-630.0	-461.0	-0.5988023952095809	188.0	-5.818745459332336	-70.0	1.991839621519767	335.0	-2.1319266138477415	
0.247293044632547	2058.0	10.236137000556432	1229.0	0.14097887876514278	2052.0	0.03923973022685469	-64.0	9.849172286940528	-16064.0	-64.0	-0.03923973022685469	0.0	35017.0	3068.634033203125	0.7760869565217391	1258.0	0.2585858585858586	-629.0	-476.0	-0.5688622754491018	176.0	-3.3791630282784193	-65.0	1.7397817853496476	176.0	-1.9738129324548586	
0.1254969047947375	2057.0	10.26274124177993	1227.0	0.152075152550084	2062.0	-0.03923973022685469	64.0	9.809932556713672	-16000.0	-64.0	-0.03923973022685469	0.0	35657.0	3088.165283203125	0.7782608695652175	1259.0	0.24444444444444444	-636.0	-456.0	-0.6087824351297406	144.0	-2.482103007293212	-84.0	1.9427362984951049	118.0	-1.4960915174555853	
0.1619571054907456	2060.0	10.213956906354342	1231.0	0.1158073328895352	2059.0	-0.03923973022685469	64.0	9.731453096259962	-15872.0	-192.0	-0.11771919068056406	0.0	36297.0	3107.696533203125	0.7717391304347826	1256.0	0.2686868686868687	-624.0	-458.0	-0.6047904191616768	60.0	-7.088677779949779	-68.0	1.9723711811050286	419.0	-0.17245922980506498	
0.42955734886009816	2056.0	10.195396116223401	1232.0	0.16649049850625666	2037.0	0.23543838136112813	-384.0	9.731453096259962	-15872.0	-192.0	-0.11771919068056406	0.0	36937.0	3127.227783203125	0.7739130434782608	1257.0	0.22828282828282828	-644.0	-425.0	-0.6706586826347306	28.0	-4.983141792403868	-66.0	1.7763731882672165	282.0	0.29317742552860143	
0.5142942487028597	2056.0	10.132721356042516	1237.0	0.1667111199028754	2030.0	0.3139178418148375	-512.0	9.692213366033108	-15808.0	-128.0	-0.07847946045370938	0.0	37577.0	3146.759033203125	0.7673913043478261	1254.0	0.25252525252525254	-632.0	-453.0	-0.6147704590818364	112.0	6.359066306247299	-100.0	1.547803293634335	-458.0	-1.0978111953818646	
-0.11869225540036321	2058.0	10.21914305850307	1231.0	0.13714908634428005	2082.0	-0.23543838136112813	384.0	9.731453096259962	-15872.0	-128.0	-0.07847946045370938	0.0	38217.0	3166.290283203125	0.7673913043478261	1254.0	0.23636363636363636	-640.0	-453.0	-0.6147704590818364	206.0	9.652748459213457	-64.0	0.8360191926424292	-674.0	-2.5604058115883324	
0.08929531707845753	2062.0	10.240291579158992	1229.0	0.09124767619129015	2065.0	-0.11771919068056406	192.0	9.809932556713672	-16000.0	-128.0	-0.07847946045370938	0.0	38857.0	3185.821533203125	0.7847826086956522	1262.0	0.25656565656565655	-630.0	-468.0	-0.5848303393213574	89.0	-4.320958936411123	-41.0	1.3925829339466689	238.0	-0.6412010570237215	
0.49113098461054494	2062.0	10.183405388108177	1233.0	0.09469717095610286	2032.0	0.3139178418148375	-512.0	9.809932556713672	-16000.0	-320.0	-0.19619865113427343	0.0	39497.0	3205.352783203125	0.7847826086956522	1262.0	0.24646464646464647	-635.0	-471.0	-0.5788423153692616	-3.0	-5.237100830550046	-81.0	2.000076977954726	299.0	0.7671999056439036	
0.4053188363208932	2067.0	10.076608874522478	1242.0	0.03253012048192769	2039.0	0.19619865113427343	-320.0	9.692213366033108	-15808.0	-192.0	-0.11771919068056406	0.0	40137.0	3224.884033203125	0.7717391304347826	1256.0	0.27070707070707073	-623.0	-466.0	-0.5888223552894213	7.0	5.689463747146494	-135.0	2.055266935935961	-413.0	0.5058430051140864	
-0.03478278492255482	2066.0	9.975522083213459	1251.0	0.03916642912748736	2075.0	-0.23543838136112813	384.0	9.574494175352545	-15616.0	-192.0	-0.11771919068056406	0.0	40777.0	3244.415283203125	0.7630434782608696	1252.0	0.25252525252525254	-632.0	-463.0	-0.594810379241517	45.0	7.077188697737605	-119.0	1.7419190901272386	-504.0	-0.08598101245266122	
0.050665190472644964	2060.0	10.057699669119302	1244.0	0.11313184136700379	2068.0	-0.07847946045370938	128.0	9.692213366033108	-15808.0	-256.0	-0.15695892090741875	0.0	41417.0	3263.946533203125	0.7739130434782608	1257.0	0.24646464646464647	-635.0	-448.0	-0.6247504990019961	16.0	-3.631736333171717	-66.0	1.675014988076522	194.0	0.462172876639702	
0.38081091690416896	2065.0	10.08881468757246	1241.0	0.056503484960428944	2041.0	0.19619865113427343	-320.0	9.652973635806253	-15744.0	-320.0	-0.19619865113427343	0.0	42057.0	3283.477783203125	0.7739130434782608	1257.0	0.26262626262626265	-627.0	-463.0	-0.594810379241517	68.0	-7.398981522952675	-52.0	1.7589551818001068	439.0	-0.29102919617731743	
0.5510044272603631	2063.0	10.06051026793391	1243.0	0.08201876140977407	2027.0	0.39239730226854685	-640.0	9.692213366033108	-15808.0	-256.0	-0.15695892090741875	0.0	42697.0	3303.009033203125	0.7804347826086957	1260.0	0.26464646464646463	-626.0	-474.0	-0.5728542914171657	144.0	1.1066018937177569	-83.0	1.6779699336366154	-116.0	-1.5319785664656949	
-0.1801149968653638	2066.0	10.075998674186266	1243.0	0.03871787291778733	2087.0	-0.3139178418148375	512.0	9.692213366033108	-15808.0	-256.0	-0.15695892090741875	0.0	43337.0	3322.540283203125	0.7760869565217391	1258.0	0.24848484848484848	-634.0	-444.0	-0.6327345309381238	234.0	12.668494872381114	-156.0	2.0224678076458655	-870.0	-3.016418789027994	
-0.1913497262535349	2062.0	10.221574108625967	1231.0	0.08825405105263996	2088.0	-0.4316370324954016	704.0	9.888412017167381	-16128.0	-192.0	-0.11771919068056406	0.0	43977.0	3342.071533203125	0.7782608695652175	1259.0	0.2585858585858586	-629.0	-459.0	-0.6027944111776448	131.0	1.8798419529796486	-113.0	2.0660187927086175	-166.0	-1.3419923358796064	
0.24790935416805254	2064.0	10.225377364212397	1230.0	0.06858828887055146	2052.0	0.07847946045370938	-128.0	9.770692826486817	-15936.0	-192.0	-0.11771919068056406	0.0	44617.0	3361.602783203125	0.7869565217391304	1263.0	0.2585858585858586	-629.0	-466.0	-0.5888223552894213	58.0	-8.646017300860587	-113.0	2.754207950388065	521.0	-0.12646758364538657	
0.4055342737094572	2055.0	10.244411103293485	1228.0	0.17878861039653543	2039.0	0.19619865113427343	-320.0	9.770692826486817	-15936.0	-64.0	-0.03923973022685469	0.0	45257.0	3381.134033203125	0.7782608695652175	1259.0	0.2545454545454545	-631.0	-472.0	-0.5768463073852296	76.0	-4.562413636107229	-157.0	3.1406098705809784	255.0	-0.4410678788480532	
0.13720568455120072	2057.0	10.213734038064715	1231.0	0.15170216831049646	2061.0	0.0	0.0	9.731453096259962	-15872.0	-128.0	-0.07847946045370938	0.0	45897.0	3400.665283203125	0.782608695652174	1261.0	0.2505050505050505	-633.0	-472.0	-0.5768463073852296	153.0	4.357721732272272	-192.0	3.091350186590051	-327.0	-1.7013718941288065	
-0.0693208787906957	2059.0	10.267157605446465	1227.0	0.12607475280872635	2078.0	-0.27467811158798283	448.0	9.966891477621092	-16256.0	-128.0	-0.07847946045370938	0.0	46537.0	3420.196533203125	0.7891304347826087	1264.0	0.24848484848484848	-634.0	-469.0	-0.5828343313373254	191.0	1.9311811667169063	-207.0	3.508242836897027	-169.0	-2.2550532565340893	
0.3325104711822753	2057.0	10.234175037077401	1229.0	0.1538596261669341	2045.0	0.15695892090741875	-256.0	9.770692826486817	-15936.0	-128.0	-0.07847946045370938	0.0	47177.0	3439.727783203125	0.7804347826086957	1260.0	0.25252525252525254	-632.0	-458.0	-0.6047904191616768	108.0	-9.182016869264004	-167.0	3.6315269736983145	556.0	-0.8815638617256111	
0.25826052592275706	2050.0	10.209602809526766	1231.0	0.23720875383642284	2051.0	0.11771919068056406	-192.0	9.770692826486817	-15936.0	128.0	0.07847946045370938	0.0	47817.0	3459.259033203125	0.7717391304347826	1256.0	0.24242424242424243	-637.0	-466.0	-0.5888223552894213	62.0	-6.3957160697085875	-191.0	3.769435737129755	375.0	-0.20980709785804721	
0.6120543607126789	2050.0	10.226842969934365	1229.0	0.2409190937883981	2022.0	0.39239730226854685	-640.0	9.809932556713672	-16000.0	-64.0	-0.03923973022685469	0.0	48457.0	3478.790283203125	0.7695652173913043	1255.0	0.24646464646464647	-635.0	-452.0	-0.6167664670658684	61.0	-4.942751077393292	-163.0	3.2479109036980724	280.0	-0.209127622305915	
0.1479318230981482	2049.0	10.162819354354557	1235.0	0.247685825027539	2060.0	-0.07847946045370938	128.0	9.770692826486817	-15936.0	64.0	0.03923973022685469	0.0	49097.0	3498.321533203125	0.7804347826086957	1260.0	0.2545454545454545	-631.0	-450.0	-0.6207584830339322	30.0	0.5967756140869842	-152.0	2.6785829891523067	-81.0	0.20696000051312258	
0.27044551482707063	2047.0	10.245212025195157	1228.0	0.27383127419540293	2050.0	0.15695892090741875	-256.0	9.849172286940528	-16064.0	128.0	0.07847946045370938	0.0	49737.0	3517.852783203125	0.7760869565217391	1258.0	0.2686868686868687	-624.0	-460.0	-0.6007984031936129	-9.0	-2.8430564539967116	-85.0	1.8897713142250492	143.0	0.8345142147300812	
0.489652705237155	2048.0	10.204447790797516	1231.0	0.26356751098444303	2032.0	0.27467811158798283	-448.0	9.809932556713672	-16000.0	128.0	0.07847946045370938	0.0	50377.0	3537.384033203125	0.7782608695652175	1259.0	0.2606060606060606	-628.0	-475.0	-0.5708582834331338	-89.0	-9.539340605983815	-47.0	1.7374483472536535	580.0	2.118207094272766	
0.4775840701453562	2049.0	10.204932444151122	1231.0	0.25140347839597676	2033.0	0.3139178418148375	-512.0	9.731453096259962	-15872.0	128.0	0.07847946045370938	0.0	51017.0	3556.915283203125	0.7760869565217391	1258.0	0.2606060606060606	-628.0	-460.0	-0.6007984031936129	-68.0	-5.3750885229174195	-18.0	1.0256094589758198	308.0	1.7571729384611134	
0.3187286903124986	2047.0	10.19546616641723	1232.0	0.2738166473624779	2046.0	0.19619865113427343	-320.0	9.731453096259962	-15872.0	128.0	0.07847946045370938	0.0	51657.0	3576.446533203125	0.782608695652174	1261.0	0.2787878787878788	-619.0	-474.0	-0.5728542914171657	-46.0	-1.2407574684265643	5.0	0.40641646179461066	38.0	1.3812288674599311	
0.21022732829882435	2054.0	10.235921915621674	1229.0	0.1887988418367953	2055.0	0.03923973022685469	-64.0	9.770692826486817	-15936.0	-64.0	-0.03923973022685469	0.0	52297.0	3595.977783203125	0.782608695652174	1261.0	0.27070707070707073	-623.0	-476.0	-0.5688622754491018	-54.0	-1.0441044701762017	31.0	-0.0019426044869801633	25.0	1.5009353412797088	
0.4912430208639434	2058.0	10.243402879811926	1228.0	0.1434910373200117	2032.0	0.3139178418148375	-512.0	9.888412017167381	-16128.0	-192.0	-0.11771919068056406	0.0	52937.0	3615.509033203125	0.7782608695652175	1259.0	0.2767676767676768	-620.0	-453.0	-0.6147704590818364	-63.0	-6.001281880718173	62.0	-0.12716595807626557	348.0	1.687389244662695	
0.4538239255335598	2058.0	10.15880981049293	1235.0	0.14227091567351785	2035.0	0.3139178418148375	-512.0	9.692213366033108	-15808.0	-64.0	-0.03923973022685469	0.0	53577.0	3635.040283203125	0.7782608695652175	1259.0	0.2828282828282828	-617.0	-476.0	-0.5688622754491018	-16.0	-4.166202410939007	52.0	-0.07636929579810003	228.0	0.9542095526265004	
0.35555738146207516	2053.0	10.147397135989745	1236.0	0.20141508734319286	2043.0	0.27467811158798283	-448.0	9.652973635806253	-15744.0	64.0	0.03923973022685469	0.0	54217.0	3654.571533203125	0.782608695652174	1261.0	0.2606060606060606	-628.0	-474.0	-0.5728542914171657	54.0	-1.1103658810123083	61.0	-0.3814025006833333	28.0	-0.1409875959427286	
0.3925045852037248	2058.0	10.123470163243383	1238.0	0.14130432579772406	2040.0	0.15695892090741875	-256.0	9.770692826486817	-15936.0	-128.0	-0.07847946045370938	0.0	54857.0	3674.102783203125	0.7739130434782608	1257.0	0.26262626262626265	-627.0	-461.0	-0.5988023952095809	97.0	-1.7027404070679895	83.0	-0.6438486203111379	66.0	-0.7890562461194341	
0.4905276277523887	2062.0	10.122454156406954	1238.0	0.09408162507050907	2032.0	0.39239730226854685	-640.0	9.770692826486817	-15936.0	-256.0	-0.15695892090741875	0.0	55497.0	3693.634033203125	0.782608695652174	1261.0	0.2868686868686869	-615.0	-471.0	-0.5788423153692616	101.0	-3.725409222593803	67.0	-0.2607573507044808	198.0	-0.8296660598653168	
0.46626752741760163	2063.0	10.123185028114797	1238.0	0.0817981400131553	2034.0	0.3139178418148375	-512.0	9.692213366033108	-15808.0	-256.0	-0.15695892090741875	0.0	56137.0	3713.165283203125	0.782608695652174	1261.0	0.27070707070707073	-623.0	-475.0	-0.5708582834331338	152.0	1.7212748761301577	106.0	-1.1935275941829981	-158.0	-1.6597983000921004	
0.3209417918134672	2066.0	10.187806185064973	1233.0	0.044846515913362715	2046.0	0.15695892090741875	-256.0	9.809932556713672	-16000.0	-320.0	-0.19619865113427343	0.0	56777.0	3732.696533203125	0.7804347826086957	1260.0	0.26464646464646463	-626.0	-454.0	-0.6127744510978045	124.0	-6.113937252106224	120.0	-0.8751261030638284	353.0	-1.1555906655017516	
0.6740094395940435	2065.0	10.143856678771984	1236.0	0.05998589009932291	2017.0	0.5493562231759657	-896.0	9.809932556713672	-16000.0	-256.0	-0.15695892090741875	0.0	57417.0	3752.227783203125	0.7739130434782608	1257.0	0.2808080808080808	-618.0	-475.0	-0.5708582834331338	99.0	-4.947075927490976	136.0	-1.2114288367023498	277.0	-0.7870311418657747	
0.44189107327029975	2066.0	10.087822030800641	1241.0	0.045056167185287724	2036.0	0.27467811158798283	-448.0	9.613733905579398	-15680.0	-256.0	-0.15695892090741875	0.0	58057.0	3771.759033203125	0.7782608695652175	1259.0	0.2787878787878788	-619.0	-476.0	-0.5688622754491018	134.0	-1.441210798280251	144.0	-1.5540843040150245	48.0	-1.354409184792863	
0.46663601787117004	2066.0	10.1239003331129	1238.0	0.04566439965441902	2034.0	0.27467811158798283	-448.0	9.692213366033108	-15808.0	-256.0	-0.15695892090741875	0.0	58697.0	3791.290283203125	0.7760869565217391	1258.0	0.28484848484848485	-616.0	-460.0	-0.6007984031936129	131.0	-0.019826441204641967	180.0	-2.194567885257055	-45.0	-1.3229956519377635	
0.28449670257436654	2070.0	10.152927841104423	1236.0	-0.004059489502971136	2049.0	0.0	0.0	9.770692826486817	-15936.0	-384.0	-0.23543838136112813	0.0	59337.0	3810.821533203125	0.7739130434782608	1257.0	0.27070707070707073	-623.0	-465.0	-0.5908183632734532	168.0	-3.303594269248839	155.0	-1.5686955450186084	169.0	-1.852895616242873	
0.3936143741235464	2069.0	10.101712455555939	1240.0	0.008567726128120165	2040.0	0.19619865113427343	-320.0	9.652973635806253	-15744.0	-448.0	-0.27467811158798283	0.0	59977.0	3830.352783203125	0.7739130434782608	1257.0	0.28484848484848485	-616.0	-474.0	-0.5728542914171657	162.0	-3.424515973058792	149.0	-1.4739745620587483	177.0	-1.7604316463530623	
0.4919907956688712	2069.0	10.18507443310375	1233.0	0.010385110119051535	2032.0	0.3139178418148375	-512.0	9.849172286940528	-16064.0	-320.0	-0.19619865113427343	0.0	60617.0	3849.884033203125	0.7673913043478261	1254.0	0.28484848484848485	-616.0	-459.0	-0.6027944111776448	161.0	-0.7076262915028099	135.0	-1.453783396440293	0.0	-1.772391417693337	
0.3943448786920085	2072.0	10.138998499574777	1237.0	-0.027196686699259814	2040.0	0.19619865113427343	-320.0	9.613733905579398	-15680.0	-384.0	-0.23543838136112813	0.0	61257.0	3869.415283203125	0.7847826086956522	1262.0	0.2808080808080808	-618.0	-470.0	-0.5808383233532934	214.0	5.455502811295961	99.0	-1.3107637010549493	-402.0	-2.640106358911439	
0.05395138164094562	2073.0	10.231462772874506	1230.0	-0.041724171707857485	2068.0	-0.07847946045370938	128.0	9.849172286940528	-16064.0	-384.0	-0.23543838136112813	0.0	61897.0	3888.946533203125	0.7760869565217391	1258.0	0.2686868686868687	-624.0	-467.0	-0.5868263473053893	195.0	1.6229796271483123	106.0	-1.1605265490363712	-152.0	-2.3128077430395444	
0.26145195107412494	2075.0	10.227753930851204	1230.0	-0.06378263997592741	2051.0	0.0	0.0	9.692213366033108	-15808.0	-448.0	-0.27467811158798283	0.0	62537.0	3908.477783203125	0.7760869565217391	1258.0	0.2767676767676768	-620.0	-458.0	-0.6047904191616768	126.0	-4.648376830305618	61.0	-0.09135465724369762	258.0	-1.200664520670328	
0.4557848903934748	2072.0	10.186528393164567	1233.0	-0.026106987646347266	2035.0	0.23543838136112813	-384.0	9.770692826486817	-15936.0	-384.0	-0.23543838136112813	0.0	63177.0	3928.009033203125	0.7739130434782608	1257.0	0.2727272727272727	-622.0	-451.0	-0.6187624750499002	96.0	-2.197030199386308	5.0	0.5593608765690287	99.0	-0.7689042227209659	
0.5649090382813292	2074.0	10.099457573593453	1240.0	-0.04998283990534853	2026.0	0.39239730226854685	-640.0	9.692213366033108	-15808.0	-448.0	-0.27467811158798283	0.0	63817.0	3947.540283203125	0.7717391304347826	1256.0	0.2808080808080808	-618.0	-467.0	-0.5868263473053893	109.0	5.969637683450384	-57.0	0.928404769554551	-433.0	-1.0482895327280402	
0.10151484645570248	2075.0	10.084671813373356	1242.0	-0.06681283219689009	2064.0	-0.03923973022685469	64.0	9.574494175352545	-15616.0	-448.0	-0.27467811158798283	0.0	64457.0	3967.071533203125	0.7673913043478261	1254.0	0.2868686868686869	-615.0	-464.0	-0.5928143712574852	101.0	10.655027171894174	-100.0	1.2421124021761871	-738.0	-0.9734704238101964	
0.2235501702572163	2075.0	10.094399876171227	1241.0	-0.06549519833089626	2054.0	0.11771919068056406	-192.0	9.613733905579398	-15680.0	-448.0	-0.27467811158798283	0.0	65097.0	3986.602783203125	0.7717391304347826	1256.0	0.29292929292929293	-612.0	-475.0	-0.5708582834331338	6.0	-1.1467343388723141	-59.0	1.3910276728462878	32.0	0.5894141114495597	
0.5028721460603813	2077.0	9.95512101427981	1252.0	-0.08819115273394744	2031.0	0.23543838136112813	-384.0	9.731453096259962	-15872.0	-384.0	-0.23543838136112813	0.0	201.0	4006.134033203125	0.7804347826086957	1260.0	0.2686868686868687	-624.0	-458.0	-0.6047904191616768	-29.0	-5.834745830760777	-59.0	1.6960204970163257	338.0	1.1686136180034252	
0.7485072039354989	2075.0	10.156953964980481	1235.0	-0.05962008710602089	2011.0	0.47087676272225626	-768.0	9.652973635806253	-15744.0	-384.0	-0.23543838136112813	0.0	841.0	4025.665283203125	0.7717391304347826	1256.0	0.28888888888888886	-614.0	-461.0	-0.5988023952095809	-93.0	-0.6231744314361918	-79.0	1.5942098413691232	-1.0	2.0898819344284303	
0.30720750409397113	2078.0	9.88615746490551	1258.0	-0.10288562741843886	2047.0	0.23543838136112813	-384.0	9.496014714898834	-15488.0	-576.0	-0.3531575720416922	0.0	1481.0	4045.196533203125	0.7782608695652175	1259.0	0.2767676767676768	-620.0	-475.0	-0.5708582834331338	-38.0	10.127968378903992	-132.0	1.6739930764657482	-702.0	1.145868605184344	
0.027045146248503724	2078.0	9.916200979733462	1256.0	-0.10538681584861403	2070.0	-0.15695892090741875	256.0	9.53525444512569	-15552.0	-576.0	-0.3531575720416922	0.0	2121.0	4064.727783203125	0.7739130434782608	1257.0	0.26262626262626265	-627.0	-454.0	-0.6127744510978045	-130.0	2.3014940818960423	-114.0	1.8928810383221852	-191.0	2.62337289188066	
0.513117757900362	2070.0	9.843493533867798	1261.0	-0.004867622022077425	2030.0	0.27467811158798283	-448.0	9.45677498467198	-15424.0	-448.0	-0.27467811158798283	0.0	2761.0	4084.259033203125	0.7739130434782608	1257.0	0.29292929292929293	-612.0	-467.0	-0.5868263473053893	-204.0	-10.755870598887679	-107.0	2.651707082461007	661.0	3.8794218238595994	
0.39059327227364854	2067.0	9.82085991973158	1263.0	0.029825375293546272	2040.0	0.19619865113427343	-320.0	9.45677498467198	-15424.0	-256.0	-0.15695892090741875	0.0	3401.0	4103.790283203125	0.7717391304347826	1256.0	0.2767676767676768	-620.0	-461.0	-0.5988023952095809	-84.0	-4.57199205884952	-142.0	2.8190505695401273	257.0	1.9924879814249974	
0.4892110365622359	2067.0	9.92860238995988	1254.0	0.03188897763871515	2032.0	0.3139178418148375	-512.0	9.53525444512569	-15552.0	-192.0	-0.11771919068056406	0.0	4041.0	4123.321533203125	0.7739130434782608	1257.0	0.2686868686868687	-624.0	-461.0	-0.5988023952095809	-7.0	1.1297731576362833	-193.0	3.2336695080910167	-115.0	0.764367667663181	
0.014595068025787292	2070.0	9.987681196134224	1250.0	-0.008410972298158903	2071.0	-0.19619865113427343	320.0	9.574494175352545	-15616.0	-320.0	-0.19619865113427343	0.0	4681.0	4142.852783203125	0.7695652173913043	1255.0	0.27070707070707073	-623.0	-465.0	-0.5908183632734532	58.0	0.5998813308078184	-200.0	3.4150412317109007	-81.0	-0.2189265699620706	
0.5632002100624678	2065.0	10.03636042689792	1245.0	0.05780283528526653	2026.0	0.39239730226854685	-640.0	9.613733905579398	-15680.0	-320.0	-0.19619865113427343	0.0	5321.0	4162.384033203125	0.7760869565217391	1258.0	0.29494949494949496	-611.0	-475.0	-0.5708582834331338	-5.0	-11.92738704570294	-159.0	3.6339194608451675	736.0	0.8645210187460028	
0.6367023805170582	2061.0	10.119261101156736	1238.0	0.10755963481673793	2020.0	0.5493562231759657	-896.0	9.692213366033108	-15808.0	-192.0	-0.11771919068056406	0.0	5961.0	4181.915283203125	0.7739130434782608	1257.0	0.2868686868686869	-615.0	-457.0	-0.6067864271457086	-23.0	-7.292991249348229	-159.0	3.3004149430766745	434.0	1.0919413193375889	
0.5156237925703617	2057.0	10.254862254444328	1227.0	0.15589763155448422	2030.0	0.27467811158798283	-448.0	9.927651747394236	-16192.0	-64.0	-0.03923973022685469	0.0	6601.0	4201.446533203125	0.7695652173913043	1255.0	0.301010101010101	-608.0	-464.0	-0.5928143712574852	92.0	1.3821076891851332	-131.0	2.3467999291935375	-133.0	-0.7438590997055397	
0.17280823296844078	2054.0	10.151328846302675	1236.0	0.18757872019030147	2058.0	0.03923973022685469	-64.0	9.770692826486817	-15936.0	-64.0	-0.03923973022685469	0.0	7241.0	4220.977783203125	0.782608695652174	1261.0	0.2828282828282828	-617.0	-459.0	-0.6027944111776448	93.0	3.0837680123843696	-127.0	2.169002720725379	-244.0	-0.7760848284128171	
0.49147572848897303	2054.0	10.315590617855923	1222.0	0.19240801286103928	2032.0	0.27467811158798283	-448.0	9.849172286940528	-16064.0	-64.0	-0.03923973022685469	0.0	7881.0	4240.509033203125	0.7760869565217391	1258.0	0.2828282828282828	-617.0	-461.0	-0.5988023952095809	77.0	-7.238086145229951	-111.0	2.637789869821138	429.0	-0.4295202792321112	
0.7487075298671555	2056.0	10.408418873137627	1214.0	0.1718122278854695	2011.0	0.627835683629675	-1024.0	9.888412017167381	-16128.0	-64.0	-0.03923973022685469	0.0	8521.0	4260.040283203125	0.7760869565217391	1258.0	0.296969696969697	-610.0	-477.0	-0.56686626746507	17.0	-10.343789440358794	-104.0	2.71249739178454	632.0	0.5140842822362877	
0.5162228318694015	2055.0	10.339717108827305	1220.0	0.18084855603347305	2030.0	0.3139178418148375	-512.0	9.927651747394236	-16192.0	-64.0	-0.03923973022685469	0.0	9161.0	4279.571533203125	0.782608695652174	1261.0	0.30303030303030304	-607.0	-478.0	-0.564870259481038	109.0	-3.3999124655178052	-66.0	1.7154579936558705	178.0	-0.9545940312383582	
0.431731592329019	2057.0	10.402868739006927	1215.0	0.15653877439769676	2037.0	0.27467811158798283	-448.0	9.966891477621092	-16256.0	-64.0	-0.03923973022685469	0.0	9801.0	4299.102783203125	0.7782608695652175	1259.0	0.29292929292929293	-612.0	-453.0	-0.6147704590818364	94.0	-2.835049399459017	-34.0	1.1872579290329779	141.0	-0.7321057797696685	
0.5665833260272595	2067.0	10.353783701743012	1219.0	0.03691451365119672	2026.0	0.39239730226854685	-640.0	9.849172286940528	-16064.0	-384.0	-0.23543838136112813	0.0	10441.0	4318.634033203125	0.7782608695652175	1259.0	0.30303030303030304	-607.0	-476.0	-0.5688622754491018	73.0	-4.623267110253129	-55.0	1.6137847950156532	258.0	-0.39483196768073875	
0.6405811346457242	2069.0	10.413734493317547	1214.0	0.01415761411095802	2020.0	0.510116492949111	-832.0	10.0453709380748	-16384.0	-256.0	-0.15695892090741875	0.0	11081.0	4338.165283203125	0.7608695652173914	1251.0	0.28888888888888886	-614.0	-439.0	-0.6427145708582835	-1.0	-5.776284402016739	-67.0	1.8289258320930675	334.0	0.7421734904080002	
0.7856741626248289	2070.0	10.276925598323373	1225.0	0.0021922626697230135	2008.0	0.5885959534028203	-960.0	9.888412017167381	-16128.0	-384.0	-0.23543838136112813	0.0	11721.0	4357.696533203125	0.7717391304347826	1256.0	0.30303030303030304	-607.0	-465.0	-0.5908183632734532	8.0	-1.6059372532809069	-67.0	1.5441449557121563	62.0	0.5635878896430753	
0.39470041646822773	2069.0	10.21142467261814	1231.0	0.00967570872218898	2040.0	0.3139178418148375	-512.0	9.849172286940528	-16064.0	-320.0	-0.19619865113427343	0.0	12361.0	4377.227783203125	0.7695652173913043	1255.0	0.3151515151515151	-601.0	-471.0	-0.5788423153692616	19.0	4.923017829345955	-47.0	0.7965716222079333	-364.0	0.3309979585886698	
0.4798014892054412	2070.0	10.173368840117112	1234.0	-0.0019020316465334919	2033.0	0.3531575720416922	-576.0	9.731453096259962	-15872.0	-256.0	-0.15695892090741875	0.0	13001.0	4396.759033203125	0.7717391304347826	1256.0	0.2868686868686869	-615.0	-457.0	-0.6067864271457086	-13.0	0.7680674430348942	-25.0	0.7364534060280477	-93.0	0.8592394776609058	
0.7725173264087906	2070.0	10.179649845955655	1233.0	0.0010879367838854542	2009.0	0.627835683629675	-1024.0	9.809932556713672	-16000.0	-384.0	-0.23543838136112813	0.0	13641.0	4416.290283203125	0.782608695652174	1261.0	0.30303030303030304	-607.0	-455.0	-0.6107784431137725	-72.0	-7.907953944940907	1.0	0.9146058610582162	473.0	1.843338094582489	
0.6991271922075984	2070.0	10.156746663400591	1235.0	1.2500361632288015E-4	2015.0	0.510116492949111	-832.0	9.731453096259962	-15872.0	-384.0	-0.23543838136112813	0.0	14281.0	4435.821533203125	0.7782608695652175	1259.0	0.3090909090909091	-604.0	-478.0	-0.564870259481038	-8.0	-1.2424063938807741	-21.0	0.8194541951799315	38.0	0.8032985886536367	
0.5405174726771199	2070.0	10.147757255665436	1236.0	-0.0015509876563334773	2028.0	0.3531575720416922	-576.0	9.770692826486817	-15936.0	-384.0	-0.23543838136112813	0.0	14921.0	4455.352783203125	0.7760869565217391	1258.0	0.301010101010101	-608.0	-472.0	-0.5768463073852296	58.0	3.3513076336062895	-36.0	0.7647713463434735	-262.0	-0.24644083299005531	
0.28474668043586193	2074.0	10.129501088421405	1238.0	-0.052484028335523666	2049.0	0.07847946045370938	-128.0	9.692213366033108	-15808.0	-512.0	-0.3139178418148375	0.0	15561.0	4474.884033203125	0.7695652173913043	1255.0	0.3191919191919192	-599.0	-462.0	-0.596806387225549	60.0	5.835607570750804	-36.0	0.5930808007562381	-424.0	-0.30170208331207077	
0.6631604708959064	2072.0	10.194532927482774	1232.0	-0.023953186498140877	2018.0	0.4316370324954016	-704.0	9.809932556713672	-16000.0	-384.0	-0.23543838136112813	0.0	16201.0	4494.415283203125	0.7695652173913043	1255.0	0.30303030303030304	-607.0	-452.0	-0.6167664670658684	-1.0	-3.600230069957351	-55.0	1.497562405604223	192.0	0.7204129470874063	
0.554529802392368	2075.0	10.270605675710481	1226.0	-0.0604233440141522	2027.0	0.39239730226854685	-640.0	9.888412017167381	-16128.0	-512.0	-0.3139178418148375	0.0	16841.0	4513.946533203125	0.7760869565217391	1258.0	0.3111111111111111	-603.0	-476.0	-0.5688622754491018	-3.0	-2.5719108125551573	-58.0	1.4697521664953852	125.0	0.7405480054639547	
0.6141532671806909	2072.0	10.171137308219235	1234.0	-0.024677214727928415	2022.0	0.4316370324954016	-704.0	9.849172286940528	-16064.0	-448.0	-0.27467811158798283	0.0	17481.0	4533.477783203125	0.7608695652173914	1251.0	0.3090909090909091	-604.0	-460.0	-0.6007984031936129	9.0	-0.08832076119977557	-63.0	1.3791571978898172	-37.0	0.5332025992469789	
0.2718247106244115	2071.0	10.092461262756805	1241.0	-0.01683906797703119	2050.0	0.0	0.0	9.692213366033108	-15808.0	-320.0	-0.19619865113427343	0.0	18121.0	4553.009033203125	0.7717391304347826	1256.0	0.30303030303030304	-607.0	-477.0	-0.56686626746507	-47.0	-2.188565383689031	-117.0	2.300860984949231	101.0	1.405916072087841	
0.6498764869695624	2069.0	10.12092236279744	1238.0	0.011322446328995345	2019.0	0.510116492949111	-832.0	9.809932556713672	-16000.0	-256.0	-0.15695892090741875	0.0	18761.0	4572.540283203125	0.7804347826086957	1260.0	0.29292929292929293	-612.0	-474.0	-0.5728542914171657	-79.0	-3.437634751870548	-143.0	2.758133629817574	183.0	1.9050987809787816	
0.6253793614506291	2072.0	10.07336911914304	1242.0	-0.02554263567599098	2021.0	0.39239730226854685	-640.0	9.770692826486817	-15936.0	-448.0	-0.27467811158798283	0.0	19401.0	4592.071533203125	0.7760869565217391	1258.0	0.30707070707070705	-605.0	-461.0	-0.5988023952095809	-73.0	-0.07671406697341554	-163.0	2.8277138152253207	-36.0	1.7802348212780994	
0.795934885921717	2070.0	10.081635438525225	1241.0	3.4196830471039386E-4	2007.0	0.5885959534028203	-960.0	9.613733905579398	-15680.0	-320.0	-0.19619865113427343	0.0	20041.0	4611.602783203125	0.7869565217391304	1263.0	0.3090909090909091	-604.0	-470.0	-0.5808383233532934	-83.0	3.943035160521355	-163.0	2.5418556188015704	-298.0	1.8921285837560036	
0.3799683760823084	2066.0	9.991531151849872	1249.0	0.04347403142390013	2041.0	0.23543838136112813	-384.0	9.652973635806253	-15744.0	-320.0	-0.19619865113427343	0.0	20681.0	4631.134033203125	0.7760869565217391	1258.0	0.29494949494949496	-611.0	-464.0	-0.5928143712574852	-94.0	-1.5685286588902358	-115.0	2.1991282655134468	61.0	2.114544602178256	
0.7327903635605058	2063.0	9.947104775558147	1252.0	0.08270256584901785	2012.0	0.5493562231759657	-896.0	9.53525444512569	-15552.0	-128.0	-0.07847946045370938	0.0	21321.0	4650.665283203125	0.7804347826086957	1260.0	0.31717171717171716	-600.0	-468.0	-0.5848303393213574	-105.0	-6.955149504008695	-82.0	2.0725924374364104	412.0	2.3357111908575776	
0.6107442458612008	2058.0	9.997135769464661	1248.0	0.14222337846651162	2022.0	0.510116492949111	-832.0	9.652973635806253	-15744.0	-192.0	-0.11771919068056406	0.0	21961.0	4670.196533203125	0.7782608695652175	1259.0	0.3191919191919192	-599.0	-479.0	-0.5628742514970061	-67.0	-2.3275753781224755	-91.0	1.9085636827302963	110.0	1.7114886815378787	
0.5863677917138989	2061.0	9.961772772150507	1251.0	0.10548140563864404	2024.0	0.39239730226854685	-640.0	9.574494175352545	-15616.0	-192.0	-0.11771919068056406	0.0	22601.0	4689.727783203125	0.7760869565217391	1258.0	0.29494949494949496	-611.0	-459.0	-0.6027944111776448	22.0	-2.5973935295497164	-117.0	2.371292610212922	127.0	0.360574695751771	
0.7208359235016635	2061.0	9.995635109274627	1248.0	0.10716471032776291	2013.0	0.510116492949111	-832.0	9.613733905579398	-15680.0	-256.0	-0.15695892090741875	0.0	23241.0	4709.259033203125	0.782608695652174	1261.0	0.3151515151515151	-601.0	-465.0	-0.5908183632734532	95.0	2.4384239857686807	-121.0	2.125180372527098	-202.0	-0.8000496390972306	
0.46652398161777164	2070.0	10.06390284140915	1243.0	-0.0031294667094898115	2034.0	0.3139178418148375	-512.0	9.652973635806253	-15744.0	-256.0	-0.15695892090741875	0.0	23881.0	4728.790283203125	0.7760869565217391	1258.0	0.3191919191919192	-599.0	-479.0	-0.5628742514970061	107.0	-1.4301946407078194	-108.0	2.206834060432362	50.0	-0.9438729585358876	
0.7105838353230083	2065.0	10.14311802370927	1236.0	0.06034424750598544	2014.0	0.5493562231759657	-896.0	9.731453096259962	-15872.0	-384.0	-0.23543838136112813	0.0	24521.0	4748.321533203125	0.7673913043478261	1254.0	0.29292929292929293	-612.0	-458.0	-0.6047904191616768	114.0	-4.439062792133019	-96.0	2.2405997939271245	246.0	-1.020248155348632	
0.6254913977040275	2068.0	10.133366610846792	1237.0	0.02325123068791786	2021.0	0.4316370324954016	-704.0	9.692213366033108	-15808.0	-256.0	-0.15695892090741875	0.0	25161.0	4767.852783203125	0.7695652173913043	1255.0	0.3111111111111111	-603.0	-462.0	-0.596806387225549	144.0	-3.7855970052543824	-85.0	2.048451984501328	203.0	-1.4830565774759734	
0.7108208605071543	2063.0	10.191402139071513	1232.0	0.084925844453618	2014.0	0.5493562231759657	-896.0	9.770692826486817	-15936.0	-320.0	-0.19619865113427343	0.0	25801.0	4787.384033203125	0.7782608695652175	1259.0	0.30303030303030304	-607.0	-443.0	-0.6347305389221558	110.0	-3.2002281225719282	-69.0	1.7471458396502269	165.0	-0.9718000001431022	
0.6630290056264841	2067.0	10.24210173784691	1228.0	0.03676215080822795	2018.0	0.5493562231759657	-896.0	9.888412017167381	-16128.0	-192.0	-0.11771919068056406	0.0	26441.0	4806.915283203125	0.7847826086956522	1262.0	0.30303030303030304	-607.0	-477.0	-0.56686626746507	122.0	0.2531873811632012	-98.0	1.9488711095140507	-60.0	-1.1888436608838755	
0.6262154259338151	2068.0	10.20650808888826	1231.0	0.023989885750630394	2021.0	0.3531575720416922	-576.0	9.927651747394236	-16192.0	-320.0	-0.19619865113427343	0.0	27081.0	4826.446533203125	0.7739130434782608	1257.0	0.31717171717171716	-600.0	-468.0	-0.5848303393213574	61.0	-0.6733195745898903	-99.0	1.991238231222896	1.0	-0.25182193733394903	
0.6986272364846078	2062.0	10.203600168766629	1231.0	0.096974081281428	2015.0	0.47087676272225626	-768.0	9.770692826486817	-15936.0	-384.0	-0.23543838136112813	0.0	27721.0	4845.977783203125	0.7847826086956522	1262.0	0.3090909090909091	-604.0	-474.0	-0.5728542914171657	46.0	-2.9446004585986483	-75.0	1.780373815509712	149.0	-9.722463645838579E-4	
0.7837304680013795	2064.0	10.153592524924722	1235.0	0.073228651616008	2008.0	0.627835683629675	-1024.0	9.770692826486817	-15936.0	-320.0	-0.19619865113427343	0.0	28361.0	4865.509033203125	0.7804347826086957	1260.0	0.31313131313131315	-602.0	-463.0	-0.594810379241517	71.0	-3.655996184972828	-60.0	1.6202085273187512	195.0	-0.37408642598297137	
0.8578554243301502	2069.0	10.18987812881687	1232.0	0.014091793362795521	2002.0	0.7063151440833844	-1152.0	9.770692826486817	-15936.0	-384.0	-0.23543838136112813	0.0	29001.0	4885.040283203125	0.7717391304347826	1256.0	0.301010101010101	-608.0	-440.0	-0.6407185628742516	84.0	-0.9633770364278915	-28.0	0.9609508598871419	19.0	-0.598731248647128	
0.6380427182823514	2067.0	10.181642942854165	1233.0	0.035907699984859154	2020.0	0.510116492949111	-832.0	9.770692826486817	-15936.0	-256.0	-0.15695892090741875	0.0	29641.0	4904.571533203125	0.7760869565217391	1258.0	0.31313131313131315	-602.0	-475.0	-0.5708582834331338	87.0	3.4986489705930155	-24.0	0.5922489298630171	-272.0	-0.6889788851431926	
0.3701924970515035	2067.0	10.223630485668124	1230.0	0.03364907320069026	2042.0	0.23543838136112813	-384.0	9.809932556713672	-16000.0	-320.0	-0.19619865113427343	0.0	30281.0	4924.102783203125	0.7804347826086957	1260.0	0.31313131313131315	-602.0	-461.0	-0.5988023952095809	12.0	0.858689158601291	-40.0	0.9702428163218005	-99.0	0.4781051236231126	
0.7722738248859699	2069.0	10.167221164616043	1234.0	0.013009407726345457	2009.0	0.510116492949111	-832.0	9.731453096259962	-15872.0	-320.0	-0.19619865113427343	0.0	30921.0	4943.634033203125	0.7739130434782608	1257.0	0.32525252525252524	-596.0	-461.0	-0.5988023952095809	-70.0	-6.9154431941889385	-74.0	1.971181623953347	409.0	1.802994736124399	
0.857006407169615	2067.0	10.128450027116912	1237.0	0.03756540771635926	2002.0	0.7063151440833844	-1152.0	9.692213366033108	-15808.0	-256.0	-0.15695892090741875	0.0	31561.0	4963.165283203125	0.7782608695652175	1259.0	0.3151515151515151	-601.0	-477.0	-0.56686626746507	-110.0	-3.8265737523785983	-76.0	1.761846717539143	208.0	2.3804710607177024	
0.8687173457056363	2068.0	10.067491012060819	1242.0	0.0250247341800742	2001.0	0.6670754138565297	-1088.0	9.613733905579398	-15680.0	-384.0	-0.23543838136112813	0.0	32201.0	4982.696533203125	0.7847826086956522	1262.0	0.31717171717171716	-600.0	-459.0	-0.6027944111776448	-101.0	-0.7907141448281982	-79.0	1.6010036852691156	10.0	2.213230335364632	
0.7953228939453278	2066.0	10.068491452187509	1242.0	0.04839717960590668	2007.0	0.7063151440833844	-1152.0	9.692213366033108	-15808.0	-128.0	-0.07847946045370938	0.0	32841.0	5002.227783203125	0.782608695652174	1261.0	0.3292929292929293	-594.0	-477.0	-0.56686626746507	-123.0	2.7018379692611214	-29.0	0.5949128403039512	-218.0	2.5129055746800124	
0.5140680174165045	2063.0	10.02467818397589	1246.0	0.08129107647175526	2030.0	0.23543838136112813	-384.0	9.652973635806253	-15744.0	-256.0	-0.15695892090741875	0.0	33481.0	5021.759033203125	0.782608695652174	1261.0	0.32525252525252524	-596.0	-480.0	-0.5608782435129741	-82.0	-0.8388410223281761	19.0	0.14664688398798909	12.0	1.9247382201092134	
0.8322593037891864	2066.0	10.10432353614553	1239.0	0.04912486454392548	2004.0	0.627835683629675	-1024.0	9.613733905579398	-15680.0	-256.0	-0.15695892090741875	0.0	34121.0	5041.290283203125	0.782608695652174	1261.0	0.3151515151515151	-601.0	-459.0	-0.6027944111776448	-68.0	-6.288359816937397	38.0	0.24959293114455783	367.0	1.7663056514013133	
0.6994892063224922	2070.0	10.193317402421325	1232.0	4.943311476791612E-4	2015.0	0.510116492949111	-832.0	9.809932556713672	-16000.0	-256.0	-0.15695892090741875	0.0	34761.0	5060.821533203125	0.7804347826086957	1260.0	0.32525252525252524	-596.0	-475.0	-0.5708582834331338	-29.0	-1.3656338993286203	3.0	0.45543507420483953	46.0	1.1239224986891037	
0.7346112280327656	2068.0	10.070199413957432	1242.0	0.023710757022311624	2012.0	0.5493562231759657	-896.0	9.731453096259962	-15872.0	-320.0	-0.19619865113427343	0.0	35401.0	5080.352783203125	0.7847826086956522	1262.0	0.3111111111111111	-603.0	-470.0	-0.5808383233532934	18.0	1.590843212590531	-19.0	0.6080925055675732	-147.0	0.3795288302315092	
0.5274726727144801	2066.0	10.110478995001468	1239.0	0.046138552821737795	2029.0	0.3139178418148375	-512.0	9.731453096259962	-15872.0	-256.0	-0.15695892090741875	0.0	36041.0	5099.884033203125	0.7782608695652175	1259.0	0.3151515151515151	-601.0	-467.0	-0.5868263473053893	67.0	2.963723652119689	-17.0	0.5123649054116509	-237.0	-0.3794471224527558	
0.590367217214196	2069.0	10.268436410651562	1226.0	0.012202494109982892	2024.0	0.3139178418148375	-512.0	9.809932556713672	-16000.0	-320.0	-0.19619865113427343	0.0	36681.0	5119.415283203125	0.7760869565217391	1258.0	0.3212121212121212	-598.0	-472.0	-0.5768463073852296	36.0	-2.1198878949560265	-42.0	1.2221375472019156	95.0	0.14287188275184165	
0.9182050761278188	2067.0	10.151599428026213	1235.0	0.0384088884150343	1997.0	0.7847946045370937	-1280.0	9.731453096259962	-15872.0	-256.0	-0.15695892090741875	0.0	37321.0	5138.946533203125	0.7695652173913043	1255.0	0.31313131313131315	-602.0	-464.0	-0.5928143712574852	8.0	-4.076690045369517	-57.0	1.5661843125602641	223.0	0.5882954175639614	
0.5878244832917068	2065.0	10.060248482869934	1243.0	0.058287958577279066	2024.0	0.39239730226854685	-640.0	9.692213366033108	-15808.0	-192.0	-0.11771919068056406	0.0	37961.0	5158.477783203125	0.7804347826086957	1260.0	0.31313131313131315	-602.0	-458.0	-0.6047904191616768	39.0	3.775818287041659	-87.0	1.488284160657578	-289.0	0.038287444506009266	
0.924402491672177	2087.0	10.534265764561148	1204.0	-0.1986663294858594	1997.0	0.4316370324954016	-704.0	9.260576333537706	-15104.0	-448.0	-0.27467811158798283	0.0	38601.0	5178.009033203125	0.7804347826086957	1260.0	0.3191919191919192	-599.0	-479.0	-0.5628742514970061	4.0	0.8533578462065472	-99.0	1.8503046766518136	-98.0	0.5998314405493415	
0.7965360840003151	2069.0	10.154538481567323	1235.0	0.013125203487001705	2007.0	0.5885959534028203	-960.0	9.849172286940528	-16064.0	-448.0	-0.27467811158798283	0.0	39241.0	5197.540283203125	0.7782608695652175	1259.0	0.31717171717171716	-600.0	-473.0	-0.5748502994011977	-12.0	-3.222355078068104	-212.0	3.8183933794153777	169.0	0.8839345773966507	
0.8450627610085637	2070.0	10.117221304129009	1238.0	0.0011891057116167059	2003.0	0.5885959534028203	-960.0	9.731453096259962	-15872.0	-320.0	-0.19619865113427343	0.0	39881.0	5217.071533203125	0.7782608695652175	1259.0	0.33131313131313134	-593.0	-469.0	-0.5828343313373254	-60.0	-3.1888728775955313	-184.0	3.367071392402413	167.0	1.6136377782056135	
0.8561681839068708	2070.0	10.00726286871257	1247.0	2.0057558643538087E-4	2002.0	0.7063151440833844	-1152.0	9.731453096259962	-15872.0	-384.0	-0.23543838136112813	0.0	40521.0	5236.602783203125	0.7782608695652175	1259.0	0.3232323232323232	-597.0	-458.0	-0.6047904191616768	-108.0	0.3701686106771256	-143.0	2.475467930232925	-65.0	2.308085386136575	
0.5147942044258503	2064.0	10.08586785067648	1241.0	0.06986204223777029	2030.0	0.27467811158798283	-448.0	9.613733905579398	-15680.0	-384.0	-0.23543838136112813	0.0	41161.0	5256.134033203125	0.7782608695652175	1259.0	0.3212121212121212	-598.0	-471.0	-0.5788423153692616	-132.0	2.074876997581795	-135.0	2.222279436063079	-176.0	2.6560573136743724	
0.9158950498303592	2059.0	10.015599238288582	1246.0	0.13341132842335807	1997.0	0.7063151440833844	-1152.0	9.613733905579398	-15680.0	-192.0	-0.11771919068056406	0.0	41801.0	5275.665283203125	0.7804347826086957	1260.0	0.3232323232323232	-597.0	-464.0	-0.5928143712574852	-162.0	-7.25267457371437	-88.0	2.148578398693031	432.0	3.2056065936458893	
0.6479133633300891	2054.0	10.10515559146668	1239.0	0.19186803894555798	2019.0	0.510116492949111	-832.0	9.613733905579398	-15680.0	0.0	0.0	0.0	42441.0	5295.196533203125	0.7717391304347826	1256.0	0.3232323232323232	-597.0	-472.0	-0.5768463073852296	-88.0	-5.911868306030885	-101.0	2.2951798425947416	344.0	2.066723245797952	
0.87968050943673	2058.0	10.064860443712904	1242.0	0.1455899878447493	2000.0	0.7847946045370937	-1280.0	9.692213366033108	-15808.0	-128.0	-0.07847946045370938	0.0	43081.0	5314.727783203125	0.7739130434782608	1257.0	0.3111111111111111	-603.0	-457.0	-0.6067864271457086	21.0	-2.9048861913573663	-111.0	2.302130711966967	147.0	0.3788587478451326	
0.7337406230766483	2056.0	10.12828942566624	1237.0	0.16886126434285054	2012.0	0.5885959534028203	-960.0	9.731453096259962	-15872.0	-128.0	-0.07847946045370938	0.0	43721.0	5334.259033203125	0.7717391304347826	1256.0	0.3151515151515151	-601.0	-464.0	-0.5928143712574852	84.0	0.39391782050048485	-79.0	1.6311008289993496	-69.0	-0.6123041972164117	
0.5156324276885945	2061.0	10.207055009080824	1231.0	0.10722687436769415	2030.0	0.3531575720416922	-576.0	9.849172286940528	-16064.0	-128.0	-0.07847946045370938	0.0	44361.0	5353.790283203125	0.7913043478260869	1265.0	0.32727272727272727	-595.0	-474.0	-0.5728542914171657	151.0	4.4764218297994764	-61.0	1.1178539387596371	-336.0	-1.6721406441535083	
0.8199363732767758	2061.0	10.152138564863908	1235.0	0.1097207493814068	2005.0	0.6670754138565297	-1088.0	9.731453096259962	-15872.0	-192.0	-0.11771919068056406	0.0	45001.0	5373.321533203125	0.7891304347826087	1264.0	0.3090909090909091	-604.0	-466.0	-0.5888223552894213	147.0	-1.1886342544494173	-19.0	0.8800232247260251	33.0	-1.5546535814098783	
0.9046624792217464	2056.0	10.149222861387406	1235.0	0.17077981726151314	1998.0	0.745554874310239	-1216.0	9.770692826486817	-15936.0	-128.0	-0.07847946045370938	0.0	45641.0	5392.852783203125	0.7869565217391304	1263.0	0.33131313131313134	-593.0	-468.0	-0.5848303393213574	135.0	-1.825194539772639	-58.0	1.5017350865332961	75.0	-1.3657784728532243	
0.6732854113642559	2065.0	10.070715200730517	1242.0	0.05924723503661036	2017.0	0.47087676272225626	-768.0	9.692213366033108	-15808.0	-256.0	-0.15695892090741875	0.0	46281.0	5412.384033203125	0.7804347826086957	1260.0	0.33535353535353535	-591.0	-477.0	-0.56686626746507	134.0	0.13538904603815136	-40.0	1.0948050364755868	-53.0	-1.3701751832360471	
0.8571249197616879	2066.0	10.152592084798034	1235.0	0.04985620619017552	2002.0	0.627835683629675	-1024.0	9.731453096259962	-15872.0	-256.0	-0.15695892090741875	0.0	46921.0	5431.915283203125	0.7804347826086957	1260.0	0.31717171717171716	-600.0	-463.0	-0.594810379241517	75.0	-3.8308294103708374	-23.0	1.0800877412018384	206.0	-0.43317459563013194	
0.9674600989249714	2070.0	10.163520105947612	1234.0	0.002876067108966804	1993.0	0.8240343347639485	-1344.0	9.731453096259962	-15872.0	-448.0	-0.27467811158798283	0.0	47561.0	5451.446533203125	0.7804347826086957	1260.0	0.31717171717171716	-600.0	-457.0	-0.6067864271457086	37.0	-1.9242483083960604	-18.0	0.8493093070413309	82.0	0.1257063614109568	
0.7595953565973402	2067.0	10.142610020291057	1236.0	0.03673289714237794	2010.0	0.5885959534028203	-960.0	9.770692826486817	-15936.0	-320.0	-0.19619865113427343	0.0	48201.0	5470.977783203125	0.7760869565217391	1258.0	0.3373737373737374	-590.0	-474.0	-0.5728542914171657	21.0	-1.3391085795895503	-18.0	0.7988497416122152	44.0	0.3632009717274544	
0.8078850084214427	2070.0	10.057008727490498	1243.0	2.152024193603913E-4	2006.0	0.6670754138565297	-1088.0	9.652973635806253	-15744.0	-448.0	-0.27467811158798283	0.0	48841.0	5490.509033203125	0.7804347826086957	1260.0	0.3232323232323232	-597.0	-458.0	-0.6047904191616768	-45.0	-1.4974375584741795	-23.0	0.8446798660284622	55.0	1.3685865428851223	
0.7580352638843667	2071.0	9.93632957250437	1253.0	-0.013538279346955978	2010.0	0.5493562231759657	-896.0	9.652973635806253	-15744.0	-448.0	-0.27467811158798283	0.0	49481.0	5510.040283203125	0.7891304347826087	1264.0	0.33535353535353535	-591.0	-483.0	-0.5548902195608784	-77.0	-4.451608868755438	-31.0	1.1507625386006803	248.0	1.8848202711970603	
0.9528508886902416	2068.0	9.94386502017871	1252.0	0.02462980969109918	1994.0	0.7847946045370937	-1280.0	9.45677498467198	-15424.0	-192.0	-0.11771919068056406	0.0	50121.0	5529.571533203125	0.7847826086956522	1262.0	0.33131313131313134	-593.0	-471.0	-0.5788423153692616	-56.0	-2.4286923895095023	-41.0	1.1726682545256621	116.0	1.5451994714236124	
0.8309448713785919	2072.0	9.898519958357578	1256.0	-0.025235472184565955	2004.0	0.7847946045370937	-1280.0	9.53525444512569	-15552.0	-320.0	-0.19619865113427343	0.0	50761.0	5549.102783203125	0.782608695652174	1261.0	0.3232323232323232	-597.0	-481.0	-0.5588822355289422	6.0	-0.6266250694996546	-50.0	1.2198955339648172	-2.0	0.584213018755833	
0.8065511469948243	2067.0	9.958771451770438	1251.0	0.03536406936114661	2006.0	0.627835683629675	-1024.0	9.613733905579398	-15680.0	-256.0	-0.15695892090741875	0.0	51401.0	5568.634033203125	0.7739130434782608	1257.0	0.3434343434343434	-587.0	-471.0	-0.5788423153692616	62.0	-3.1712400958614793	-11.0	0.8463615346873277	163.0	-0.24205185759651832	
0.7583994367788186	2072.0	9.960948500184227	1251.0	-0.02533664111229722	2010.0	0.5885959534028203	-960.0	9.496014714898834	-15488.0	-384.0	-0.23543838136112813	0.0	52041.0	5588.165283203125	0.7869565217391304	1263.0	0.3414141414141414	-588.0	-473.0	-0.5748502994011977	143.0	-4.22492370779042	-18.0	1.0739230068543875	231.0	-1.4634541849753278	
0.8815272792636885	2075.0	10.044533346021668	1244.0	-0.05941409254232713	2000.0	0.627835683629675	-1024.0	9.574494175352545	-15616.0	-448.0	-0.27467811158798283	0.0	52681.0	5607.696533203125	0.7804347826086957	1260.0	0.3292929292929293	-594.0	-459.0	-0.6027944111776448	191.0	-3.5201333027015824	-60.0	1.6837562729940414	185.0	-2.2005401118399046	
0.8582368674610679	2078.0	10.118882565769713	1238.0	-0.09504808277612588	2002.0	0.7063151440833844	-1152.0	9.731453096259962	-15872.0	-512.0	-0.3139178418148375	0.0	53321.0	5627.227783203125	0.7804347826086957	1260.0	0.34545454545454546	-586.0	-469.0	-0.5828343313373254	233.0	0.9737679750845994	-102.0	2.0262172322798913	-108.0	-2.884262394579744	
0.7241242734495223	2075.0	10.157446401688956	1235.0	-0.0598589920437959	2013.0	0.5493562231759657	-896.0	9.692213366033108	-15808.0	-512.0	-0.3139178418148375	0.0	53961.0	5646.759033203125	0.782608695652174	1261.0	0.3292929292929293	-594.0	-476.0	-0.5688622754491018	190.0	1.363765568254252	-104.0	2.002898711474045	-133.0	-2.2341699750741775	
0.7244906051235326	2077.0	10.170113518027936	1234.0	-0.08382504310583466	2013.0	0.510116492949111	-832.0	9.770692826486817	-15936.0	-512.0	-0.3139178418148375	0.0	54601.0	5666.290283203125	0.7739130434782608	1257.0	0.3333333333333333	-592.0	-463.0	-0.594810379241517	133.0	-4.839397917909703	-104.0	2.399962084027406	272.0	-1.3052181881212834	
0.9560099321482364	2078.0	10.141293311616302	1236.0	-0.09384624467078831	1994.0	0.8240343347639485	-1344.0	9.731453096259962	-15872.0	-704.0	-0.4316370324954016	0.0	55241.0	5685.821533203125	0.7760869565217391	1258.0	0.34545454545454546	-586.0	-477.0	-0.56686626746507	102.0	-4.7989581076108	-139.0	2.9030257888256563	270.0	-0.8341396964904321	
0.8097101904528191	2077.0	10.15619974320803	1235.0	-0.08311198500074087	2006.0	0.6670754138565297	-1088.0	9.770692826486817	-15936.0	-512.0	-0.3139178418148375	0.0	55881.0	5705.352783203125	0.782608695652174	1261.0	0.3434343434343434	-587.0	-469.0	-0.5828343313373254	50.0	-3.49797153615633	-173.0	3.290587269900114	186.0	-0.056275037490147735	
0.9063864188975153	2072.0	10.1286573286968	1237.0	-0.02217968300598451	1998.0	0.7063151440833844	-1152.0	9.770692826486817	-15936.0	-384.0	-0.23543838136112813	0.0	56521.0	5724.884033203125	0.782608695652174	1261.0	0.3333333333333333	-592.0	-463.0	-0.594810379241517	29.0	-3.4597396695672673	-203.0	3.724925779030054	184.0	0.26273427882495026	
0.8459096193895408	2071.0	10.190601217169844	1232.0	-0.010116819345249509	2003.0	0.5885959534028203	-960.0	9.770692826486817	-15936.0	-320.0	-0.19619865113427343	0.0	57161.0	5744.415283203125	0.7782608695652175	1259.0	0.3414141414141414	-588.0	-481.0	-0.5588822355289422	46.0	-3.295760066330861	-188.0	3.498967447746105	173.0	0.0025393497127382592	
0.9429651321855965	2074.0	10.104015050952334	1239.0	-0.04615670419271703	1995.0	0.7847946045370937	-1280.0	9.652973635806253	-15744.0	-448.0	-0.27467811158798283	0.0	57801.0	5763.946533203125	0.7847826086956522	1262.0	0.3373737373737374	-590.0	-477.0	-0.56686626746507	63.0	-3.59674062137127	-243.0	4.3548456058470375	193.0	-0.2530059778167056	
0.9435663302641947	2073.0	10.176918093994434	1233.0	-0.03337346901042572	1995.0	0.8240343347639485	-1344.0	9.809932556713672	-16000.0	-448.0	-0.27467811158798283	0.0	58441.0	5783.477783203125	0.7695652173913043	1255.0	0.3393939393939394	-589.0	-463.0	-0.594810379241517	83.0	-3.698721238656622	-196.0	3.669463081028407	199.0	-0.5561686811495555	
0.9560034558095618	2075.0	10.177148745638933	1233.0	-0.05734317678069574	1994.0	0.7847946045370937	-1280.0	9.770692826486817	-15936.0	-448.0	-0.27467811158798283	0.0	59081.0	5803.009033203125	0.7695652173913043	1255.0	0.3292929292929293	-594.0	-445.0	-0.6307385229540919	57.0	-5.563793256460959	-211.0	4.008342159195181	321.0	-0.14208069861409767	
1.101208520042065	2072.0	10.100337342348512	1239.0	-0.020514661858021907	1982.0	0.9809932556713672	-1600.0	9.849172286940528	-16064.0	-384.0	-0.23543838136112813	0.0	59721.0	5822.540283203125	0.7804347826086957	1260.0	0.33535353535353535	-591.0	-464.0	-0.5928143712574852	11.0	-3.152171573992866	-191.0	3.5126584242583587	164.0	0.5334228564243394	
1.0156139679205354	2066.0	10.149391246192945	1235.0	0.05140908828571312	1989.0	0.8632740649908032	-1408.0	9.731453096259962	-15872.0	-320.0	-0.19619865113427343	0.0	60361.0	5842.071533203125	0.7804347826086957	1260.0	0.3373737373737374	-590.0	-456.0	-0.6087824351297406	34.0	3.116700942857096	-187.0	3.03036727753036	-245.0	0.12092424532428075	
0.7721509947347803	2068.0	10.166982729616675	1234.0	0.02505398784592422	2009.0	0.627835683629675	-1024.0	9.731453096259962	-15872.0	-192.0	-0.11771919068056406	0.0	61001.0	5861.602783203125	0.7782608695652175	1259.0	0.3595959595959596	-579.0	-479.0	-0.5628742514970061	90.0	3.4874614946605647	-157.0	2.588855671745699	-270.0	-0.7344943868097236	
0.9800114195032953	2069.0	10.211796437954984	1230.0	0.015532536405908098	1992.0	0.8240343347639485	-1344.0	9.809932556713672	-16000.0	-320.0	-0.19619865113427343	0.0	61641.0	5881.134033203125	0.782608695652174	1261.0	0.34545454545454546	-586.0	-460.0	-0.6007984031936129	39.0	-3.4286701478235972	-113.0	2.379521653175474	181.0	0.11033232885466183	
1.0398827033735552	2069.0	10.100853129121596	1239.0	0.015021816156276818	1987.0	0.8632740649908032	-1408.0	9.770692826486817	-15936.0	-256.0	-0.15695892090741875	0.0	62281.0	5900.665283203125	0.7695652173913043	1255.0	0.3292929292929293	-594.0	-463.0	-0.594810379241517	43.0	-5.071659459988461	-104.0	2.361374635645061	288.0	0.0659257200751698	
1.0518306670937227	2068.0	10.088178229427745	1240.0	0.02706273956762434	1986.0	0.8240343347639485	-1344.0	9.770692826486817	-15936.0	-320.0	-0.19619865113427343	0.0	62921.0	5920.196533203125	0.7760869565217391	1258.0	0.3575757575757576	-580.0	-476.0	-0.5688622754491018	80.0	-0.5483022282714393	-133.0	2.5038410867166307	-7.0	-0.5420454948275518	
1.0515850067913437	2066.0	10.08770135942901	1240.0	0.05115189980678185	1986.0	0.9417535254445125	-1536.0	9.652973635806253	-15744.0	-256.0	-0.15695892090741875	0.0	63561.0	5939.727783203125	0.7847826086956522	1262.0	0.3616161616161616	-578.0	-473.0	-0.5748502994011977	44.0	0.5915872118042166	-131.0	2.372618633506702	-81.0	-0.005915872118042166	
0.8430027125725995	2066.0	9.957794361708357	1251.0	0.04776700688738789	2003.0	0.5885959534028203	-960.0	9.53525444512569	-15552.0	-256.0	-0.15695892090741875	0.0	64201.0	5959.259033203125	0.7717391304347826	1256.0	0.35555555555555557	-581.0	-462.0	-0.596806387225549	107.0	-0.4974848092401326	-89.0	1.8570598849478182	-11.0	-0.9532000568505645	
1.1960725191327342	2066.0	9.901893044074491	1255.0	0.05073869177665058	1974.0	1.0594727161250765	-1728.0	9.613733905579398	-15680.0	-448.0	-0.27467811158798283	0.0	64841.0	5978.790283203125	0.7739130434782608	1257.0	0.34949494949494947	-584.0	-475.0	-0.5708582834331338	72.0	-5.935959970983028	-96.0	2.319232506776606	344.0	-0.36649591359815453	
1.2209489290030264	2071.0	9.890402536022611	1256.0	-0.009368413060586972	1972.0	1.0987124463519313	-1792.0	9.613733905579398	-15680.0	-448.0	-0.27467811158798283	0.0	65481.0	5998.321533203125	0.782608695652174	1261.0	0.3515151515151515	-583.0	-470.0	-0.5808383233532934	100.0	-0.8605064747657902	-116.0	2.2828652389347246	13.0	-0.8431059618683118	
0.8688531285341751	2075.0	9.996018579014926	1248.0	-0.06002598171968966	2001.0	0.7847946045370937	-1280.0	9.692213366033108	-15808.0	-320.0	-0.19619865113427343	0.0	585.0	6017.852783203125	0.7739130434782608	1257.0	0.3414141414141414	-588.0	-453.0	-0.6147704590818364	89.0	6.930938929996436	-107.0	1.5989560898210144	-495.0	-0.7537200356877971	
0.7098792361092445	2074.0	9.962410243599912	1251.0	-0.04990361122700476	2014.0	0.47087676272225626	-768.0	9.496014714898834	-15488.0	-320.0	-0.19619865113427343	0.0	1225.0	6037.384033203125	0.7739130434782608	1257.0	0.33535353535353535	-591.0	-476.0	-0.5688622754491018	21.0	3.0894784132344095	-95.0	1.6450428755173647	-244.0	0.31891510179921484	
1.1601122741597165	2071.0	9.903823874134043	1255.0	-0.009842566227905747	1977.0	0.9809932556713672	-1600.0	9.496014714898834	-15488.0	-384.0	-0.23543838136112813	0.0	1865.0	6056.915283203125	0.782608695652174	1261.0	0.3373737373737374	-590.0	-465.0	-0.5908183632734532	-118.0	-8.102028801401808	-92.0	2.294431528769082	487.0	2.5448986150102164	
1.3172653021123872	2067.0	9.814337571149775	1262.0	0.03902687210611559	1964.0	1.0987124463519313	-1792.0	9.417535254445125	-15360.0	-256.0	-0.15695892090741875	0.0	2505.0	6076.446533203125	0.7717391304347826	1256.0	0.3656565656565657	-576.0	-467.0	-0.5868263473053893	-84.0	-5.835766942298136	-101.0	2.292316647754988	339.0	2.005125730259483	
1.0868384937710394	2069.0	9.917014560600977	1254.0	0.013652988375045486	1983.0	0.9809932556713672	-1600.0	9.53525444512569	-15552.0	-448.0	-0.27467811158798283	0.0	3145.0	6095.977783203125	0.782608695652174	1261.0	0.3393939393939394	-589.0	-476.0	-0.5688622754491018	25.0	4.279187517919463	-55.0	0.9649724319822931	-322.0	0.24618150885122364	
0.6376893392856904	2071.0	10.097264958469925	1240.0	-0.013132384733287206	2020.0	0.510116492949111	-832.0	9.731453096259962	-15872.0	-320.0	-0.19619865113427343	0.0	3785.0	6115.509033203125	0.7782608695652175	1259.0	0.3434343434343434	-587.0	-457.0	-0.6067864271457086	107.0	9.73368985100511	4.0	-0.24933271998096274	-679.0	-1.0555118034530169	
0.9436999543131752	2079.0	10.117397472289419	1238.0	-0.10625649561349208	1995.0	0.7063151440833844	-1152.0	9.692213366033108	-15808.0	-512.0	-0.3139178418148375	0.0	4425.0	6135.040283203125	0.7760869565217391	1258.0	0.3515151515151515	-583.0	-464.0	-0.5928143712574852	208.0	-1.6761261197765431	2.0	0.6362203460018443	64.0	-2.477535316749003	
1.0041659599233586	2075.0	10.11521264052076	1238.0	-0.05748091279073951	1990.0	0.9809932556713672	-1600.0	10.0453709380748	-16384.0	-640.0	-0.39239730226854685	0.0	5065.0	6154.571533203125	0.7782608695652175	1259.0	0.3616161616161616	-578.0	-477.0	-0.56686626746507	246.0	-7.273378015733302	-40.0	1.6785921061041575	429.0	-2.999509565850272	
1.077797436867813	2075.0	10.162496315756313	1234.0	-0.05627176126893943	1984.0	1.020232985898222	-1664.0	9.849172286940528	-16064.0	-576.0	-0.3531575720416922	0.0	5705.0	6174.102783203125	0.7760869565217391	1258.0	0.3434343434343434	-587.0	-462.0	-0.596806387225549	243.0	-3.7349471727664967	-110.0	2.479967486745449	199.0	-2.9892664978540844	
0.7497247115496025	2080.0	10.219097371678542	1230.0	-0.11922744181832091	2011.0	0.627835683629675	-1024.0	9.849172286940528	-16064.0	-448.0	-0.27467811158798283	0.0	6345.0	6193.634033203125	0.7717391304347826	1256.0	0.36363636363636365	-577.0	-458.0	-0.6047904191616768	282.0	2.8684055476991945	-102.0	1.9241603431574743	-232.0	-3.6484559185948635	
1.1042404157897538	2079.0	10.321430821468486	1221.0	-0.10261075750693563	1982.0	0.8240343347639485	-1344.0	9.731453096259962	-15872.0	-512.0	-0.3139178418148375	0.0	6985.0	6213.165283203125	0.7673913043478261	1254.0	0.3575757575757576	-580.0	-450.0	-0.6207584830339322	259.0	-1.9135283632397757	-101.0	2.2279980441734386	80.0	-3.2508266935539143	
1.154098795445063	2082.0	10.394302731091107	1215.0	-0.13752803292740928	1978.0	1.020232985898222	-1664.0	9.927651747394236	-16192.0	-576.0	-0.3531575720416922	0.0	7625.0	6232.696533203125	0.7782608695652175	1259.0	0.34949494949494947	-584.0	-464.0	-0.5928143712574852	248.0	-8.036174727038583	-69.0	2.16768209594468	479.0	-3.0222998496877893	
0.9847586198085202	2088.0	10.460131629747861	1210.0	-0.21085230232371321	1992.0	0.8240343347639485	-1344.0	10.123850398528509	-16512.0	-704.0	-0.4316370324954016	0.0	8265.0	6252.227783203125	0.7739130434782608	1257.0	0.3616161616161616	-578.0	-471.0	-0.5788423153692616	270.0	1.4857827556268837	-75.0	1.60829290805817	-142.0	-3.4521201849707177	
0.8996532295121904	2085.0	10.522091084930643	1205.0	-0.17493918336159564	1999.0	0.745554874310239	-1216.0	10.0453709380748	-16384.0	-640.0	-0.39239730226854685	0.0	8905.0	6271.759033203125	0.7782608695652175	1259.0	0.3515151515151515	-583.0	-471.0	-0.5788423153692616	150.0	-1.628002094852256	-58.0	1.4971359676520084	62.0	-1.5958872794317056	
0.9841509453912475	2086.0	10.423084020728393	1213.0	-0.18713246961591196	1992.0	0.8240343347639485	-1344.0	10.084610668301655	-16448.0	-704.0	-0.4316370324954016	0.0	9545.0	6291.290283203125	0.7739130434782608	1257.0	0.35555555555555557	-581.0	-463.0	-0.594810379241517	82.0	-3.734585532413949	-58.0	1.6023853536135266	200.0	-0.540600912736697	
