Device	Device	Device	Device	Device	Device	Device	Device	Device	Device	Device	Device	Device	Device	Device	Device	Device	Device	Device	Device	Device	Device	Device	Device	Device	Device	Device	
Low Noise Accelerometer X	Low Noise Accelerometer X	Low Noise Accelerometer Z	Low Noise Accelerometer Z	Low Noise Accelerometer Y	Low Noise Accelerometer Y	Wide Range Accelerometer X	Wide Range Accelerometer X	Wide Range Accelerometer Z	Wide Range Accelerometer Z	Wide Range Accelerometer Y	Wide Range Accelerometer Y	Event_Marker	Timestamp	Timestamp	Magnetometer Z	Magnetometer Z	Magnetometer X	Magnetometer X	Magnetometer Y	Magnetometer Y	Gyroscope Y	Gyroscope Y	Gyroscope Z	Gyroscope Z	Gyroscope X	Gyroscope X	
CAL	UNCAL	CAL	UNCAL	UNCAL	CAL	UNCAL	CAL	CAL	UNCAL	CAL	UNCAL	CAL	CAL	UNCAL	UNCAL	CAL	CAL	UNCAL	UNCAL	CAL	UNCAL	CAL	CAL	UNCAL	CAL	UNCAL	
m/(s^2)	no units	m/(s^2)	no units	no units	m/(s^2)	no units	m/(s^2)	m/(s^2)	no units	m/(s^2)	no units	no units	ms	no units	no units	local_flux	local_flux	no units	no units	local_flux	no units	deg/s	deg/s	no units	deg/s	no units	
0.23177005385053567	2024.0	10.313608153313877	1222.0	2053.0	0.5512369146017645	192.0	-0.11771919068056406	9.849172286940528	-16064.0	0.3531575720416922	576.0	0.0	1654.327392578125	54209.0	1256.0	0.7717391304347826	0.2868686868686869	-615.0	-470.0	-0.5808383233532934	160.0	-3.771881469488189	-0.9412695261090034	115.0	-1.7265397404381981	200.0	
0.7931872882248264	2027.0	10.327377906697544	1220.0	2007.0	0.5208442061660911	-704.0	0.4316370324954016	9.888412017167381	-16128.0	0.27467811158798283	448.0	0.0	1673.858642578125	54849.0	1255.0	0.7695652173913043	0.2808080808080808	-618.0	-474.0	-0.5728542914171657	100.0	-6.675507443315147	-0.6107615182419464	104.0	-0.7849559521828182	390.0	
0.6838347502710588	2031.0	10.318357365542909	1221.0	2016.0	0.47146770429066964	-1216.0	0.745554874310239	9.888412017167381	-16128.0	0.27467811158798283	448.0	0.0	1693.389892578125	55489.0	1256.0	0.7717391304347826	0.27070707070707073	-623.0	-468.0	-0.5848303393213574	59.0	-1.1270315474818433	-0.4371707601945003	65.0	-0.21686656665445916	29.0	
0.4279346515399366	2031.0	10.33571819732214	1220.0	2037.0	0.46908231162115077	-320.0	0.19619865113427343	9.927651747394236	-16192.0	0.27467811158798283	448.0	0.0	1712.921142578125	56129.0	1254.0	0.7673913043478261	0.28888888888888886	-614.0	-480.0	-0.5608782435129741	-71.0	-3.5541367076569395	-1.0969568809240933	115.0	1.7845907967343644	188.0	
0.60825310236448	2022.0	10.183596050931335	1232.0	2022.0	0.5777980096052471	-512.0	0.3139178418148375	9.770692826486817	-15936.0	0.27467811158798283	448.0	0.0	1732.452392578125	56769.0	1262.0	0.7847826086956522	0.29292929292929293	-612.0	-482.0	-0.5568862275449102	-167.0	-6.735617207290227	-1.4736590149072453	151.0	3.276481647358074	396.0	
0.657016804556875	2021.0	10.194562988855262	1231.0	2018.0	0.5904435087774947	-704.0	0.4316370324954016	9.809932556713672	-16000.0	0.3531575720416922	576.0	0.0	1751.983642578125	57409.0	1259.0	0.7782608695652175	0.2868686868686869	-615.0	-466.0	-0.5888223552894213	-131.0	-4.604683888633615	-1.1652882245056826	122.0	2.7076437970612415	257.0	
0.6448318156525613	2024.0	10.158953773186868	1234.0	2019.0	0.5538209884185147	-640.0	0.39239730226854685	9.770692826486817	-15936.0	0.39239730226854685	640.0	0.0	1771.514892578125	58049.0	1254.0	0.7673913043478261	0.28484848484848485	-616.0	-484.0	-0.5528942115768464	-98.0	-2.93536994864434	-1.0215163691315448	106.0	2.189049516976938	148.0	
0.5831526199873908	2025.0	10.075091575575712	1241.0	2024.0	0.540317381714667	-704.0	0.4316370324954016	9.692213366033108	-15808.0	0.4316370324954016	704.0	0.0	1791.046142578125	58689.0	1258.0	0.7760869565217391	0.301010101010101	-608.0	-486.0	-0.5489021956087825	-81.0	-2.293247277428889	-1.0108883904805686	103.0	1.9240731571849354	106.0	
0.619240012670714	2023.0	10.049495557833774	1243.0	2021.0	0.5645186810062496	-640.0	0.39239730226854685	9.613733905579398	-15680.0	0.3531575720416922	576.0	0.0	1810.577392578125	59329.0	1254.0	0.7673913043478261	0.2909090909090909	-613.0	-472.0	-0.5768463073852296	-123.0	-3.0380329227116882	-0.9246326253748609	99.0	2.5703042835997407	155.0	
0.6425304244733345	2020.0	9.975146338085729	1249.0	2019.0	0.6001526712400483	-640.0	0.39239730226854685	9.574494175352545	-15616.0	0.3531575720416922	576.0	0.0	1830.108642578125	59969.0	1251.0	0.7608695652173914	0.296969696969697	-610.0	-477.0	-0.56686626746507	-123.0	-3.7883467867740492	-0.7524707504511131	91.0	2.5778074222403644	204.0	
0.6663121568807131	2021.0	9.901750858335154	1255.0	2017.0	0.587608340995532	-704.0	0.4316370324954016	9.45677498467198	-15424.0	0.3139178418148375	512.0	0.0	1849.639892578125	60609.0	1257.0	0.7739130434782608	0.28484848484848485	-616.0	-472.0	-0.5768463073852296	-107.0	-3.9439011038462444	-0.71691782593058	90.0	2.3360169578065233	214.0	
0.7650527513204898	2022.0	10.009731763562822	1246.0	2009.0	0.5776273632211222	-960.0	0.5885959534028203	9.45677498467198	-15424.0	0.39239730226854685	640.0	0.0	1869.171142578125	61249.0	1257.0	0.7739130434782608	0.2868686868686869	-615.0	-464.0	-0.5928143712574852	-55.0	-4.19777807012014	-0.7575680305780792	96.0	1.5476812027544335	230.0	
0.703862717480519	2026.0	9.938775117290014	1252.0	2014.0	0.528113125335657	-960.0	0.5885959534028203	9.53525444512569	-15552.0	0.3531575720416922	576.0	0.0	1888.702392578125	61889.0	1251.0	0.7608695652173914	0.2868686868686869	-615.0	-459.0	-0.6027944111776448	11.0	-3.658421335745925	-1.0697977467464164	117.0	0.5384853540418699	194.0	
0.7045910632694229	2028.0	9.988012972649727	1248.0	2014.0	0.5045164018049745	-960.0	0.5885959534028203	9.613733905579398	-15680.0	0.23543838136112813	384.0	0.0	1908.233642578125	62529.0	1256.0	0.7717391304347826	0.296969696969697	-610.0	-482.0	-0.5568862275449102	-2.0	-4.443504814169802	-1.5028248018352928	149.0	0.7440548200048159	245.0	
0.7655440719252476	2026.0	10.010685503560294	1246.0	2009.0	0.5294490427428071	-960.0	0.5885959534028203	9.53525444512569	-15552.0	0.27467811158798283	448.0	0.0	1927.764892578125	63169.0	1253.0	0.7652173913043478	0.3111111111111111	-603.0	-473.0	-0.5748502994011977	-71.0	-5.014595903892895	-1.3401365070729674	138.0	1.799195388696724	283.0	
0.7044682331182335	2027.0	9.98777453765036	1248.0	2014.0	0.5165609819245532	-960.0	0.5885959534028203	9.652973635806253	-15744.0	0.3139178418148375	512.0	0.0	1947.296142578125	63809.0	1246.0	0.75	0.28484848484848485	-616.0	-454.0	-0.6127744510978045	-116.0	-5.344995060527184	-1.2995396403823563	135.0	2.4869100266508997	305.0	
0.6051178054816256	2023.0	9.854697834744101	1259.0	2022.0	0.5624294817034619	-768.0	0.47087676272225626	9.53525444512569	-15552.0	0.3139178418148375	512.0	0.0	1966.827392578125	64449.0	1258.0	0.7760869565217391	0.30505050505050507	-606.0	-486.0	-0.5489021956087825	-206.0	-6.226503408449714	-1.8026846385142565	169.0	3.8645464029057903	363.0	
0.6044907020483291	2012.0	9.925216527792522	1253.0	2022.0	0.6956585180815408	-832.0	0.510116492949111	9.45677498467198	-15424.0	0.47087676272225626	768.0	0.0	1986.358642578125	65089.0	1252.0	0.7630434782608696	0.30505050505050507	-606.0	-470.0	-0.5808383233532934	-288.0	-8.41917133032734	-1.310155785259235	143.0	5.13362137109795	507.0	
0.6762991557409657	2006.0	9.861357375969666	1258.0	2016.0	0.7680271677267446	-832.0	0.510116492949111	9.45677498467198	-15424.0	0.5885959534028203	960.0	0.0	2005.889892578125	193.0	1250.0	0.7586956521739131	0.3111111111111111	-603.0	-490.0	-0.5409181636726548	-232.0	-8.913930240394762	-0.8218620191063774	115.0	4.286857933582654	539.0	
0.701656092318225	2010.0	9.910579664619641	1254.0	2014.0	0.7205801888946796	-896.0	0.5493562231759657	9.45677498467198	-15424.0	0.5885959534028203	960.0	0.0	2025.421142578125	833.0	1260.0	0.7804347826086957	0.30707070707070705	-605.0	-487.0	-0.5469061876247505	-124.0	-8.21684468325835	-0.07004306817166872	66.0	2.6373015266804924	493.0	
0.8239413939812342	2014.0	9.896880974734492	1255.0	2004.0	0.6734732839281209	-1088.0	0.6670754138565297	9.53525444512569	-15552.0	0.47087676272225626	768.0	0.0	2044.952392578125	1473.0	1254.0	0.7673913043478261	0.31717171717171716	-600.0	-480.0	-0.5608782435129741	-67.0	-9.093526269250662	0.6103584224739579	27.0	1.7791481904491606	550.0	
0.9330417952939483	2005.0	9.941280079913023	1251.0	1995.0	0.7834420139327923	-1280.0	0.7847946045370937	9.574494175352545	-15616.0	0.4316370324954016	704.0	0.0	2064.483642578125	2113.0	1257.0	0.7739130434782608	0.3292929292929293	-594.0	-482.0	-0.5568862275449102	-37.0	-8.970413340740787	1.0998008331600426	-5.0	1.321643296905507	542.0	
1.0191082390042119	2006.0	10.000746218133951	1246.0	1988.0	0.7728491469810199	-1344.0	0.8240343347639485	9.53525444512569	-15552.0	0.5493562231759657	896.0	0.0	2084.014892578125	2753.0	1256.0	0.7717391304347826	0.31313131313131315	-602.0	-474.0	-0.5728542914171657	53.0	-7.968905609663461	1.3247288067581025	-21.0	-0.05719307318093194	476.0	
0.9827816623571842	2009.0	9.990009931854521	1247.0	1991.0	0.7362339400385024	-1344.0	0.8240343347639485	9.53525444512569	-15552.0	0.5885959534028203	960.0	0.0	2103.546142578125	3393.0	1255.0	0.7695652173913043	0.33535353535353535	-591.0	-477.0	-0.56686626746507	163.0	-6.758444215163331	1.2624233345477702	-18.0	-1.7423014894073023	396.0	
1.070181967494066	2013.0	10.147713345795509	1234.0	1984.0	0.6904922061449437	-1472.0	0.9025137952176578	9.652973635806253	-15744.0	0.510116492949111	832.0	0.0	2123.077392578125	4033.0	1254.0	0.7673913043478261	0.3333333333333333	-592.0	-493.0	-0.5349301397205589	241.0	-6.645779610668621	1.4369668832909617	-27.0	-2.929739922524493	388.0	
0.9602109612252349	2010.0	10.161404252325788	1233.0	1993.0	0.7256739834608112	-1344.0	0.8240343347639485	9.809932556713672	-16000.0	0.510116492949111	832.0	0.0	2142.608642578125	4673.0	1253.0	0.7652173913043478	0.32727272727272727	-595.0	-460.0	-0.6007984031936129	328.0	-5.912802284480989	0.8541717718653833	12.0	-4.260263612136179	339.0	
0.9626373413352093	2016.0	10.333498311085417	1219.0	1993.0	0.6551300312230013	-1280.0	0.7847946045370937	9.809932556713672	-16000.0	0.47087676272225626	768.0	0.0	2162.139892578125	5313.0	1251.0	0.7608695652173914	0.3434343434343434	-587.0	-475.0	-0.5708582834331338	391.0	-4.275393138959704	1.3332577302154802	-25.0	-5.234812608534357	232.0	
0.9269249154441288	2024.0	10.323954199802827	1220.0	1996.0	0.55829192368259	-1216.0	0.745554874310239	9.927651747394236	-16192.0	0.3531575720416922	576.0	0.0	2181.671142578125	5953.0	1252.0	0.7630434782608696	0.34545454545454546	-586.0	-488.0	-0.5449101796407186	397.0	-2.8268019095298973	2.015696165663783	-77.0	-5.340553273680367	138.0	
1.0852997685700196	2027.0	10.272707680834865	1224.0	1983.0	0.5232186287109162	-1280.0	0.7847946045370937	9.927651747394236	-16192.0	0.27467811158798283	448.0	0.0	2201.202392578125	6593.0	1250.0	0.7586956521739131	0.3292929292929293	-594.0	-470.0	-0.5808383233532934	296.0	-3.7620611632511967	2.1093003652913884	-83.0	-3.7950790081393513	200.0	
1.511384742539103	2021.0	10.27484967478059	1223.0	1948.0	0.5997900550165703	-2368.0	1.4518700183936235	9.849172286940528	-16064.0	0.39239730226854685	640.0	0.0	2220.733642578125	7233.0	1252.0	0.7630434782608696	0.3333333333333333	-592.0	-466.0	-0.5888223552894213	158.0	0.32611827561830004	2.115621297425646	-108.0	-1.7371014869386925	-65.0	
0.950950149374328	2026.0	10.262987401391866	1225.0	1994.0	0.5338261224956136	-1536.0	0.9417535254445125	9.809932556713672	-16000.0	0.27467811158798283	448.0	0.0	2240.264892578125	7873.0	1252.0	0.7630434782608696	0.32525252525252524	-596.0	-485.0	-0.5508982035928145	271.0	13.991215830804078	2.867458663278731	-217.0	-3.592383641197775	-956.0	
0.6951836746921863	2032.0	10.220827611466081	1229.0	2015.0	0.45855770322302836	-832.0	0.510116492949111	9.809932556713672	-16000.0	0.27467811158798283	448.0	0.0	2259.796142578125	8513.0	1252.0	0.7630434782608696	0.3090909090909091	-604.0	-460.0	-0.6007984031936129	266.0	15.129578750997743	3.0550518464044627	-235.0	-3.5277216430232854	-1030.0	
0.4870840659599672	2032.0	10.13968159910641	1236.0	2032.0	0.4556652470121094	-512.0	0.3139178418148375	9.809932556713672	-16000.0	0.23543838136112813	384.0	0.0	2279.327392578125	9153.0	1253.0	0.7652173913043478	0.3333333333333333	-592.0	-477.0	-0.56686626746507	205.0	5.829733497674464	2.210937946307851	-138.0	-2.506966536497657	-424.0	
1.1444383890922591	2023.0	10.136430139323519	1235.0	1978.0	0.5706400105853624	-1664.0	1.020232985898222	9.770692826486817	-15936.0	0.39239730226854685	640.0	0.0	2298.858642578125	9793.0	1251.0	0.7608695652173914	0.3373737373737374	-590.0	-478.0	-0.564870259481038	49.0	-7.9221612801920696	1.3340344450989736	-22.0	0.0031759854254948365	473.0	
1.1195727731197576	2023.0	10.088161590671016	1239.0	1980.0	0.5699086689391124	-1600.0	0.9809932556713672	9.613733905579398	-15680.0	0.23543838136112813	384.0	0.0	2318.389892578125	10433.0	1254.0	0.7673913043478261	0.32525252525252524	-596.0	-465.0	-0.5908183632734532	-17.0	-8.67878251600261	1.4065132068491382	-26.0	1.0145444791524214	523.0	
0.8756271144474777	2025.0	10.056992088733766	1242.0	2000.0	0.5430611317908485	-1216.0	0.745554874310239	9.652973635806253	-15744.0	0.3531575720416922	576.0	0.0	2337.921142578125	11073.0	1250.0	0.7586956521739131	0.3292929292929293	-594.0	-470.0	-0.5808383233532934	59.0	-2.5475856078916843	1.7756428308957815	-76.0	-0.20266102605036074	123.0	
0.936220267767967	2024.0	10.031142069282723	1244.0	1995.0	0.5554567559006273	-1152.0	0.7063151440833844	9.652973635806253	-15744.0	0.3531575720416922	576.0	0.0	2357.452392578125	11713.0	1253.0	0.7652173913043478	0.32525252525252524	-596.0	-486.0	-0.5489021956087825	60.0	-4.206972289478919	1.6068869377388717	-57.0	-0.20127628470977357	231.0	
0.9479182536266391	2019.0	10.04189392227189	1243.0	1994.0	0.6159222181445273	-1344.0	0.8240343347639485	9.574494175352545	-15616.0	0.39239730226854685	640.0	0.0	2376.983642578125	12353.0	1251.0	0.7608695652173914	0.3292929292929293	-594.0	-468.0	-0.5848303393213574	25.0	-5.860507654799718	1.475792667277911	-42.0	0.34757846057841546	339.0	
0.959741228416059	2016.0	10.04093239891955	1243.0	1993.0	0.6521754109721511	-1216.0	0.745554874310239	9.692213366033108	-15808.0	0.39239730226854685	640.0	0.0	2396.514892578125	12993.0	1251.0	0.7608695652173914	0.3414141414141414	-588.0	-472.0	-0.5768463073852296	64.0	-5.018019216810543	1.9056493239272134	-73.0	-0.254002317337598	284.0	
1.0341096862676502	2022.0	10.08964668415131	1239.0	1987.0	0.5811170817764786	-1472.0	0.9025137952176578	9.692213366033108	-15808.0	0.4316370324954016	704.0	0.0	2416.046142578125	13633.0	1252.0	0.7630434782608696	0.3393939393939394	-589.0	-487.0	-0.5469061876247505	135.0	-4.346059841161977	2.6517000551381797	-123.0	-1.3405698198393308	240.0	
1.0220388923962933	2022.0	10.102083148845791	1238.0	1988.0	0.5811207384847098	-1344.0	0.8240343347639485	9.692213366033108	-15808.0	0.27467811158798283	448.0	0.0	2435.577392578125	14273.0	1253.0	0.7652173913043478	0.33131313131313134	-593.0	-470.0	-0.5808383233532934	177.0	-3.778426960562027	3.2674292948681916	-165.0	-1.9850294186073074	203.0	
1.1082216899190716	2021.0	10.197643156088718	1230.0	1981.0	0.5949863593034512	-1472.0	0.9025137952176578	9.849172286940528	-16064.0	0.3531575720416922	576.0	0.0	2455.108642578125	14913.0	1252.0	0.7630434782608696	0.3515151515151515	-583.0	-486.0	-0.5489021956087825	209.0	-3.6229275727168226	2.421501504439352	-108.0	-2.473276427694885	192.0	
1.0831168899828658	2022.0	10.113042303414849	1237.0	1983.0	0.5818411100062661	-1536.0	0.9417535254445125	9.731453096259962	-15872.0	0.39239730226854685	640.0	0.0	2474.639892578125	15553.0	1253.0	0.7652173913043478	0.3292929292929293	-594.0	-481.0	-0.5588822355289422	216.0	-3.02520713873934	2.444128732360103	-112.0	-2.5857175103616563	153.0	
1.1204217902802927	2025.0	10.149589692370974	1234.0	1980.0	0.5464350545855486	-1536.0	0.9417535254445125	9.731453096259962	-15872.0	0.3531575720416922	576.0	0.0	2494.171142578125	16193.0	1251.0	0.7608695652173914	0.3414141414141414	-588.0	-468.0	-0.5848303393213574	203.0	-2.914903007534951	2.5334903458180107	-119.0	-2.389101920494993	146.0	
1.2073372511510916	2028.0	10.270483932291858	1224.0	1973.0	0.5123685732802125	-1728.0	1.0594727161250765	9.888412017167381	-16128.0	0.3139178418148375	512.0	0.0	2513.702392578125	16833.0	1248.0	0.7543478260869565	0.34949494949494947	-584.0	-477.0	-0.56686626746507	213.0	-2.2835007429116696	2.9004259995897446	-146.0	-2.5475071978940775	105.0	
1.1961284271176191	2036.0	10.272637630641038	1224.0	1974.0	0.4158924798546949	-1728.0	1.0594727161250765	9.849172286940528	-16064.0	0.23543838136112813	384.0	0.0	2533.233642578125	17473.0	1246.0	0.75	0.3373737373737374	-590.0	-470.0	-0.5808383233532934	135.0	-2.104612809010643	2.720582897922336	-138.0	-1.3629842901608442	94.0	
1.2452627785431405	2039.0	10.27236806222219	1224.0	1970.0	0.38023654937150864	-1792.0	1.0987124463519313	9.849172286940528	-16064.0	0.19619865113427343	320.0	0.0	2552.764892578125	18113.0	1254.0	0.7673913043478261	0.33535353535353535	-591.0	-462.0	-0.596806387225549	-15.0	-1.7834796588417055	1.8573520904125702	-88.0	0.9151731996302421	74.0	
1.1840511569075876	2033.0	10.32092952935815	1220.0	1975.0	0.4523992044530187	-1664.0	1.020232985898222	9.927651747394236	-16192.0	0.19619865113427343	320.0	0.0	2572.296142578125	18753.0	1250.0	0.7586956521739131	0.3575757575757576	-580.0	-469.0	-0.5828343313373254	-187.0	-2.475572529551454	0.6314676785901836	-10.0	3.538063710086389	120.0	
1.1578365680515599	2023.0	10.258086384371724	1225.0	1977.0	0.5719905548254375	-1536.0	0.9417535254445125	9.731453096259962	-15872.0	0.3531575720416922	576.0	0.0	2591.827392578125	19393.0	1247.0	0.7521739130434782	0.3333333333333333	-592.0	-466.0	-0.5888223552894213	-298.0	-2.6583099755005515	0.6216351989623525	-13.0	5.228104012302534	133.0	
1.010090928676126	2023.0	10.114758048539642	1237.0	1989.0	0.5690798150733624	-1408.0	0.8632740649908032	9.809932556713672	-16000.0	0.39239730226854685	640.0	0.0	2611.358642578125	20033.0	1250.0	0.7586956521739131	0.3373737373737374	-590.0	-468.0	-0.5848303393213574	-367.0	-3.5982377564202084	0.7350320086913291	-19.0	6.286932947906409	195.0	
1.107260636505138	2023.0	10.076217562685008	1240.0	1981.0	0.5696661072931062	-1536.0	0.9417535254445125	9.731453096259962	-15872.0	0.3531575720416922	576.0	0.0	2630.889892578125	20673.0	1252.0	0.7630434782608696	0.34545454545454546	-586.0	-481.0	-0.5588822355289422	-416.0	-5.766244571454687	1.1259804645524367	-37.0	7.053860164345727	337.0	
1.2890444140257225	2022.0	9.974763881650121	1248.0	1966.0	0.5825176010290475	-1920.0	1.1771919068056407	9.613733905579398	-15680.0	0.3139178418148375	512.0	0.0	2650.421142578125	21313.0	1254.0	0.7673913043478261	0.35555555555555557	-581.0	-487.0	-0.5469061876247505	-431.0	-6.793132314327249	1.0384013386899367	-27.0	7.29226592390373	404.0	
1.3018370773473085	2021.0	10.047420706337983	1242.0	1965.0	0.5954202886802262	-1792.0	1.0987124463519313	9.652973635806253	-15744.0	0.39239730226854685	640.0	0.0	2669.952392578125	21953.0	1252.0	0.7630434782608696	0.3515151515151515	-583.0	-472.0	-0.5768463073852296	-330.0	-4.50582140640005	1.090574403899615	-37.0	5.733271141820654	254.0	
1.276240956806345	2018.0	9.961866113666643	1249.0	1967.0	0.6304533598613562	-1856.0	1.137952176578786	9.613733905579398	-15680.0	0.4316370324954016	704.0	0.0	2689.483642578125	22593.0	1253.0	0.7652173913043478	0.36767676767676766	-575.0	-489.0	-0.5429141716566867	-231.0	-3.2505905579453023	0.7336033912705233	-15.0	4.2150154112828755	171.0	
1.214675956174131	2016.0	9.92604959641836	1252.0	1972.0	0.6535759302247199	-1664.0	1.020232985898222	9.496014714898834	-15488.0	0.4316370324954016	704.0	0.0	2709.014892578125	23233.0	1254.0	0.7673913043478261	0.3474747474747475	-585.0	-486.0	-0.5489021956087825	-154.0	-2.694355722235528	0.7417335531690014	-15.0	3.0383504013288194	134.0	
1.215042287848141	2018.0	9.93871671275734	1251.0	1972.0	0.6296098791626812	-1792.0	1.0987124463519313	9.496014714898834	-15488.0	0.47087676272225626	768.0	0.0	2728.546142578125	23873.0	1250.0	0.7586956521739131	0.33131313131313134	-593.0	-467.0	-0.5868263473053893	-44.0	-3.1658693827209503	1.3062386722219455	-46.0	1.3700617356523046	164.0	
1.2755277224743486	2023.0	9.828965578920792	1260.0	1967.0	0.5688762583151561	-1728.0	1.0594727161250765	9.417535254445125	-15360.0	0.3531575720416922	576.0	0.0	2748.077392578125	24513.0	1258.0	0.7760869565217391	0.35555555555555557	-581.0	-483.0	-0.5548902195608784	-12.0	-2.983647768751859	1.5978812997124545	-65.0	0.8815475043034883	152.0	
1.2379857969927754	2022.0	9.744134074602426	1267.0	1970.0	0.579700716788241	-1792.0	1.0987124463519313	9.417535254445125	-15360.0	0.3531575720416922	576.0	0.0	2767.608642578125	25153.0	1252.0	0.7630434782608696	0.3434343434343434	-587.0	-480.0	-0.5608782435129741	23.0	-2.9419939836351827	1.6912374906743628	-70.0	0.34881157481734043	149.0	
1.3967118703357688	2020.0	9.78921735135958	1263.0	1957.0	0.6058351958314112	-2048.0	1.25567136725935	9.339055793991415	-15232.0	0.3531575720416922	576.0	0.0	2787.139892578125	25793.0	1254.0	0.7673913043478261	0.3575757575757576	-580.0	-473.0	-0.5748502994011977	45.0	-4.176357032382732	1.370743084337917	-42.0	0.026554444848542153	229.0	
1.3613420295435585	2019.0	9.923810281165615	1252.0	1960.0	0.6188756194926337	-1984.0	1.2164316370324952	9.496014714898834	-15488.0	0.3531575720416922	576.0	0.0	2806.671142578125	26433.0	1252.0	0.7630434782608696	0.3696969696969697	-574.0	-488.0	-0.5449101796407186	204.0	-2.130858346325745	1.145196368833653	-30.0	-2.4121514925823697	94.0	
1.2038377813737853	2028.0	9.916966788424768	1253.0	1973.0	0.5087984071437686	-1600.0	0.9809932556713672	9.496014714898834	-15488.0	0.3139178418148375	512.0	0.0	2826.202392578125	27073.0	1252.0	0.7630434782608696	0.35555555555555557	-581.0	-479.0	-0.5628742514970061	301.0	-0.6062178298144891	1.6078379231648579	-64.0	-3.9026830688501444	-6.0	
1.2160206114985406	2024.0	9.964527815434037	1249.0	1972.0	0.5575886167994462	-1792.0	1.0987124463519313	9.613733905579398	-15680.0	0.39239730226854685	640.0	0.0	2845.733642578125	27713.0	1247.0	0.7521739130434782	0.3373737373737374	-590.0	-468.0	-0.5848303393213574	239.0	-1.4425044538304996	1.4484147960401539	-52.0	-2.9513544231423037	49.0	
1.2773421106079337	2025.0	9.987915651342707	1247.0	1967.0	0.5463875173785424	-1792.0	1.0987124463519313	9.496014714898834	-15488.0	0.27467811158798283	448.0	0.0	2865.264892578125	28353.0	1250.0	0.7586956521739131	0.3696969696969697	-574.0	-489.0	-0.5429141716566867	165.0	-2.182471766122871	1.5298600283094883	-57.0	-1.8184794648482772	98.0	
1.6290823733005662	2024.0	9.809873435307027	1261.0	1938.0	0.5601726906161962	-2304.0	1.4126302881667687	9.45677498467198	-15424.0	0.3531575720416922	576.0	0.0	2884.796142578125	28993.0	1248.0	0.7543478260869565	0.34949494949494947	-584.0	-474.0	-0.5728542914171657	148.0	-1.1327322000760982	1.8812385578850914	-86.0	-1.5704217274288972	30.0	
1.4230277015474038	2021.0	9.97181704475414	1248.0	1955.0	0.5958761583063887	-2048.0	1.25567136725935	9.574494175352545	-15616.0	0.3531575720416922	576.0	0.0	2904.327392578125	29633.0	1249.0	0.7565217391304347	0.36767676767676766	-575.0	-473.0	-0.5748502994011977	163.0	7.823620083250321	2.9761473415371	-200.0	-1.8881221323914388	-553.0	
1.1054505659306693	2023.0	9.89336386758134	1255.0	1981.0	0.5678194696363248	-1536.0	0.9417535254445125	9.496014714898834	-15488.0	0.3531575720416922	576.0	0.0	2923.858642578125	30273.0	1253.0	0.7652173913043478	0.3595959595959596	-579.0	-486.0	-0.5489021956087825	235.0	13.105274876451947	2.742301471787844	-206.0	-3.0359957145439873	-898.0	
0.9708488100939241	2017.0	9.919022152162235	1253.0	1992.0	0.6390191915502722	-1152.0	0.7063151440833844	9.53525444512569	-15552.0	0.4316370324954016	704.0	0.0	2943.389892578125	30913.0	1254.0	0.7673913043478261	0.3474747474747475	-585.0	-486.0	-0.5489021956087825	182.0	8.22700705826228	2.1650278447868097	-147.0	-2.1811293861719765	-580.0	
0.946942088755798	2014.0	10.004131008254317	1246.0	1994.0	0.6757757912110648	-1280.0	0.7847946045370937	9.574494175352545	-15616.0	0.510116492949111	832.0	0.0	2962.921142578125	31553.0	1248.0	0.7543478260869565	0.3575757575757576	-580.0	-480.0	-0.5608782435129741	208.0	0.9075283881042475	1.1610456684152604	-45.0	-2.5033718618278105	-104.0	
1.3268212059118834	2020.0	10.119831312671607	1236.0	1963.0	0.6084424288002925	-1856.0	1.137952176578786	9.731453096259962	-15872.0	0.3531575720416922	576.0	0.0	2982.452392578125	32193.0	1254.0	0.7673913043478261	0.3515151515151515	-583.0	-478.0	-0.564870259481038	245.0	-5.868371456494453	0.9655026308889589	1.0	-2.998350505967375	337.0	
1.2296687683193368	2028.0	10.062757307799227	1241.0	1971.0	0.5105146222069686	-1792.0	1.0987124463519313	9.652973635806253	-15744.0	0.27467811158798283	448.0	0.0	3001.983642578125	32833.0	1254.0	0.7673913043478261	0.3434343434343434	-587.0	-487.0	-0.5469061876247505	309.0	-3.8917470367680056	1.616490119899025	-49.0	-3.99150078058289	208.0	
1.2553834014523735	2030.0	10.172453958151689	1232.0	1969.0	0.4877723494996549	-1792.0	1.0987124463519313	9.692213366033108	-15808.0	0.27467811158798283	448.0	0.0	3021.514892578125	33473.0	1249.0	0.7565217391304347	0.3656565656565657	-576.0	-474.0	-0.5728542914171657	301.0	-2.1583993300253557	1.4010271768688898	-43.0	-3.887161253848036	95.0	
1.352919440955396	2032.0	10.146580588636034	1234.0	1961.0	0.46439259065735994	-1984.0	1.2164316370324952	9.731453096259962	-15872.0	0.27467811158798283	448.0	0.0	3041.046142578125	34113.0	1244.0	0.7456521739130435	0.35555555555555557	-581.0	-468.0	-0.5848303393213574	237.0	-3.699446106334657	1.3344161375501535	-34.0	-2.8983667556666917	196.0	
1.2435604266629536	2033.0	10.17341548150403	1232.0	1970.0	0.45151915667203113	-1792.0	1.0987124463519313	9.809932556713672	-16000.0	0.23543838136112813	384.0	0.0	3060.577392578125	34753.0	1252.0	0.7630434782608696	0.34949494949494947	-584.0	-460.0	-0.6007984031936129	233.0	-1.6438562320747656	1.1739211184774936	-33.0	-2.8580861525081502	62.0	
1.353285772629406	2034.0	10.159247704975016	1233.0	1961.0	0.4404265395953212	-1984.0	1.2164316370324952	9.692213366033108	-15808.0	0.19619865113427343	320.0	0.0	3080.108642578125	35393.0	1248.0	0.7543478260869565	0.3656565656565657	-576.0	-469.0	-0.5828343313373254	186.0	-2.1763405386451855	0.9275163066031178	-16.0	-2.1379324121040426	97.0	
1.218457785506306	2035.0	10.076862817489284	1240.0	1972.0	0.4262062180781485	-1728.0	1.0594727161250765	9.731453096259962	-15872.0	0.15695892090741875	256.0	0.0	3099.639892578125	36033.0	1252.0	0.7630434782608696	0.35353535353535354	-582.0	-465.0	-0.5908183632734532	147.0	-0.8518197872345086	0.7966109228153638	-15.0	-1.5580217260820277	11.0	
1.2178436347503585	2030.0	10.075670642492444	1240.0	1972.0	0.4864291186760423	-1664.0	1.020232985898222	9.652973635806253	-15744.0	0.23543838136112813	384.0	0.0	3119.171142578125	36673.0	1248.0	0.7543478260869565	0.34949494949494947	-584.0	-462.0	-0.596806387225549	106.0	-0.09222864527369487	0.9286954660291866	-29.0	-0.9420434930149437	-38.0	
1.20480962868551	2031.0	9.978633325124093	1248.0	1973.0	0.47328021267062603	-1472.0	0.9025137952176578	9.53525444512569	-15552.0	0.27467811158798283	448.0	0.0	3138.702392578125	37313.0	1250.0	0.7586956521739131	0.3575757575757576	-580.0	-486.0	-0.5489021956087825	83.0	-1.5049692435190833	0.5032846887935215	5.0	-0.5781062011009309	54.0	
1.3158623597399064	2032.0	10.09855825833777	1238.0	1964.0	0.46354179654222244	-1920.0	1.1771919068056407	9.692213366033108	-15808.0	0.19619865113427343	320.0	0.0	3158.233642578125	37953.0	1247.0	0.7521739130434782	0.3414141414141414	-588.0	-464.0	-0.5928143712574852	110.0	-2.244484414646833	0.6311508152098246	1.0	-0.9813574372223531	102.0	
1.3893796416514042	2035.0	10.097796253210447	1238.0	1958.0	0.4281247709968112	-2048.0	1.25567136725935	9.613733905579398	-15680.0	0.19619865113427343	320.0	0.0	3177.764892578125	38593.0	1252.0	0.7630434782608696	0.35353535353535354	-582.0	-472.0	-0.5768463073852296	118.0	-1.9840239509433497	0.7078447095769089	-5.0	-1.1056350456616695	85.0	
1.2544331419362307	2037.0	9.991269308043595	1247.0	1969.0	0.4016136510058222	-1920.0	1.1771919068056407	9.53525444512569	-15552.0	0.15695892090741875	256.0	0.0	3197.296142578125	39233.0	1244.0	0.7456521739130435	0.35555555555555557	-581.0	-451.0	-0.6187624750499002	146.0	0.7352263326902349	1.4051843277596352	-63.0	-1.55868306180599	-92.0	
1.2305328969367795	2037.0	10.040522730113048	1243.0	1971.0	0.4018671827765222	-1664.0	1.020232985898222	9.652973635806253	-15744.0	0.15695892090741875	256.0	0.0	3216.827392578125	39873.0	1246.0	0.75	0.34949494949494947	-584.0	-455.0	-0.6107784431137725	157.0	2.26911778862152	1.4850275426134543	-75.0	-1.7413223565934397	-192.0	
1.3041686914403503	2039.0	10.063902782666847	1241.0	1965.0	0.3787409557049273	-1920.0	1.1771919068056407	9.692213366033108	-15808.0	0.15695892090741875	256.0	0.0	3236.358642578125	40513.0	1247.0	0.7521739130434782	0.35555555555555557	-581.0	-469.0	-0.5828343313373254	147.0	0.15287419917623807	1.5062944162637244	-67.0	-1.568068665946135	-54.0	
1.3662142187795312	2040.0	10.160432096616985	1233.0	1960.0	0.3682785113467361	-1856.0	1.137952176578786	9.770692826486817	-15936.0	0.07847946045370938	128.0	0.0	3255.889892578125	41153.0	1246.0	0.75	0.3717171717171717	-573.0	-475.0	-0.5708582834331338	190.0	-1.3140081362745817	1.2747290326735696	-43.0	-2.207392238028889	41.0	
1.3302539738065138	2045.0	10.162362926676536	1233.0	1963.0	0.3076972533421798	-1856.0	1.137952176578786	9.809932556713672	-16000.0	0.07847946045370938	128.0	0.0	3275.421142578125	41793.0	1249.0	0.7565217391304347	0.34949494949494947	-584.0	-474.0	-0.5728542914171657	218.0	-0.910735738200594	0.5890328256342723	2.0	-2.6372804753176142	14.0	
1.3803493786459688	2046.0	10.283518951661398	1223.0	1959.0	0.2973615748693387	-2048.0	1.25567136725935	9.888412017167381	-16128.0	0.0	0.0	0.0	3294.952392578125	42433.0	1245.0	0.7478260869565218	0.3575757575757576	-580.0	-459.0	-0.6027944111776448	135.0	6.598256267098273	1.260290496581977	-81.0	-1.4500129809219333	-474.0	
1.1255374810390861	2047.0	10.398640189161954	1214.0	1980.0	0.28391647549719107	-1600.0	0.9809932556713672	10.0453709380748	-16384.0	0.07847946045370938	128.0	0.0	3314.483642578125	43073.0	1247.0	0.7521739130434782	0.36767676767676766	-575.0	-482.0	-0.5568862275449102	21.0	9.412361371341909	1.6097678228324828	-122.0	0.25568627221813983	-656.0	
1.0403243720484743	2050.0	10.376698529959231	1216.0	1987.0	0.2467003495020047	-1472.0	0.9025137952176578	10.006131207847945	-16320.0	0.03923973022685469	64.0	0.0	3334.014892578125	43713.0	1243.0	0.7434782608695653	0.3515151515151515	-583.0	-475.0	-0.5708582834331338	-207.0	5.255181936475703	1.4155727009576737	-99.0	3.7649386749318214	-383.0	
0.9532796046878114	2043.0	10.291421289061606	1223.0	1994.0	0.3293144788170122	-1280.0	0.7847946045370937	9.927651747394236	-16192.0	0.11771919068056406	192.0	0.0	3353.546142578125	44353.0	1250.0	0.7586956521739131	0.36767676767676766	-575.0	-468.0	-0.5848303393213574	-345.0	-1.012942280506734	0.22365188777910577	4.0	5.926479232690999	26.0	
1.2072208973385767	2030.0	10.23439006326986	1227.0	1973.0	0.4879100855096987	-1728.0	1.0594727161250765	9.770692826486817	-15936.0	0.27467811158798283	448.0	0.0	3373.077392578125	44993.0	1246.0	0.75	0.34545454545454546	-586.0	-458.0	-0.6047904191616768	-515.0	-7.455198598686441	-0.45087938058008936	72.0	8.576453126671275	447.0	
1.498359371592487	2026.0	10.130005112048734	1235.0	1949.0	0.5379703918243639	-2176.0	1.3341508277130594	9.770692826486817	-15936.0	0.3531575720416922	576.0	0.0	3392.608642578125	45633.0	1250.0	0.7586956521739131	0.3616161616161616	-578.0	-486.0	-0.5489021956087825	-456.0	-6.089826100724891	0.3895344545710158	12.0	7.665460998649834	358.0	
1.3395083093187459	2026.0	10.096635211633087	1238.0	1962.0	0.53604818219747	-1920.0	1.1771919068056407	9.731453096259962	-15872.0	0.3531575720416922	576.0	0.0	3412.139892578125	46273.0	1246.0	0.75	0.3656565656565657	-576.0	-476.0	-0.5688622754491018	-283.0	-1.2323609869546217	0.7114246696222382	-25.0	4.985707640287798	40.0	
1.2539267098745654	2026.0	10.073978247432262	1240.0	1969.0	0.53496579656102	-1792.0	1.0987124463519313	9.613733905579398	-15680.0	0.3531575720416922	576.0	0.0	3431.671142578125	46913.0	1249.0	0.7565217391304347	0.36363636363636365	-577.0	-485.0	-0.5508982035928145	-150.0	-0.9328337702995994	0.456647544160921	-4.0	2.95989867990832	19.0	
1.3404909505282616	2034.0	10.09854269162803	1238.0	1962.0	0.4396915412408399	-2048.0	1.25567136725935	9.692213366033108	-15808.0	0.23543838136112813	384.0	0.0	3451.202392578125	47553.0	1248.0	0.7543478260869565	0.3474747474747475	-585.0	-474.0	-0.5728542914171657	-50.0	-1.3933939559997859	0.4295990050017872	4.0	1.443591734236804	48.0	
1.3886512958625001	2033.0	10.048558397850734	1242.0	1958.0	0.45172149452749366	-1984.0	1.2164316370324952	9.652973635806253	-15744.0	0.19619865113427343	320.0	0.0	3470.733642578125	48193.0	1250.0	0.7586956521739131	0.35353535353535354	-582.0	-475.0	-0.5708582834331338	6.0	-0.6222239063943122	0.12513643939949223	23.0	0.5841690071247796	-3.0	
1.3887741260136894	2034.0	10.048796832850101	1242.0	1958.0	0.4396769144079149	-2048.0	1.25567136725935	9.652973635806253	-15744.0	0.27467811158798283	448.0	0.0	3490.264892578125	48833.0	1252.0	0.7630434782608696	0.37575757575757573	-571.0	-484.0	-0.5528942115768464	67.0	0.4755365930155783	0.32572263477027463	7.0	-0.3545652518617147	-75.0	
1.266137604133578	2035.0	9.966165727010132	1249.0	1968.0	0.42557604535962973	-1792.0	1.0987124463519313	9.53525444512569	-15552.0	0.19619865113427343	320.0	0.0	3509.796142578125	49473.0	1250.0	0.7586956521739131	0.35353535353535354	-582.0	-479.0	-0.5628742514970061	155.0	1.225352877367549	-0.09271856189514492	35.0	-1.7004664565303296	-125.0	
1.1689678963045653	2035.0	10.004706212864766	1246.0	1976.0	0.42498975313988596	-1664.0	1.020232985898222	9.613733905579398	-15680.0	0.23543838136112813	384.0	0.0	3529.327392578125	50113.0	1246.0	0.75	0.3717171717171717	-573.0	-472.0	-0.5768463073852296	184.0	1.0677521653289501	-0.06410696678592764	35.0	-2.1399550881932137	-115.0	
1.1194823246619412	2037.0	9.908645985558495	1254.0	1980.0	0.39943790960822834	-1472.0	0.9025137952176578	9.45677498467198	-15424.0	0.19619865113427343	320.0	0.0	3548.858642578125	50753.0	1250.0	0.7586956521739131	0.3696969696969697	-574.0	-486.0	-0.5489021956087825	201.0	1.0109649387761137	0.6548353056672627	-12.0	-2.397942349007533	-111.0	
1.1689786902023562	2040.0	9.944947156160381	1251.0	1976.0	0.3641513066563984	-1664.0	1.020232985898222	9.574494175352545	-15616.0	0.15695892090741875	256.0	0.0	3568.389892578125	51393.0	1246.0	0.75	0.3595959595959596	-579.0	-461.0	-0.5988023952095809	159.0	-0.06808847525639124	1.0791986861885943	-37.0	-1.748368544905231	-40.0	
1.290895501411797	2041.0	9.93053316127713	1252.0	1966.0	0.35317814204857595	-1792.0	1.0987124463519313	9.613733905579398	-15680.0	0.15695892090741875	256.0	0.0	3587.921142578125	52033.0	1247.0	0.7521739130434782	0.3373737373737374	-590.0	-463.0	-0.594810379241517	130.0	-0.7666624708450067	1.380041918196498	-55.0	-1.3003181661660748	6.0	
1.2183543843711404	2043.0	9.969058080422025	1249.0	1972.0	0.32874159452744967	-1728.0	1.0594727161250765	9.574494175352545	-15616.0	0.07847946045370938	128.0	0.0	3607.452392578125	52673.0	1246.0	0.75	0.36767676767676766	-575.0	-487.0	-0.5469061876247505	168.0	0.334753144072845	1.5963663295869157	-73.0	-1.8892790903760897	-66.0	
1.1691015203535458	2041.0	9.94518559115975	1251.0	1976.0	0.3521067265368196	-1664.0	1.020232985898222	9.496014714898834	-15488.0	0.15695892090741875	256.0	0.0	3626.983642578125	53313.0	1246.0	0.75	0.35555555555555557	-581.0	-477.0	-0.56686626746507	175.0	-0.7712801119207772	1.602642280596522	-68.0	-1.9846826361431498	6.0	
1.2053117431880587	2040.0	9.91982800841718	1253.0	1973.0	0.36426344570882335	-1600.0	0.9809932556713672	9.496014714898834	-15488.0	0.19619865113427343	320.0	0.0	3646.514892578125	53953.0	1246.0	0.75	0.3575757575757576	-580.0	-467.0	-0.5868263473053893	120.0	-2.251093521462016	1.657184714106839	-67.0	-1.133382600907053	103.0	
1.168373174564642	2039.0	9.895947735800036	1255.0	1976.0	0.3757034500675021	-1792.0	1.0987124463519313	9.53525444512569	-15552.0	0.15695892090741875	256.0	0.0	3666.046142578125	54593.0	1249.0	0.7565217391304347	0.35555555555555557	-581.0	-485.0	-0.5508982035928145	58.0	-2.6671394879873898	2.08320549089395	-96.0	-0.1862563617741185	131.0	
1.2532307457790348	2039.0	9.845463221959397	1259.0	1969.0	0.3760471806412396	-1792.0	1.0987124463519313	9.496014714898834	-15488.0	0.19619865113427343	320.0	0.0	3685.577392578125	55233.0	1248.0	0.7543478260869565	0.3595959595959596	-579.0	-468.0	-0.5848303393213574	13.0	-3.3478924282582465	2.388067040895681	-115.0	0.5049618140164228	176.0	
1.3013846147745987	2035.0	9.831334362204732	1260.0	1965.0	0.42458020181798595	-1792.0	1.0987124463519313	9.45677498467198	-15424.0	0.19619865113427343	320.0	0.0	3705.108642578125	55873.0	1247.0	0.7521739130434782	0.37373737373737376	-572.0	-468.0	-0.5848303393213574	1.0	-4.1442642219055985	2.376224122512896	-111.0	0.6954350376563184	228.0	
1.3744148936404552	2036.0	9.805714994398185	1262.0	1959.0	0.4130061181574947	-1920.0	1.1771919068056407	9.417535254445125	-15360.0	0.19619865113427343	320.0	0.0	3724.639892578125	56513.0	1249.0	0.7565217391304347	0.37575757575757573	-571.0	-488.0	-0.5449101796407186	52.0	-4.644585517865251	2.2321780482075066	-97.0	-0.07522714862362888	260.0	
1.3628203089169486	2033.0	9.902767878476274	1254.0	1960.0	0.4500052794642936	-1920.0	1.1771919068056407	9.496014714898834	-15488.0	0.19619865113427343	320.0	0.0	3744.171142578125	57153.0	1251.0	0.7608695652173914	0.3575757575757576	-580.0	-472.0	-0.5768463073852296	150.0	-4.186732046114009	1.9300961359779674	-75.0	-1.570299979919088	229.0	
1.3027227937603334	2040.0	9.905668015243036	1254.0	1965.0	0.36509595628280467	-1984.0	1.2164316370324952	9.53525444512569	-15552.0	0.15695892090741875	256.0	0.0	3763.702392578125	57793.0	1247.0	0.7521739130434782	0.36767676767676766	-575.0	-464.0	-0.5928143712574852	188.0	-3.222450469782311	2.245920098942737	-99.0	-2.1578895637432414	166.0	
1.3518420337289474	2036.0	9.989061126210327	1247.0	1961.0	0.41461385087650104	-1920.0	1.1771919068056407	9.613733905579398	-15680.0	0.19619865113427343	320.0	0.0	3783.233642578125	58433.0	1248.0	0.7543478260869565	0.3717171717171717	-573.0	-482.0	-0.5568862275449102	156.0	-2.945611146500636	1.817379303982693	-73.0	-1.6739659417669328	148.0	
1.2668702674815981	2039.0	9.991499959688092	1247.0	1968.0	0.37764394323555217	-1792.0	1.0987124463519313	9.613733905579398	-15680.0	0.11771919068056406	192.0	0.0	3802.764892578125	59073.0	1252.0	0.7630434782608696	0.3595959595959596	-579.0	-483.0	-0.5548902195608784	125.0	-3.431872060425506	1.8323637480025106	-73.0	-1.197620442893844	180.0	
1.4735153434155677	2036.0	9.962218449987462	1249.0	1951.0	0.4155621572111386	-2048.0	1.25567136725935	9.496014714898834	-15488.0	0.19619865113427343	320.0	0.0	3822.296142578125	59713.0	1244.0	0.7456521739130435	0.36767676767676766	-575.0	-468.0	-0.5848303393213574	69.0	-6.114266129818519	1.3253197692500844	-29.0	-0.3190854755839441	355.0	
1.412917872535962	2035.0	10.01197209212026	1245.0	1956.0	0.4275019116947549	-1984.0	1.2164316370324952	9.574494175352545	-15616.0	0.19619865113427343	320.0	0.0	3841.827392578125	60353.0	1252.0	0.7630434782608696	0.37777777777777777	-570.0	-485.0	-0.5508982035928145	71.0	-5.699860069584398	1.357663852488316	-33.0	-0.3536477871368557	328.0	
1.3897459733254143	2037.0	10.110463369549427	1237.0	1958.0	0.40415871993477237	-2176.0	1.3341508277130594	9.692213366033108	-15808.0	0.19619865113427343	320.0	0.0	3861.358642578125	60993.0	1249.0	0.7565217391304347	0.36767676767676766	-575.0	-482.0	-0.5568862275449102	123.0	-4.185189868963526	1.6736828849649708	-59.0	-1.1596690138578933	229.0	
1.3775566668619843	2038.0	10.098757776562788	1238.0	1959.0	0.3918715781691874	-2048.0	1.25567136725935	9.731453096259962	-15872.0	0.11771919068056406	192.0	0.0	3880.889892578125	61633.0	1246.0	0.75	0.3939393939393939	-562.0	-472.0	-0.5768463073852296	127.0	-4.032553381390305	1.6505003417577944	-58.0	-1.2220318806347663	219.0	
1.462541385786683	2041.0	10.024608075039762	1244.0	1952.0	0.35583535002995115	-2048.0	1.25567136725935	9.613733905579398	-15680.0	0.15695892090741875	256.0	0.0	3900.421142578125	62273.0	1246.0	0.75	0.39191919191919194	-563.0	-483.0	-0.5548902195608784	51.0	-5.997390115348627	1.9958898007145676	-75.0	-0.046489977173509944	348.0	
1.6205391133407723	2037.0	10.020453496437202	1244.0	1939.0	0.4055665526038037	-2560.0	1.5695892090741874	9.613733905579398	-15680.0	0.27467811158798283	448.0	0.0	3919.952392578125	62913.0	1247.0	0.7521739130434782	0.37575757575757573	-571.0	-466.0	-0.5888223552894213	-54.0	-7.827453412798397	1.564631255532718	-42.0	1.5687688307059309	468.0	
1.6324827595018234	2034.0	10.031682219425107	1243.0	1938.0	0.44194285460854627	-2432.0	1.491109748620478	9.613733905579398	-15680.0	0.19619865113427343	320.0	0.0	3939.483642578125	63553.0	1243.0	0.7434782608695653	0.3656565656565657	-576.0	-465.0	-0.5908183632734532	-70.0	-8.182214193478972	1.1448061568682513	-13.0	1.8156624461172992	491.0	
1.6204119656304665	2034.0	10.044118684119589	1242.0	1939.0	0.44194651131677753	-2624.0	1.6088289393010422	9.574494175352545	-15616.0	0.23543838136112813	384.0	0.0	3959.014892578125	64193.0	1249.0	0.7565217391304347	0.39595959595959596	-561.0	-485.0	-0.5508982035928145	-2.0	-7.93679906153938	0.6293639500454978	23.0	0.7789877624785116	474.0	
1.644193698037845	2035.0	9.970723204369014	1248.0	1937.0	0.42940218107226125	-2496.0	1.5303494788473329	9.574494175352545	-15616.0	0.19619865113427343	320.0	0.0	3978.546142578125	64833.0	1247.0	0.7521739130434782	0.3878787878787879	-565.0	-470.0	-0.5808383233532934	54.0	-9.546157557968312	0.16075108878842703	64.0	-0.05662967917316857	578.0	
1.8274255320180044	2034.0	10.015552479417062	1244.0	1922.0	0.4437309849336276	-2752.0	1.6873083997547516	9.692213366033108	-15808.0	0.19619865113427343	320.0	0.0	3998.077392578125	65473.0	1243.0	0.7434782608695653	0.3939393939393939	-562.0	-463.0	-0.594810379241517	93.0	-10.99122012056678	-1.0192941472002313	151.0	-0.6353349470833056	671.0	
1.768172716462808	2041.0	10.103784340565536	1237.0	1927.0	0.3596834259919701	-2816.0	1.7265481299816063	9.613733905579398	-15680.0	0.15695892090741875	256.0	0.0	4017.608642578125	577.0	1248.0	0.7543478260869565	0.402020202020202	-558.0	-476.0	-0.5688622754491018	116.0	-7.272182218111105	-1.713921902217662	181.0	-1.0223352120394213	428.0	
1.5614177630549984	2049.0	10.061116547221538	1241.0	1944.0	0.26080365635577735	-2368.0	1.4518700183936235	9.770692826486817	-15936.0	0.03923973022685469	64.0	0.0	4037.139892578125	1217.0	1244.0	0.7456521739130435	0.4	-559.0	-483.0	-0.5548902195608784	196.0	-2.782027146868124	-1.1681722912564605	127.0	-2.2839668007746647	135.0	
1.6589473262193462	2048.0	10.071098611728514	1240.0	1936.0	0.2739269654035749	-2496.0	1.5303494788473329	9.692213366033108	-15808.0	0.07847946045370938	128.0	0.0	4056.671142578125	1857.0	1243.0	0.7434782608695653	0.4121212121212121	-553.0	-476.0	-0.5688622754491018	116.0	-4.031733819647713	-1.5046745020550618	152.0	-1.0547396960240554	217.0	
1.6456611835134438	2044.0	10.009439858384058	1245.0	1937.0	0.32137028752740865	-2432.0	1.491109748620478	9.574494175352545	-15616.0	0.07847946045370938	128.0	0.0	4076.202392578125	2497.0	1237.0	0.7304347826086957	0.40404040404040403	-557.0	-471.0	-0.5788423153692616	27.0	-5.354265700320107	-1.586710799837286	160.0	0.312097790083049	304.0	
1.5953265947102844	2044.0	9.851951529377828	1258.0	1941.0	0.3192920583493148	-2304.0	1.4126302881667687	9.339055793991415	-15232.0	0.11771919068056406	192.0	0.0	4095.733642578125	3137.0	1242.0	0.741304347826087	0.4	-559.0	-462.0	-0.596806387225549	-3.0	-4.640342847066334	-1.2498531797946906	133.0	0.7612323258090665	258.0	
1.656275285806993	2040.0	9.898527682970148	1254.0	1936.0	0.36856007788054235	-2432.0	1.491109748620478	9.496014714898834	-15488.0	0.07847946045370938	128.0	0.0	4115.264892578125	3777.0	1242.0	0.741304347826087	0.4161616161616162	-551.0	-473.0	-0.5748502994011977	5.0	-4.683476180259539	-0.8371865784529521	106.0	0.6399906553387171	261.0	
1.693097500617895	2043.0	9.886314086565294	1255.0	1933.0	0.3326615857513499	-2496.0	1.5303494788473329	9.574494175352545	-15616.0	0.07847946045370938	128.0	0.0	4134.796142578125	4417.0	1247.0	0.7521739130434782	0.41818181818181815	-550.0	-480.0	-0.5608782435129741	149.0	-3.687150084572167	-0.3091811845388688	72.0	-1.5600866740592214	195.0	
1.570581650109414	2044.0	9.815873227065572	1261.0	1943.0	0.3186838258801835	-2368.0	1.4518700183936235	9.45677498467198	-15424.0	0.11771919068056406	192.0	0.0	4154.327392578125	5057.0	1241.0	0.7391304347826088	0.397979797979798	-560.0	-471.0	-0.5788423153692616	166.0	-4.622639682698123	0.02114366053203265	55.0	-1.8092869111578096	256.0	
1.7045778903084448	2049.0	9.74121552212433	1267.0	1932.0	0.2590362473773397	-2496.0	1.5303494788473329	9.37829552421827	-15296.0	0.07847946045370938	128.0	0.0	4173.858642578125	5697.0	1242.0	0.741304347826087	0.41414141414141414	-552.0	-472.0	-0.5768463073852296	180.0	-6.966746836341115	0.6425857411355227	25.0	-1.998773596275372	409.0	
1.973867532880635	2045.0	9.893318180756811	1254.0	1910.0	0.31144294147372376	-3136.0	1.9227467811158798	9.417535254445125	-15360.0	0.07847946045370938	128.0	0.0	4193.389892578125	6337.0	1243.0	0.7434782608695653	0.4262626262626263	-546.0	-484.0	-0.5528942115768464	270.0	-7.01399657415714	0.35579958839164827	48.0	-3.367122391672878	411.0	
1.9146039234276477	2047.0	10.04130909860967	1242.0	1915.0	0.28823382901555383	-2944.0	1.8050275904353157	9.652973635806253	-15744.0	-0.03923973022685469	-64.0	0.0	4212.921142578125	6977.0	1244.0	0.7456521739130435	0.4080808080808081	-555.0	-481.0	-0.5588822355289422	335.0	-4.713137459432607	-0.31951911843809755	85.0	-4.378724138713659	260.0	
1.7211135249301583	2049.0	10.179818172018896	1231.0	1931.0	0.26358763022250253	-2560.0	1.5695892090741874	9.731453096259962	-15872.0	0.03923973022685469	64.0	0.0	4232.452392578125	7617.0	1239.0	0.7347826086956522	0.42828282828282827	-545.0	-477.0	-0.56686626746507	269.0	-4.720793083309424	-0.5540409269966612	98.0	-3.3748453011060695	261.0	
1.6351612762528513	2045.0	10.168397714160843	1232.0	1938.0	0.3108066742414862	-2432.0	1.491109748620478	9.770692826486817	-15936.0	0.03923973022685469	64.0	0.0	4251.983642578125	8257.0	1244.0	0.7456521739130435	0.4303030303030303	-544.0	-475.0	-0.5708582834331338	150.0	-5.0835609185276915	-0.2713526404690565	76.0	-1.5613316911949513	286.0	
1.6105413205827288	2047.0	10.120606035507075	1236.0	1940.0	0.2859861723560787	-2368.0	1.4518700183936235	9.731453096259962	-15872.0	0.11771919068056406	192.0	0.0	4271.514892578125	8897.0	1241.0	0.7391304347826088	0.41818181818181815	-550.0	-464.0	-0.5928143712574852	21.0	-6.055652771799548	0.3175260149912306	36.0	0.4103664136495544	351.0	
1.744886622219304	2046.0	10.154229937631827	1233.0	1929.0	0.2997140571647763	-2560.0	1.5695892090741874	9.731453096259962	-15872.0	0.03923973022685469	64.0	0.0	4291.046142578125	9537.0	1239.0	0.7347826086956522	0.4262626262626263	-546.0	-470.0	-0.5808383233532934	-38.0	-6.608821033959709	0.8898481323446904	-2.0	1.3132364993129813	388.0	
1.7433135768289811	2044.0	10.019660357890402	1244.0	1929.0	0.3224490164556275	-2560.0	1.5695892090741874	9.613733905579398	-15680.0	0.07847946045370938	128.0	0.0	4310.577392578125	10177.0	1243.0	0.7434782608695653	0.4222222222222222	-548.0	-483.0	-0.5548902195608784	-45.0	-5.648667347627636	1.6433505867898246	-57.0	1.4100988407766566	326.0	
1.7424710360071205	2045.0	9.922376822167813	1252.0	1929.0	0.30941956291909867	-2560.0	1.5695892090741874	9.496014714898834	-15488.0	0.07847946045370938	128.0	0.0	4330.108642578125	10817.0	1237.0	0.7304347826086957	0.4161616161616162	-551.0	-464.0	-0.5928143712574852	-80.0	-5.976181051041359	2.1246128848220507	-89.0	1.945693369445775	348.0	
1.9369224879185434	2041.0	9.905293342162297	1253.0	1913.0	0.35938601372249507	-2880.0	1.765787860208461	9.45677498467198	-15424.0	0.03923973022685469	64.0	0.0	4349.639892578125	11457.0	1241.0	0.7391304347826088	0.43232323232323233	-543.0	-484.0	-0.5528942115768464	-71.0	-6.405581428129504	2.2949069699716214	-98.0	1.81310524393909	376.0	
1.9856905076700548	2042.0	9.89235665740447	1254.0	1909.0	0.3476961343013476	-2944.0	1.8050275904353157	9.53525444512569	-15552.0	0.11771919068056406	192.0	0.0	4369.171142578125	12097.0	1242.0	0.741304347826087	0.43434343434343436	-542.0	-482.0	-0.5568862275449102	4.0	-5.065520275089251	2.3821986238790087	-107.0	0.6590202217622994	288.0	
1.961421772217035	2039.0	9.94089477447582	1250.0	1911.0	0.38408340643078387	-3008.0	1.8442673206621703	9.53525444512569	-15552.0	0.19619865113427343	320.0	0.0	4388.702392578125	12737.0	1241.0	0.7391304347826088	0.43434343434343436	-542.0	-480.0	-0.5608782435129741	101.0	-3.6557289496670946	2.1032084945037184	-91.0	-0.8303628625945838	195.0	
1.8893698170015776	2044.0	9.992325244959062	1246.0	1917.0	0.32363622772804007	-2944.0	1.8050275904353157	9.496014714898834	-15488.0	0.11771919068056406	192.0	0.0	4408.233642578125	13377.0	1237.0	0.7304347826086957	0.4222222222222222	-548.0	-474.0	-0.5728542914171657	191.0	-2.702928680626568	2.0616614399932724	-89.0	-2.2087121580606546	132.0	
1.950574962298456	2047.0	9.979619211845733	1247.0	1912.0	0.28797664053662253	-3072.0	1.883507050889025	9.613733905579398	-15680.0	0.03923973022685469	64.0	0.0	4427.764892578125	14017.0	1238.0	0.7326086956521739	0.4303030303030303	-544.0	-470.0	-0.5808383233532934	230.0	-3.1343089092900414	2.490224333352843	-114.0	-2.7975542493101417	160.0	
1.9255821986156487	2044.0	9.955015850875617	1249.0	1914.0	0.3236252576033463	-2944.0	1.8050275904353157	9.613733905579398	-15680.0	0.03923973022685469	64.0	0.0	4447.296142578125	14657.0	1235.0	0.7260869565217392	0.43434343434343436	-542.0	-456.0	-0.6087824351297406	196.0	-2.688171346282732	2.0786686583661242	-90.0	-2.284905358780519	131.0	
1.9263040680658783	2043.0	10.040109140257961	1242.0	1914.0	0.3365316019627564	-2880.0	1.765787860208461	9.574494175352545	-15616.0	0.11771919068056406	192.0	0.0	4466.827392578125	15297.0	1236.0	0.7282608695652174	0.44242424242424244	-538.0	-471.0	-0.5788423153692616	163.0	-2.9300969545622015	1.9404981013418656	-81.0	-1.7805849620133136	147.0	
1.9275258932390982	2050.0	10.07834892427427	1239.0	1914.0	0.2525888686570613	-2944.0	1.8050275904353157	9.613733905579398	-15680.0	0.07847946045370938	128.0	0.0	4486.358642578125	15937.0	1239.0	0.7347826086956522	0.43636363636363634	-541.0	-481.0	-0.5588822355289422	163.0	-2.9534304426037514	2.676754795767728	-130.0	-1.780351627132898	149.0	
2.0371305678339193	2051.0	10.05199090140501	1241.0	1905.0	0.24137314240323263	-3072.0	1.883507050889025	9.731453096259962	-15872.0	0.0	0.0	0.0	4505.889892578125	16577.0	1237.0	0.7304347826086957	0.4383838383838384	-540.0	-455.0	-0.6107784431137725	134.0	-2.439483715245754	2.9831616079473036	-154.0	-1.344426455623208	116.0	
1.9641110828658541	2055.0	10.017851212507173	1244.0	1911.0	0.19210877958023626	-2944.0	1.8050275904353157	9.613733905579398	-15680.0	-0.03923973022685469	-64.0	0.0	4525.421142578125	17217.0	1235.0	0.7260869565217392	0.45252525252525255	-533.0	-484.0	-0.5528942115768464	67.0	-1.9103487460118869	2.6956783053410986	-140.0	-0.33070639847144007	82.0	
2.085286595609041	2048.0	10.025910230309467	1243.0	1901.0	0.2777384742832814	-3200.0	1.9619865113427344	9.692213366033108	-15808.0	0.07847946045370938	128.0	0.0	4544.952392578125	17857.0	1241.0	0.7391304347826088	0.4444444444444444	-537.0	-485.0	-0.5508982035928145	-30.0	-3.7908858604663296	1.942964575516095	-85.0	1.1633841437757662	205.0	
2.1213718295128063	2045.0	10.012266023908406	1244.0	1898.0	0.31410746287156144	-3328.0	2.040465971796444	9.574494175352545	-15616.0	0.11771919068056406	192.0	0.0	4564.483642578125	18497.0	1236.0	0.7282608695652174	0.44646464646464645	-536.0	-466.0	-0.5888223552894213	-24.0	-3.5807885511466684	1.557179399198367	-60.0	1.0700284178308583	191.0	
2.0356652411378784	2043.0	10.00132243604909	1245.0	1905.0	0.33723734665138766	-3072.0	1.883507050889025	9.692213366033108	-15808.0	0.11771919068056406	192.0	0.0	4584.014892578125	19137.0	1237.0	0.7304347826086957	0.4262626262626263	-546.0	-470.0	-0.5808383233532934	20.0	-2.2492946614284537	1.8510955752655032	-84.0	0.3875119580211287	104.0	
2.1090661692368617	2048.0	9.96446656189977	1248.0	1899.0	0.27736183333546266	-3136.0	1.9227467811158798	9.613733905579398	-15680.0	0.07847946045370938	128.0	0.0	4603.546142578125	19777.0	1240.0	0.7369565217391304	0.43636363636363634	-541.0	-486.0	-0.5489021956087825	32.0	-2.3475614484490137	1.4154602114264931	-54.0	0.2059851201879122	110.0	
2.060539492228613	2047.0	10.001783739338086	1245.0	1903.0	0.2892979311108476	-3200.0	1.9619865113427344	9.652973635806253	-15744.0	0.07847946045370938	128.0	0.0	4623.077392578125	20417.0	1238.0	0.7326086956521739	0.44646464646464645	-536.0	-463.0	-0.594810379241517	49.0	-1.6921990723960447	1.2152716541470152	-43.0	-0.05912363665246541	67.0	
2.073222278076359	2051.0	10.00249126098132	1245.0	1902.0	0.24123906310142013	-3200.0	1.9619865113427344	9.613733905579398	-15680.0	0.03923973022685469	64.0	0.0	4642.608642578125	21057.0	1235.0	0.7260869565217392	0.45252525252525255	-533.0	-476.0	-0.5688622754491018	104.0	-0.9330741956086446	1.2258816462644913	-45.0	-0.9032167865610239	17.0	
2.000562648443629	2054.0	10.016874122445092	1244.0	1908.0	0.20451171710647753	-3008.0	1.8442673206621703	9.613733905579398	-15680.0	-0.03923973022685469	-64.0	0.0	4662.139892578125	21697.0	1235.0	0.7260869565217392	0.43636363636363634	-541.0	-458.0	-0.6047904191616768	117.0	-0.1387957687331611	1.0435760792679725	-36.0	-1.108878202008486	-35.0	
2.084937534171497	2054.0	9.917628623243473	1252.0	1901.0	0.20436301097174003	-3200.0	1.9619865113427344	9.574494175352545	-15616.0	0.0	0.0	0.0	4681.671142578125	22337.0	1240.0	0.7369565217391304	0.44242424242424244	-538.0	-462.0	-0.596806387225549	38.0	-1.0616280373926812	1.1796843986497816	-44.0	0.10187103322563784	26.0	
2.0973811360555388	2059.0	9.882003840865341	1255.0	1900.0	0.14389023531137746	-3328.0	2.040465971796444	9.53525444512569	-15552.0	-0.15695892090741875	-256.0	0.0	4701.202392578125	22977.0	1235.0	0.7260869565217392	0.45656565656565656	-531.0	-480.0	-0.5608782435129741	-18.0	-1.3153853218827694	1.0433374346006452	-36.0	0.9561196326865083	43.0	
2.084094993349636	2055.0	9.820345087520886	1260.0	1901.0	0.1913335574352112	-3200.0	1.9619865113427344	9.45677498467198	-15424.0	-0.15695892090741875	-256.0	0.0	4720.733642578125	23617.0	1236.0	0.7282608695652174	0.4505050505050505	-534.0	-482.0	-0.5568862275449102	-58.0	-1.511926595770851	0.7328320315402808	-16.0	1.566450064436796	56.0	
2.0219287946388245	2054.0	9.711625527230504	1269.0	1906.0	0.20167289261628363	-3008.0	1.8442673206621703	9.299816063764561	-15168.0	0.0	0.0	0.0	4740.264892578125	24257.0	1232.0	0.7195652173913043	0.45454545454545453	-532.0	-469.0	-0.5828343313373254	-96.0	-1.7240966385353385	0.42463112083173693	4.0	2.1465185329252776	70.0	
2.0940992624463544	2048.0	9.684337114428384	1271.0	1900.0	0.2744108697928437	-3200.0	1.9619865113427344	9.339055793991415	-15232.0	0.03923973022685469	64.0	0.0	4759.796142578125	24897.0	1235.0	0.7260869565217392	0.45454545454545453	-532.0	-479.0	-0.5628742514970061	-133.0	-3.63447364264719	0.6700163883476332	-5.0	2.728359945551947	195.0	
2.1180038250049225	2050.0	9.611180069677177	1277.0	1898.0	0.24982195942874863	-3200.0	1.9619865113427344	9.221336603310851	-15040.0	-0.03923973022685469	-64.0	0.0	4779.327392578125	25537.0	1240.0	0.7369565217391304	0.45656565656565656	-531.0	-485.0	-0.5508982035928145	-124.0	-3.679250925236051	0.9334807361050614	-22.0	2.5919255891002697	198.0	
2.1298311173534588	2049.0	9.586314923643082	1279.0	1897.0	0.2617397736629774	-3328.0	2.040465971796444	9.221336603310851	-15040.0	0.03923973022685469	64.0	0.0	4798.858642578125	26177.0	1235.0	0.7260869565217392	0.45454545454545453	-532.0	-470.0	-0.5808383233532934	-88.0	-3.8565055909513566	0.6378837190644868	0.0	2.0461696186471565	209.0	
2.1426259394546032	2049.0	9.647019936990068	1274.0	1896.0	0.2624747720174587	-3328.0	2.040465971796444	9.339055793991415	-15232.0	0.03923973022685469	64.0	0.0	4818.389892578125	26817.0	1236.0	0.7282608695652174	0.4626262626262626	-528.0	-485.0	-0.5508982035928145	-42.0	-4.203476599231532	0.40516012090091896	19.0	1.3500195568668403	231.0	
2.167373042835032	2050.0	9.67114642796145	1272.0	1894.0	0.25091531518989246	-3328.0	2.040465971796444	9.299816063764561	-15168.0	0.0	0.0	0.0	4837.921142578125	27457.0	1239.0	0.7347826086956522	0.4505050505050505	-534.0	-483.0	-0.5548902195608784	31.0	-3.734934968379246	0.7917728634845809	-6.0	0.2350679808624997	200.0	
2.094823290676142	2048.0	9.757478592469852	1265.0	1900.0	0.27514952485555627	-3200.0	1.9619865113427344	9.417535254445125	-15360.0	0.03923973022685469	64.0	0.0	4857.452392578125	28097.0	1238.0	0.7326086956521739	0.45656565656565656	-531.0	-468.0	-0.5848303393213574	43.0	-4.026740146553659	0.9543154178467905	-15.0	0.05547652694082176	219.0	
2.20587386295098	2048.0	9.889355337024401	1254.0	1891.0	0.27757879802385016	-3392.0	2.0797057020232983	9.53525444512569	-15552.0	0.03923973022685469	64.0	0.0	4876.983642578125	28737.0	1238.0	0.7326086956521739	0.4686868686868687	-525.0	-474.0	-0.5728542914171657	52.0	-4.659116679696116	0.778916553502719	0.0	-0.07508183700532023	260.0	
2.2298904617629463	2046.0	9.876195783976947	1255.0	1889.0	0.3017837540236639	-3392.0	2.0797057020232983	9.417535254445125	-15360.0	0.07847946045370938	128.0	0.0	4896.514892578125	29377.0	1240.0	0.7369565217391304	0.4505050505050505	-534.0	-470.0	-0.5808383233532934	49.0	-5.145267992741567	1.2307176947811744	-28.0	-0.024592947449010184	292.0	
3.251661357096942	2037.0	9.731465063824242	1265.0	1805.0	0.41898789071523584	-5056.0	3.0999386879215205	9.221336603310851	-15040.0	0.19619865113427343	320.0	0.0	4916.046142578125	30017.0	1236.0	0.7282608695652174	0.4666666666666667	-526.0	-476.0	-0.5688622754491018	-7.0	-3.8912068710875363	1.4691866896044377	-52.0	0.8145774679504191	211.0	
2.094810337998793	2042.0	9.829189460515112	1259.0	1900.0	0.3481556606357414	-3200.0	1.9619865113427344	9.417535254445125	-15360.0	0.19619865113427343	320.0	0.0	4935.577392578125	30657.0	1238.0	0.7326086956521739	0.46060606060606063	-529.0	-486.0	-0.5489021956087825	-14.0	15.527073990886914	3.246849069836257	-261.0	0.7268585376576708	-1053.0	
1.950574962298456	2047.0	9.979619211845733	1247.0	1912.0	0.28797664053662253	-3008.0	1.8442673206621703	9.574494175352545	-15616.0	0.0	0.0	0.0	4955.108642578125	31297.0	1237.0	0.7304347826086957	0.4404040404040404	-539.0	-470.0	-0.5808383233532934	124.0	21.981602716139097	1.5922129208434481	-175.0	-1.4365460651842046	-1476.0	
1.866322906721778	2048.0	10.079103146046721	1239.0	1919.0	0.2760807665517813	-2752.0	1.6873083997547516	9.770692826486817	-15936.0	0.03923973022685469	64.0	0.0	4974.639892578125	31937.0	1239.0	0.7347826086956522	0.4222222222222222	-548.0	-467.0	-0.5868263473053893	162.0	14.885634351833044	0.10021468747270734	-41.0	-1.9435331496019808	-1015.0	
1.7440483989565598	2049.0	10.033042779227486	1243.0	1929.0	0.2623492250348524	-2624.0	1.6088289393010422	9.613733905579398	-15680.0	0.0	0.0	0.0	4994.171142578125	32577.0	1241.0	0.7391304347826088	0.4383838383838384	-540.0	-482.0	-0.5568862275449102	114.0	8.963722033266041	-0.40137945720700685	18.0	-1.1542760036026225	-629.0	
1.671015961311145	2047.0	10.070613958374908	1240.0	1935.0	0.2860909979920412	-2560.0	1.5695892090741874	9.770692826486817	-15936.0	0.07847946045370938	128.0	0.0	5013.702392578125	33217.0	1236.0	0.7282608695652174	0.4262626262626263	-546.0	-463.0	-0.594810379241517	113.0	4.284738965027194	-0.2112631344097279	27.0	-1.0922770474449486	-324.0	
1.6840521261555523	2047.0	10.155699464402383	1233.0	1934.0	0.28707221470076	-2432.0	1.491109748620478	9.849172286940528	-16064.0	0.07847946045370938	128.0	0.0	5033.233642578125	33857.0	1239.0	0.7347826086956522	0.4303030303030303	-544.0	-466.0	-0.5888223552894213	83.0	0.37938274435249797	0.1622387379638963	19.0	-0.5969497209796468	-69.0	
1.781956656112143	2052.0	10.130541399884834	1235.0	1926.0	0.22755871549972873	-2560.0	1.5695892090741874	9.770692826486817	-15936.0	0.0	0.0	0.0	5052.764892578125	34497.0	1242.0	0.741304347826087	0.4262626262626263	-546.0	-482.0	-0.5568862275449102	88.0	-1.288284393665431	0.7611103158050312	-13.0	-0.6563186769758932	40.0	
2.1108870337091217	2053.0	10.087561200299055	1238.0	1899.0	0.21837002450875642	-3136.0	1.9227467811158798	9.731453096259962	-15872.0	-0.03923973022685469	-64.0	0.0	5072.296142578125	35137.0	1240.0	0.7369565217391304	0.4222222222222222	-548.0	-487.0	-0.5469061876247505	59.0	3.55563595610636	1.260903587552762	-70.0	-0.26369324169034114	-275.0	
1.963854628665684	2048.0	10.077133399212821	1239.0	1911.0	0.27703638630288135	-3072.0	1.883507050889025	9.613733905579398	-15680.0	-0.03923973022685469	-64.0	0.0	5091.827392578125	35777.0	1238.0	0.7326086956521739	0.4161616161616162	-551.0	-473.0	-0.5748502994011977	119.0	14.082136557649072	1.9740563991499114	-164.0	-1.2815057762228788	-961.0	
1.6361503938010415	2056.0	10.134449760133155	1235.0	1938.0	0.17794696539476362	-2496.0	1.5303494788473329	9.731453096259962	-15872.0	0.03923973022685469	64.0	0.0	5111.358642578125	36417.0	1238.0	0.7326086956521739	0.4202020202020202	-549.0	-458.0	-0.6047904191616768	146.0	16.432696041561044	2.6214860132336204	-217.0	-1.715657758894698	-1114.0	
1.4407249357983358	2056.0	10.101818514780222	1238.0	1954.0	0.17566639836120723	-2176.0	1.3341508277130594	9.692213366033108	-15808.0	0.0	0.0	0.0	5130.889892578125	37057.0	1238.0	0.7326086956521739	0.4121212121212121	-553.0	-456.0	-0.6087824351297406	114.0	8.773572380194524	2.070625573339424	-146.0	-1.1523745070719074	-615.0	
1.526196657768676	2061.0	10.05252617593642	1242.0	1947.0	0.11578722833705093	-2112.0	1.2949110974862048	9.692213366033108	-15808.0	-0.11771919068056406	-192.0	0.0	5150.421142578125	37697.0	1241.0	0.7391304347826088	0.3939393939393939	-562.0	-446.0	-0.62874251497006	29.0	-4.361961550495499	0.9841222210431086	-16.0	0.2717564976342326	241.0	
2.0613993032869393	2054.0	10.00345278433366	1245.0	1903.0	0.20498587027379633	-3072.0	1.883507050889025	9.613733905579398	-15680.0	0.0	0.0	0.0	5169.952392578125	38337.0	1238.0	0.7326086956521739	0.41818181818181815	-550.0	-476.0	-0.5688622754491018	-24.0	-7.548516937215013	0.753873025003656	12.0	1.1097057016915417	449.0	
1.9025482410131982	2054.0	9.970082883918014	1248.0	1916.0	0.20306366064690246	-2880.0	1.765787860208461	9.574494175352545	-15616.0	-0.03923973022685469	-64.0	0.0	5189.483642578125	38977.0	1242.0	0.741304347826087	0.4121212121212121	-553.0	-469.0	-0.5828343313373254	61.0	-1.4088388807587355	0.5731650076159059	-1.0	-0.2444667442722606	48.0	
1.708340290624596	2059.0	9.999595045263142	1246.0	1932.0	0.14117573890104604	-2560.0	1.5695892090741874	9.613733905579398	-15680.0	-0.07847946045370938	-128.0	0.0	5209.014892578125	39617.0	1236.0	0.7282608695652174	0.4262626262626263	-546.0	-471.0	-0.5788423153692616	82.0	-1.4577637537201131	0.6043383479213833	-2.0	-0.5633691305236355	51.0	
1.8536595498900557	2053.0	9.970829322335597	1248.0	1920.0	0.2146304308909312	-2752.0	1.6873083997547516	9.692213366033108	-15808.0	0.03923973022685469	64.0	0.0	5228.546142578125	40257.0	1240.0	0.7369565217391304	0.43232323232323233	-543.0	-483.0	-0.5548902195608784	58.0	-3.852524782955394	0.18669781267109953	36.0	-0.17440250882443847	207.0	
1.8301342716828473	2059.0	9.984942615380522	1247.0	1922.0	0.14224715441280233	-2816.0	1.7265481299816063	9.652973635806253	-15744.0	-0.07847946045370938	-128.0	0.0	5248.077392578125	40897.0	1242.0	0.741304347826087	0.42828282828282827	-545.0	-469.0	-0.5828343313373254	80.0	-2.9012459289510257	0.4936929248056689	12.0	-0.5185160578207559	145.0	
1.769907450036368	2062.0	10.023459751170547	1244.0	1927.0	0.1058854792409848	-2752.0	1.6873083997547516	9.692213366033108	-15808.0	-0.11771919068056406	-192.0	0.0	5267.608642578125	41537.0	1243.0	0.7434782608695653	0.4303030303030303	-544.0	-483.0	-0.5548902195608784	55.0	-2.2982577446069032	0.5564558516850402	4.0	-0.14431780278206788	106.0	
1.7451603466559396	2061.0	9.999333260199165	1246.0	1929.0	0.11744493606855104	-2496.0	1.5303494788473329	9.613733905579398	-15680.0	-0.11771919068056406	-192.0	0.0	5287.139892578125	42177.0	1243.0	0.7434782608695653	0.42424242424242425	-547.0	-485.0	-0.5508982035928145	23.0	-2.613718446568308	0.7538467846588262	-9.0	0.3455288194466717	127.0	
1.7446690260511817	2057.0	9.998379520201695	1246.0	1929.0	0.16562325654686608	-2560.0	1.5695892090741874	9.574494175352545	-15616.0	-0.07847946045370938	-128.0	0.0	5306.671142578125	42817.0	1240.0	0.7369565217391304	0.42828282828282827	-545.0	-463.0	-0.594810379241517	-11.0	-3.495307204316143	1.0943710265142064	-29.0	0.8714549731838459	185.0	
1.805143666779598	2057.0	9.948387443069528	1250.0	1924.0	0.16572808218282858	-2816.0	1.7265481299816063	9.613733905579398	-15680.0	-0.03923973022685469	-64.0	0.0	5326.202392578125	43457.0	1236.0	0.7282608695652174	0.42424242424242425	-547.0	-453.0	-0.6147704590818364	-26.0	-3.9183598759561757	1.5344801221227078	-57.0	1.1038223820295239	213.0	
1.8411103880912902	2055.0	9.910601178987347	1253.0	1921.0	0.18980627229729236	-2688.0	1.648068669527897	9.496014714898834	-15488.0	-0.07847946045370938	-128.0	0.0	5345.733642578125	44097.0	1240.0	0.7369565217391304	0.42424242424242425	-547.0	-486.0	-0.5489021956087825	-32.0	-3.1455418338506416	1.986786923714376	-91.0	1.1873489544601794	163.0	
1.8892685746459703	2053.0	9.872568696550927	1256.0	1917.0	0.21400391488064363	-2880.0	1.765787860208461	9.652973635806253	-15744.0	0.03923973022685469	64.0	0.0	5365.264892578125	44737.0	1238.0	0.7326086956521739	0.42424242424242425	-547.0	-468.0	-0.5848303393213574	-46.0	-3.6305377580478697	2.386838123475492	-116.0	1.4051266703561442	195.0	
1.9633892134156246	2056.0	9.932757923124829	1251.0	1911.0	0.17920243522082618	-2944.0	1.8050275904353157	9.613733905579398	-15680.0	-0.07847946045370938	-128.0	0.0	5384.796142578125	45377.0	1236.0	0.7282608695652174	0.4404040404040404	-539.0	-472.0	-0.5768463073852296	-6.0	-3.3490154408280617	1.986781169758049	-89.0	0.7939464281725392	176.0	
1.9271854669197863	2060.0	9.922260071844768	1252.0	1914.0	0.13054264815872985	-2880.0	1.765787860208461	9.613733905579398	-15680.0	-0.07847946045370938	-128.0	0.0	5404.327392578125	46017.0	1241.0	0.7391304347826088	0.41818181818181815	-550.0	-476.0	-0.5688622754491018	43.0	-2.7601189530556978	1.7657088076668883	-75.0	0.042810315005842155	137.0	
1.9143884860390838	2059.0	9.873506869838659	1256.0	1915.0	0.1419753391009461	-3008.0	1.8442673206621703	9.53525444512569	-15552.0	-0.03923973022685469	-64.0	0.0	5423.858642578125	46657.0	1237.0	0.7304347826086957	0.42828282828282827	-545.0	-462.0	-0.596806387225549	-4.0	-3.6428072374706155	1.7985507563686305	-75.0	0.7664660951883945	195.0	
1.9513184195442674	2056.0	9.94519438781931	1250.0	1912.0	0.17920609192905745	-3072.0	1.883507050889025	9.613733905579398	-15680.0	-0.11771919068056406	-192.0	0.0	5443.389892578125	47297.0	1238.0	0.7326086956521739	0.44646464646464645	-536.0	-482.0	-0.5568862275449102	-45.0	-3.762667496043276	1.4671074858751756	-54.0	1.3912388422608133	203.0	
1.9128046467509698	2052.0	9.798696346801618	1262.0	1915.0	0.22554874487528487	-2880.0	1.765787860208461	9.417535254445125	-15360.0	0.03923973022685469	64.0	0.0	5462.921142578125	47937.0	1236.0	0.7282608695652174	0.4303030303030303	-544.0	-477.0	-0.56686626746507	-2.0	-3.553473997534593	1.553669832937091	-59.0	0.7351545118384638	189.0	
1.9620553519890063	2053.0	9.834520647404771	1259.0	1911.0	0.21435130216261242	-2880.0	1.765787860208461	9.45677498467198	-15424.0	-0.03923973022685469	-64.0	0.0	5482.452392578125	48577.0	1235.0	0.7260869565217392	0.43636363636363634	-541.0	-469.0	-0.5828343313373254	58.0	-3.650654062580868	1.9567555565600188	-83.0	-0.17642121602818375	195.0	
1.9502345359791444	2057.0	9.823530359416234	1260.0	1912.0	0.16593042003829112	-2944.0	1.8050275904353157	9.496014714898834	-15488.0	-0.03923973022685469	-64.0	0.0	5501.983642578125	49217.0	1237.0	0.7304347826086957	0.44646464646464645	-536.0	-484.0	-0.5528942115768464	159.0	-2.9741760943132967	2.0760650831256298	-90.0	-1.7193076687146618	150.0	
1.9020785082040221	2060.0	9.849611030511776	1258.0	1916.0	0.1295650881582423	-2880.0	1.765787860208461	9.339055793991415	-15232.0	-0.11771919068056406	-192.0	0.0	5521.514892578125	49857.0	1240.0	0.7369565217391304	0.4303030303030303	-544.0	-477.0	-0.56686626746507	239.0	-2.1087929044488494	2.3493611858463694	-109.0	-2.94469153863612	93.0	
1.8667108261913703	2060.0	9.972252148976933	1248.0	1919.0	0.13043782252276737	-2880.0	1.765787860208461	9.613733905579398	-15680.0	-0.11771919068056406	-192.0	0.0	5541.046142578125	50497.0	1237.0	0.7304347826086957	0.44242424242424244	-538.0	-464.0	-0.5928143712574852	259.0	-2.1099130644429738	2.5415164943397	-121.0	-3.2488628465418823	93.0	
1.9283986569747735	2063.0	10.008307101224583	1245.0	1914.0	0.0952706720398249	-2880.0	1.765787860208461	9.731453096259962	-15872.0	-0.15695892090741875	-256.0	0.0	5560.577392578125	51137.0	1243.0	0.7434782608695653	0.43636363636363634	-541.0	-474.0	-0.5728542914171657	244.0	-2.6583581277523494	2.7204878329421205	-131.0	-3.015241513779511	129.0	
1.9040200440479134	2065.0	9.984895915251304	1247.0	1916.0	0.07069638850865483	-2880.0	1.765787860208461	9.574494175352545	-15616.0	-0.11771919068056406	-192.0	0.0	5580.108642578125	51777.0	1241.0	0.7391304347826088	0.43232323232323233	-543.0	-475.0	-0.5708582834331338	161.0	-3.328623600836821	3.4962542081934016	-183.0	-1.746181444599997	174.0	
2.0381283205003426	2066.0	9.970235702013815	1248.0	1905.0	0.059842676369719905	-2944.0	1.8050275904353157	9.652973635806253	-15744.0	-0.19619865113427343	-320.0	0.0	5599.639892578125	52417.0	1240.0	0.7369565217391304	0.43636363636363634	-541.0	-463.0	-0.594810379241517	75.0	-4.0979636046590375	3.527465888320699	-185.0	-0.43050325368724995	225.0	
2.049229425839533	2064.0	9.88418088927913	1255.0	1904.0	0.08318952483793363	-3136.0	1.9227467811158798	9.53525444512569	-15552.0	-0.15695892090741875	-256.0	0.0	5619.171142578125	53057.0	1239.0	0.7347826086956522	0.4505050505050505	-534.0	-482.0	-0.5568862275449102	-16.0	-4.9286711237729	3.4849444036766077	-182.0	0.9618342397548394	280.0	
2.0721513471885853	2058.0	9.809116364532983	1261.0	1902.0	0.15495725543046865	-3136.0	1.9227467811158798	9.417535254445125	-15360.0	-0.11771919068056406	-192.0	0.0	5638.702392578125	53697.0	1237.0	0.7304347826086957	0.44242424242424244	-538.0	-479.0	-0.5628742514970061	-89.0	-5.563073289767437	3.3947331255532394	-176.0	2.078444421110602	322.0	
2.070808850643734	2051.0	9.75868633417643	1265.0	1902.0	0.23877687955904497	-3136.0	1.9227467811158798	9.417535254445125	-15360.0	0.0	0.0	0.0	5658.233642578125	54337.0	1238.0	0.7326086956521739	0.46060606060606063	-529.0	-474.0	-0.5728542914171657	-53.0	-5.713099516847353	2.752413422976745	-131.0	1.5324161662711353	331.0	
2.082998157107164	2050.0	9.770391927163068	1264.0	1901.0	0.25106402132463	-3200.0	1.9619865113427344	9.37829552421827	-15296.0	0.03923973022685469	64.0	0.0	5677.764892578125	54977.0	1232.0	0.7195652173913043	0.4484848484848485	-535.0	-456.0	-0.6087824351297406	43.0	-4.89995649895545	2.649274184519682	-124.0	0.06420869046483968	277.0	
2.0959201269186143	2053.0	9.807431752827668	1261.0	1900.0	0.21541906096613747	-3072.0	1.883507050889025	9.37829552421827	-15296.0	-0.03923973022685469	-64.0	0.0	5697.296142578125	55617.0	1242.0	0.741304347826087	0.44646464646464645	-536.0	-471.0	-0.5788423153692616	134.0	-4.282318919099933	2.871542878165539	-138.0	-1.3259981035846662	236.0	
2.085428854776255	2058.0	9.918582363240944	1252.0	1901.0	0.15618469049342498	-3136.0	1.9227467811158798	9.53525444512569	-15552.0	-0.19619865113427343	-320.0	0.0	5716.827392578125	56257.0	1233.0	0.7217391304347827	0.4585858585858586	-530.0	-465.0	-0.5908183632734532	190.0	-3.7858663640429784	2.7211331839169546	-128.0	-2.182673655751205	203.0	
2.097749626509107	2062.0	9.882719145863444	1255.0	1900.0	0.10775649495264117	-3200.0	1.9619865113427344	9.496014714898834	-15488.0	-0.03923973022685469	-64.0	0.0	5736.358642578125	56897.0	1237.0	0.7304347826086957	0.45252525252525255	-533.0	-477.0	-0.56686626746507	206.0	-4.046981913095886	2.9439432151608567	-141.0	-2.423408507865239	220.0	
2.170172230957691	2061.0	9.82005216903743	1260.0	1894.0	0.1199022439999512	-3392.0	2.0797057020232983	9.45677498467198	-15424.0	-0.07847946045370938	-128.0	0.0	5755.889892578125	57537.0	1237.0	0.7304347826086957	0.4404040404040404	-539.0	-479.0	-0.5628742514970061	130.0	-5.32465039620273	2.9416556888958483	-138.0	-1.2547382869124974	304.0	
2.169323213797156	2059.0	9.758624067337472	1265.0	1894.0	0.14337585835351493	-3328.0	2.040465971796444	9.417535254445125	-15360.0	-0.07847946045370938	-128.0	0.0	5775.421142578125	58177.0	1238.0	0.7326086956521739	0.45454545454545453	-532.0	-474.0	-0.5728542914171657	88.0	-6.030016538557117	2.365497691680197	-98.0	-0.6089013555269764	350.0	
2.169933046993987	2062.0	9.783719865016064	1263.0	1894.0	0.10748833634901617	-3456.0	2.118945432250153	9.45677498467198	-15424.0	-0.07847946045370938	-128.0	0.0	5794.952392578125	58817.0	1236.0	0.7282608695652174	0.44646464646464645	-536.0	-456.0	-0.6087824351297406	105.0	-5.756580752746158	2.3418162625628223	-97.0	-0.8701908464649339	332.0	
2.072041469714745	2063.0	9.737167061488353	1267.0	1902.0	0.0939956997698623	-3136.0	1.9227467811158798	9.37829552421827	-15296.0	-0.11771919068056406	-192.0	0.0	5814.483642578125	59457.0	1236.0	0.7282608695652174	0.45454545454545453	-532.0	-467.0	-0.5868263473053893	108.0	-6.189749760538806	2.043954838103454	-75.0	-0.9114865328128631	360.0	
2.1822516599472808	2065.0	9.75980845897944	1265.0	1893.0	0.07122783010492986	-3392.0	2.0797057020232983	9.37829552421827	-15296.0	-0.19619865113427343	-320.0	0.0	5834.014892578125	60097.0	1233.0	0.7217391304347827	0.47878787878787876	-520.0	-469.0	-0.5828343313373254	50.0	-7.358790438115325	2.434862484367015	-98.0	-0.01766684847055779	437.0	
2.242717665557464	2061.0	9.757623627210782	1265.0	1888.0	0.12000341292768245	-3520.0	2.158185162477008	9.417535254445125	-15360.0	-0.11771919068056406	-192.0	0.0	5853.546142578125	60737.0	1234.0	0.7239130434782609	0.4767676767676768	-521.0	-482.0	-0.5568862275449102	98.0	-7.900790066835818	2.6816972244160198	-110.0	-0.7422848749970412	472.0	
2.2540557960808014	2057.0	9.71985292983834	1268.0	1887.0	0.16793185834352875	-3456.0	2.118945432250153	9.339055793991415	-15232.0	-0.07847946045370938	-128.0	0.0	5873.077392578125	61377.0	1237.0	0.7304347826086957	0.45656565656565656	-531.0	-466.0	-0.5888223552894213	144.0	-8.03064637947174	2.6737425034056272	-107.0	-1.4406060837338	480.0	
2.2663636151363042	2055.0	9.755700580506101	1265.0	1886.0	0.19250979858293005	-3520.0	2.158185162477008	9.299816063764561	-15168.0	-0.03923973022685469	-64.0	0.0	5892.608642578125	62017.0	1230.0	0.7152173913043478	0.4808080808080808	-519.0	-464.0	-0.5928143712574852	204.0	-7.730562868349495	2.8992536446459667	-121.0	-2.3561544473621328	460.0	
2.304399020002193	2061.0	9.829534013481062	1259.0	1883.0	0.12133933033483253	-3584.0	2.1974248927038627	9.45677498467198	-15424.0	0.0	0.0	0.0	5912.139892578125	62657.0	1237.0	0.7304347826086957	0.47878787878787876	-520.0	-481.0	-0.5588822355289422	239.0	-7.443816919992821	2.945566413550119	-124.0	-2.8913412984806803	441.0	
2.353300663802685	2068.0	9.75707670701822	1265.0	1879.0	0.03676642431061869	-3584.0	2.1974248927038627	9.37829552421827	-15296.0	-0.19619865113427343	-320.0	0.0	5931.671142578125	63297.0	1233.0	0.7217391304347827	0.4727272727272727	-523.0	-472.0	-0.5768463073852296	201.0	-8.957533485421557	2.93784819329277	-118.0	-2.298257364765556	540.0	
2.451071569710295	2067.0	9.791439264205685	1262.0	1871.0	0.05013595171265378	-3776.0	2.3151440833844266	9.45677498467198	-15424.0	-0.23543838136112813	-384.0	0.0	5951.202392578125	63937.0	1230.0	0.7152173913043478	0.48484848484848486	-517.0	-472.0	-0.5768463073852296	194.0	-8.774715500859875	2.695977950212308	-103.0	-2.193621666284177	528.0	
2.488128650925785	2067.0	9.839461594503948	1258.0	1868.0	0.05098674582779134	-3840.0	2.3543838136112814	9.45677498467198	-15424.0	-0.15695892090741875	-256.0	0.0	5970.733642578125	64577.0	1232.0	0.7195652173913043	0.4808080808080808	-519.0	-478.0	-0.564870259481038	236.0	-7.061003237949752	2.8121499599860056	-117.0	-2.849542058875256	416.0	
2.4394813025459055	2066.0	9.86458852560202	1256.0	1872.0	0.06279973442605757	-3840.0	2.3543838136112814	9.496014714898834	-15488.0	-0.15695892090741875	-256.0	0.0	5990.264892578125	65217.0	1232.0	0.7195652173913043	0.4727272727272727	-523.0	-469.0	-0.5828343313373254	236.0	-7.707853151120392	2.5873056464764153	-99.0	-2.8430735597435493	458.0	
2.5498056878113973	2065.0	9.935275603455983	1250.0	1863.0	0.07665804182833645	-3968.0	2.4328632740649905	9.53525444512569	-15552.0	-0.11771919068056406	-192.0	0.0	6009.796142578125	321.0	1228.0	0.7108695652173913	0.46464646464646464	-527.0	-470.0	-0.5808383233532934	246.0	-7.823711839582767	1.8968053852215916	-52.0	-2.9940062276117776	465.0	
2.575520320944434	2067.0	10.044972253808444	1241.0	1861.0	0.053915769121022764	-3968.0	2.4328632740649905	9.613733905579398	-15680.0	-0.11771919068056406	-192.0	0.0	6029.327392578125	961.0	1231.0	0.717391304347826	0.48484848484848486	-517.0	-477.0	-0.56686626746507	302.0	-5.9273990030355375	2.06875552032881	-70.0	-3.8646803825932188	341.0	
2.490789897440347	2070.0	10.0717915799667	1239.0	1868.0	0.017192079834311452	-3776.0	2.3151440833844266	9.692213366033108	-15808.0	-0.19619865113427343	-320.0	0.0	6048.858642578125	1601.0	1228.0	0.7108695652173913	0.4888888888888889	-515.0	-453.0	-0.6147704590818364	334.0	-4.766756211403375	1.9774574551433246	-68.0	-4.362978825718666	265.0	
2.578078166323831	2078.0	10.169497502203935	1231.0	1861.0	-0.07734352042315604	-3904.0	2.393623543838136	9.770692826486817	-15936.0	-0.3139178418148375	-512.0	0.0	6068.389892578125	2241.0	1225.0	0.7043478260869566	0.498989898989899	-510.0	-465.0	-0.5908183632734532	304.0	-4.472924209848169	1.743853248539103	-55.0	-3.9096433814756635	246.0	
2.542359264094076	2083.0	10.195808824943974	1229.0	1864.0	-0.13767856007347481	-3840.0	2.3543838136112814	9.888412017167381	-16128.0	-0.4316370324954016	-704.0	0.0	6087.921142578125	2881.0	1228.0	0.7108695652173913	0.498989898989899	-510.0	-477.0	-0.56686626746507	245.0	-3.850687369973777	1.6796445321102982	-56.0	-3.018527346832582	206.0	
2.603443738019323	2086.0	10.170912545490403	1231.0	1859.0	-0.17346125644201107	-4096.0	2.5113427345187	9.770692826486817	-15936.0	-0.39239730226854685	-640.0	0.0	6107.452392578125	3521.0	1230.0	0.7152173913043478	0.48282828282828283	-518.0	-455.0	-0.6107784431137725	159.0	-3.0723400473472506	1.4682046405836293	-49.0	-1.7183260291843225	156.0	
2.5662616678730856	2084.0	10.134603591533645	1234.0	1862.0	-0.15009978114087238	-3968.0	2.4328632740649905	9.809932556713672	-16000.0	-0.39239730226854685	-640.0	0.0	6126.983642578125	4161.0	1232.0	0.7195652173913043	0.503030303030303	-508.0	-477.0	-0.56686626746507	56.0	-2.799880192102445	1.0567447552416454	-27.0	-0.15451070378239762	139.0	
2.5155585886163574	2081.0	9.976399957529313	1247.0	1866.0	-0.11604426996022997	-3904.0	2.393623543838136	9.692213366033108	-15808.0	-0.3139178418148375	-512.0	0.0	6146.514892578125	4801.0	1230.0	0.7152173913043478	0.498989898989899	-510.0	-476.0	-0.5688622754491018	-40.0	-2.754901027070213	1.025196171026559	-29.0	1.3051155501946565	137.0	
2.514220409630623	2076.0	9.902066304491006	1253.0	1866.0	-0.05656002442504869	-3904.0	2.393623543838136	9.692213366033108	-15808.0	-0.3139178418148375	-512.0	0.0	6166.046142578125	5441.0	1226.0	0.7065217391304348	0.503030303030303	-508.0	-459.0	-0.6027944111776448	-55.0	-3.3203309400188763	1.040432113934489	-28.0	1.5389067314534206	174.0	
2.562988429382134	2077.0	9.889129619733179	1254.0	1862.0	-0.0682499038461962	-4032.0	2.4721030042918453	9.496014714898834	-15488.0	-0.3531575720416922	-576.0	0.0	6185.577392578125	6081.0	1223.0	0.7	0.5050505050505051	-507.0	-468.0	-0.5848303393213574	-24.0	-3.0781135487895086	1.1773656328274118	-37.0	1.065001667807287	158.0	
2.489606930299175	2081.0	9.81841919181461	1260.0	1868.0	-0.11788359420054885	-3904.0	2.393623543838136	9.417535254445125	-15360.0	-0.39239730226854685	-640.0	0.0	6205.108642578125	6721.0	1230.0	0.7152173913043478	0.509090909090909	-505.0	-470.0	-0.5808383233532934	27.0	-1.3485796537225663	1.4778217871516088	-63.0	0.2720409296170736	45.0	
2.5132615149962474	2079.0	9.768688899746422	1264.0	1866.0	-0.09404796573209132	-3904.0	2.393623543838136	9.417535254445125	-15360.0	-0.3139178418148375	-512.0	0.0	6224.639892578125	7361.0	1231.0	0.717391304347826	0.498989898989899	-510.0	-455.0	-0.6107784431137725	12.0	-2.176086579550515	1.3763657564228036	-53.0	0.5084528810046307	99.0	
2.6110281033447413	2076.0	9.82695507961564	1259.0	1858.0	-0.056343059736661205	-4032.0	2.4721030042918453	9.496014714898834	-15488.0	-0.3139178418148375	-512.0	0.0	6244.171142578125	8001.0	1225.0	0.7043478260869566	0.5151515151515151	-502.0	-464.0	-0.5928143712574852	-3.0	-2.708295822180957	1.6441621043947263	-69.0	0.7419118555602127	134.0	
2.5262998386202127	2080.0	9.841822594433017	1258.0	1865.0	-0.10523443832007003	-3904.0	2.393623543838136	9.574494175352545	-15616.0	-0.3531575720416922	-576.0	0.0	6263.702392578125	8641.0	1225.0	0.7043478260869566	0.498989898989899	-510.0	-473.0	-0.5748502994011977	58.0	-1.0269808286033817	1.8790954257120673	-90.0	-0.2026579483679586	24.0	
2.5022810810286877	2081.0	9.866933958821349	1256.0	1867.0	-0.11727170502318632	-3904.0	2.393623543838136	9.496014714898834	-15488.0	-0.39239730226854685	-640.0	0.0	6283.233642578125	9281.0	1227.0	0.7086956521739131	0.494949494949495	-512.0	-460.0	-0.6007984031936129	-13.0	-1.7812247433263997	2.113284442048869	-105.0	0.8847323995245188	74.0	
2.561902387037453	2077.0	9.77941740267098	1263.0	1862.0	-0.06935788644026501	-3904.0	2.393623543838136	9.417535254445125	-15360.0	-0.27467811158798283	-448.0	0.0	6302.764892578125	9921.0	1223.0	0.7	0.5070707070707071	-506.0	-477.0	-0.56686626746507	-176.0	-3.2467799314938888	1.9512060438170813	-94.0	3.3784754038776765	171.0	
2.645296790335363	2070.0	9.666312612133542	1272.0	1855.0	0.014682359084930027	-4032.0	2.4721030042918453	9.299816063764561	-15168.0	-0.23543838136112813	-384.0	0.0	6322.296142578125	10561.0	1227.0	0.7086956521739131	0.509090909090909	-505.0	-455.0	-0.6107784431137725	-283.0	-4.731947077591173	2.2143661763731206	-109.0	5.020703501194164	269.0	
2.741130477958199	2066.0	9.541486661899725	1282.0	1847.0	0.06258520754315756	-4352.0	2.6683016554261187	9.221336603310851	-15040.0	-0.15695892090741875	-256.0	0.0	6341.827392578125	11201.0	1225.0	0.7043478260869566	0.503030303030303	-508.0	-452.0	-0.6167664670658684	-306.0	-5.007204018809713	1.9646591003265277	-92.0	5.3732659565379075	287.0	
2.728085677995559	2062.0	9.504208401235758	1285.0	1848.0	0.11027474802122883	-4352.0	2.6683016554261187	9.142857142857142	-14912.0	-0.19619865113427343	-320.0	0.0	6361.358642578125	11841.0	1222.0	0.6978260869565217	0.5151515151515151	-502.0	-478.0	-0.564870259481038	-170.0	-4.214784228466055	1.9322743105116569	-88.0	3.2969006939956875	234.0	
2.7911008938669055	2065.0	9.674356063226098	1271.0	1843.0	0.0764617984865927	-4224.0	2.5898221949724096	9.37829552421827	-15296.0	-0.19619865113427343	-320.0	0.0	6380.889892578125	12481.0	1230.0	0.7152173913043478	0.5111111111111111	-504.0	-475.0	-0.5708582834331338	-19.0	-3.704962924893836	1.4939012419655968	-55.0	0.9952245341919042	199.0	
2.70782284438151	2070.0	9.823554722785534	1259.0	1850.0	0.016880040731911433	-4288.0	2.629061925199264	9.37829552421827	-15296.0	-0.23543838136112813	-384.0	0.0	6400.421142578125	13121.0	1227.0	0.7086956521739131	0.509090909090909	-505.0	-467.0	-0.5868263473053893	150.0	-2.2782975412405233	0.9277038770474686	-17.0	-1.5893843249678228	104.0	
2.6367362601391036	2075.0	9.97250716399073	1247.0	1856.0	-0.042582264553882324	-4096.0	2.5113427345187	9.692213366033108	-15808.0	-0.3139178418148375	-512.0	0.0	6419.952392578125	13761.0	1224.0	0.7021739130434783	0.5212121212121212	-499.0	-471.0	-0.5788423153692616	250.0	-0.6677654036937506	0.81647732718285	-13.0	-3.126402193871808	-2.0	
2.7003613092072816	2081.0	10.167750623659664	1231.0	1851.0	-0.11228273609301725	-4224.0	2.5898221949724096	9.809932556713672	-16000.0	-0.3531575720416922	-576.0	0.0	6439.483642578125	14401.0	1229.0	0.7130434782608696	0.498989898989899	-510.0	-475.0	-0.5708582834331338	254.0	0.6650699712602883	0.636190422673339	-7.0	-3.200567049522489	-89.0	
2.628794198257908	2087.0	10.255990268163005	1224.0	1857.0	-0.18440516738398352	-4032.0	2.4721030042918453	9.966891477621092	-16256.0	-0.39239730226854685	-640.0	0.0	6459.014892578125	15041.0	1227.0	0.7086956521739131	0.503030303030303	-508.0	-456.0	-0.6087824351297406	194.0	3.3931139483034456	0.8745842769223549	-38.0	-2.31529996077581	-266.0	
2.5439409446026313	2089.0	10.282571159321893	1222.0	1864.0	-0.2090842765511161	-3968.0	2.4328632740649905	9.966891477621092	-16256.0	-0.47087676272225626	-768.0	0.0	6478.546142578125	15681.0	1226.0	0.7065217391304348	0.5171717171717172	-501.0	-477.0	-0.56686626746507	98.0	3.792941070734369	1.0282333273460824	-54.0	-0.859222186372743	-291.0	
2.689137373716902	2082.0	10.253567001394979	1224.0	1852.0	-0.12358500444165219	-4224.0	2.5898221949724096	9.849172286940528	-16064.0	-0.4316370324954016	-704.0	0.0	6498.077392578125	16321.0	1229.0	0.7130434782608696	0.5111111111111111	-504.0	-471.0	-0.5788423153692616	-75.0	0.04153661317757695	0.8092713355999135	-29.0	1.80947056542716	-45.0	
2.6146482444936794	2076.0	10.192662469822974	1229.0	1858.0	-0.05264978442309848	-4096.0	2.5113427345187	9.849172286940528	-16064.0	-0.3139178418148375	-512.0	0.0	6517.608642578125	16961.0	1224.0	0.7021739130434783	0.5151515151515151	-502.0	-462.0	-0.596806387225549	-165.0	0.9614964908838922	0.8853918251261643	-42.0	3.1690922594257622	-104.0	
2.697684951235812	2071.0	10.019083317583052	1243.0	1851.0	0.00668575497734529	-4096.0	2.5113427345187	9.692213366033108	-15808.0	-0.27467811158798283	-448.0	0.0	6537.139892578125	17601.0	1226.0	0.7065217391304348	0.5070707070707071	-506.0	-477.0	-0.56686626746507	-214.0	2.567736465899195	1.1485852381329407	-69.0	3.8982770079645825	-208.0	
