Device	Device	Device	Device	Device	Device	Device	Device	Device	Device	Device	Device	Device	Device	Device	Device	Device	Device	Device	Device	Device	Device	Device	Device	Device	Device	Device	
Low Noise Accelerometer X	Low Noise Accelerometer X	Low Noise Accelerometer Z	Low Noise Accelerometer Z	Low Noise Accelerometer Y	Low Noise Accelerometer Y	Wide Range Accelerometer X	Wide Range Accelerometer X	Wide Range Accelerometer Z	Wide Range Accelerometer Z	Wide Range Accelerometer Y	Wide Range Accelerometer Y	Event_Marker	Timestamp	Timestamp	Magnetometer Z	Magnetometer Z	Magnetometer X	Magnetometer X	Magnetometer Y	Magnetometer Y	Gyroscope Y	Gyroscope Y	Gyroscope Z	Gyroscope Z	Gyroscope X	Gyroscope X	
CAL	UNCAL	CAL	UNCAL	CAL	UNCAL	UNCAL	CAL	CAL	UNCAL	UNCAL	CAL	CAL	UNCAL	CAL	UNCAL	CAL	CAL	UNCAL	CAL	UNCAL	CAL	UNCAL	CAL	UNCAL	CAL	UNCAL	
m/(s^2)	no units	m/(s^2)	no units	m/(s^2)	no units	no units	m/(s^2)	m/(s^2)	no units	no units	m/(s^2)	no units	no units	ms	no units	local_flux	local_flux	no units	local_flux	no units	deg/s	no units	deg/s	no units	deg/s	no units	
-0.28880589091290365	2097.0	9.80523045852918	1266.0	-0.33857069408287327	2096.0	960.0	-0.5885959534028203	9.37829552421827	-15296.0	-832.0	-0.510116492949111	0.0	39382.0	1201.84326171875	1246.0	0.75	0.1595959595959596	-678.0	-0.6686626746506987	-426.0	-7.178389850766534	14.0	3.0450831239725438	-141.0	0.5280576627662205	426.0	
-0.2044482754215016	2089.0	9.801599450054576	1266.0	-0.24137788584403058	2089.0	640.0	-0.39239730226854685	9.45677498467198	-15424.0	-832.0	-0.510116492949111	0.0	40022.0	1221.37451171875	1247.0	0.7521739130434782	0.14343434343434344	-686.0	-0.660678642714571	-430.0	-5.887308371127369	96.0	2.9451397695560892	-137.0	-0.7320014410035554	341.0	
-0.20408626130660784	2089.0	9.83817018907531	1263.0	-0.24100855831267431	2089.0	576.0	-0.3531575720416922	9.37829552421827	-15296.0	-768.0	-0.47087676272225626	0.0	40662.0	1240.90576171875	1242.0	0.741304347826087	0.14747474747474748	-684.0	-0.6886227544910181	-416.0	-4.859116624143226	200.0	2.9818250971875573	-140.0	-2.3240324079030548	273.0	
-0.13093962862823647	2088.0	9.848644690290762	1262.0	-0.22812415420265175	2083.0	640.0	-0.39239730226854685	9.417535254445125	-15360.0	-704.0	-0.4316370324954016	0.0	41302.0	1260.43701171875	1246.0	0.75	0.16565656565656567	-675.0	-0.6487025948103793	-436.0	-4.018670795590613	315.0	2.828374503477222	-129.0	-4.081486295846376	217.0	
-0.12961440231985083	2087.0	9.994689211374327	1250.0	-0.21460226395764792	2083.0	320.0	-0.19619865113427343	9.613733905579398	-15680.0	-832.0	-0.510116492949111	0.0	41942.0	1279.96826171875	1247.0	0.7521739130434782	0.16363636363636364	-676.0	-0.6626746506986029	-429.0	-1.3466693168189063	457.0	2.0691208683367894	-85.0	-6.267902128124588	41.0	
-0.055006760504555205	2092.0	10.079735800627454	1243.0	-0.2732466855023854	2077.0	320.0	-0.19619865113427343	9.652973635806253	-15744.0	-896.0	-0.5493562231759657	0.0	42582.0	1299.49951171875	1242.0	0.741304347826087	0.16565656565656567	-675.0	-0.6746506986027945	-423.0	3.438879504715373	485.0	2.2028560033341007	-115.0	-6.741613129647915	-271.0	
-0.21191412815484698	2098.0	10.169698973610458	1236.0	-0.3462052840755642	2090.0	576.0	-0.3531575720416922	9.731453096259962	-15872.0	-832.0	-0.510116492949111	0.0	43222.0	1319.03076171875	1245.0	0.7478260869565218	0.1414141414141414	-687.0	-0.6746506986027945	-423.0	5.55021200808801	403.0	1.826111284562919	-103.0	-5.5155781657082565	-408.0	
-0.3696748305247903	2100.0	10.22213766757526	1232.0	-0.3713548897017843	2103.0	768.0	-0.47087676272225626	9.888412017167381	-16128.0	-896.0	-0.5493562231759657	0.0	43862.0	1338.56201171875	1246.0	0.75	0.1616161616161616	-677.0	-0.6526946107784432	-434.0	0.893597178534494	323.0	1.5168348290020197	-64.0	-4.252281979389909	-104.0	
-0.222409717856323	2101.0	10.304753206705488	1225.0	-0.3811042759548817	2091.0	896.0	-0.5493562231759657	9.927651747394236	-16192.0	-1024.0	-0.627835683629675	0.0	44502.0	1358.09326171875	1239.0	0.7347826086956522	0.15757575757575756	-679.0	-0.6846307385229542	-418.0	-7.391756002441023	263.0	0.8426007056590306	17.0	-3.256880919063043	436.0	
0.007902895452068279	2102.0	10.15403053689141	1237.0	-0.3923565692910229	2072.0	320.0	-0.19619865113427343	9.770692826486817	-15936.0	-1024.0	-0.627835683629675	0.0	45142.0	1377.62451171875	1242.0	0.741304347826087	0.1616161616161616	-677.0	-0.660678642714571	-430.0	-7.606153560500963	230.0	0.38767161762884794	47.0	-2.752835802798032	450.0	
-0.14888380082659217	2108.0	10.25618395621466	1229.0	-0.46519205868708297	2085.0	512.0	-0.3139178418148375	9.888412017167381	-16128.0	-1024.0	-0.627835683629675	0.0	45782.0	1397.15576171875	1246.0	0.75	0.15555555555555556	-680.0	-0.6746506986027945	-423.0	-3.8897483426998956	169.0	-0.3128980528892025	74.0	-1.8622432009836476	208.0	
-0.05026387775844661	2109.0	10.351974615102083	1221.0	-0.47529614563861167	2077.0	384.0	-0.23543838136112813	9.809932556713672	-16000.0	-1216.0	-0.745554874310239	0.0	46422.0	1416.68701171875	1240.0	0.7369565217391304	0.16565656565656567	-675.0	-0.6986027944111778	-411.0	-1.533733950292252	97.0	-0.6256264622064773	81.0	-0.7907463106871916	55.0	
-0.14694226498270102	2113.0	10.39146884095419	1218.0	-0.5240607583366704	2085.0	384.0	-0.23543838136112813	9.888412017167381	-16128.0	-1152.0	-0.7063151440833844	0.0	47062.0	1436.21826171875	1243.0	0.7434782608695653	0.15757575757575756	-679.0	-0.6686626746506987	-426.0	0.22974828163339453	66.0	-1.246984261077886	113.0	-0.3368982432726077	-60.0	
-0.2569154300310907	2109.0	10.417111558825345	1216.0	-0.4767112917241055	2094.0	576.0	-0.3531575720416922	10.477007970570202	-17088.0	-1216.0	-0.745554874310239	0.0	47702.0	1455.74951171875	1243.0	0.7434782608695653	0.15757575757575756	-679.0	-0.658682634730539	-431.0	-0.157480226087924	51.0	-1.8288587821506905	153.0	-0.10488907606611697	-35.0	
-0.22058669460450486	2107.0	10.415896033763897	1216.0	-0.4522637740782854	2091.0	768.0	-0.47087676272225626	10.006131207847945	-16320.0	-1280.0	-0.7847946045370937	0.0	48342.0	1475.28076171875	1242.0	0.741304347826087	0.17575757575757575	-670.0	-0.6686626746506987	-426.0	-2.2869322058337476	49.0	-1.4719706019246412	139.0	-0.05317630531808838	104.0	
-0.18376663857316117	2109.0	10.41563424869992	1216.0	-0.47599457691078045	2088.0	704.0	-0.4316370324954016	10.0453709380748	-16384.0	-1088.0	-0.6670754138565297	0.0	48982.0	1494.81201171875	1247.0	0.7521739130434782	0.1717171717171717	-672.0	-0.6646706586826349	-428.0	-2.2264556966602824	56.0	-1.4569287080819087	138.0	-0.16024494873681924	100.0	
-0.2079017499772005	2112.0	10.404651744066253	1217.0	-0.5124903313844105	2090.0	576.0	-0.3531575720416922	10.006131207847945	-16320.0	-1344.0	-0.8240343347639485	0.0	49622.0	1514.34326171875	1243.0	0.7434782608695653	0.15757575757575756	-679.0	-0.6806387225548903	-420.0	0.1891353084269695	29.0	-1.266667103846141	113.0	0.2262455290450079	-57.0	
-0.40321085416739155	2110.0	10.408114367735317	1217.0	-0.490312410647453	2106.0	896.0	-0.5493562231759657	10.006131207847945	-16320.0	-1216.0	-0.745554874310239	0.0	50262.0	1533.87451171875	1239.0	0.7347826086956522	0.15151515151515152	-682.0	-0.6706586826347306	-425.0	1.2339949741507914	-10.0	-1.7379281660251122	138.0	0.8089528259238914	-125.0	
-0.36773545346045733	2104.0	10.369374363655664	1220.0	-0.4180559000546743	2103.0	1024.0	-0.627835683629675	10.0453709380748	-16384.0	-1152.0	-0.7063151440833844	0.0	50902.0	1553.40576171875	1242.0	0.741304347826087	0.1797979797979798	-668.0	-0.6666666666666667	-427.0	-2.6253385457930123	-37.0	-1.320826867320946	127.0	1.258192548956029	127.0	
-0.24799504449949566	2103.0	10.159439557329765	1237.0	-0.4069096512572392	2093.0	768.0	-0.47087676272225626	9.849172286940528	-16064.0	-1088.0	-0.6670754138565297	0.0	51542.0	1572.93701171875	1241.0	0.7391304347826088	0.16565656565656567	-675.0	-0.6946107784431139	-413.0	-5.321175135421064	-30.0	-0.6791629731059757	97.0	1.1786870365253135	303.0	
-0.24957456622849306	2098.0	10.06072541161097	1245.0	-0.3476716240762956	2093.0	512.0	-0.3139178418148375	9.731453096259962	-15872.0	-1024.0	-0.627835683629675	0.0	52182.0	1592.46826171875	1241.0	0.7391304347826088	0.18585858585858586	-665.0	-0.6806387225548903	-420.0	-4.178865316769543	-60.0	-0.47706861209194507	77.0	1.6235377025973534	229.0	
-0.31259194087939857	2094.0	9.902529560961508	1258.0	-0.3016909852449619	2098.0	640.0	-0.39239730226854685	9.574494175352545	-15616.0	-832.0	-0.510116492949111	0.0	52822.0	1611.99951171875	1238.0	0.7326086956521739	0.16565656565656567	-675.0	-0.6826347305389222	-419.0	-2.54346236130201	-12.0	-0.4267586031468044	68.0	0.8771456502289897	122.0	
-0.3387806243807275	2096.0	9.696264679884562	1275.0	-0.3281119064329133	2100.0	896.0	-0.5493562231759657	9.339055793991415	-15232.0	-960.0	-0.5885959534028203	0.0	53462.0	1631.53076171875	1245.0	0.7478260869565218	0.16565656565656567	-675.0	-0.6906187624750499	-415.0	-3.1857253476283103	112.0	0.15814777925082452	37.0	-1.0023632788431087	163.0	
-0.13129732518401385	2090.0	9.788170328588274	1267.0	-0.2528288603274031	2083.0	576.0	-0.3531575720416922	9.37829552421827	-15296.0	-704.0	-0.4316370324954016	0.0	54102.0	1651.06201171875	1242.0	0.741304347826087	0.18787878787878787	-664.0	-0.6546906187624751	-433.0	-5.645534617048792	176.0	0.7131134518261166	14.0	-1.9511492165671551	323.0	
-0.08057913447037864	2100.0	9.862711283206469	1261.0	-0.3720581965849281	2079.0	512.0	-0.3139178418148375	9.574494175352545	-15616.0	-832.0	-0.510116492949111	0.0	54742.0	1670.59326171875	1243.0	0.7434782608695653	0.18181818181818182	-667.0	-0.6546906187624751	-433.0	-2.4769434533335755	347.0	0.9414375112893846	-9.0	-4.583595584478071	115.0	
-0.24954650209423632	2111.0	9.905351864179572	1258.0	-0.5058515849333632	2093.0	576.0	-0.3531575720416922	9.53525444512569	-15552.0	-1280.0	-0.7847946045370937	0.0	55382.0	1690.12451171875	1241.0	0.7391304347826088	0.18585858585858586	-665.0	-0.6746506986027945	-423.0	-0.8913172337743795	428.0	1.1202355529180035	-25.0	-5.831391010171762	11.0	
-0.13836230577041764	2117.0	9.97770798702911	1252.0	-0.5763053383681358	2084.0	704.0	-0.4316370324954016	9.574494175352545	-15616.0	-1280.0	-0.7847946045370937	0.0	56022.0	1709.65576171875	1238.0	0.7326086956521739	0.17777777777777778	-669.0	-0.656686626746507	-432.0	-3.1698160672351077	344.0	0.6729937714492524	12.0	-4.531039481913201	160.0	
-0.12617084052742938	2117.0	9.977461768674871	1252.0	-0.5761858858992482	2083.0	512.0	-0.3139178418148375	9.574494175352545	-15616.0	-1408.0	-0.8632740649908032	0.0	56662.0	1729.18701171875	1241.0	0.7391304347826088	0.18787878787878787	-664.0	-0.660678642714571	-430.0	-4.75795767072253	271.0	0.36430518696099595	37.0	-3.404891906182509	264.0	
-0.027915090353735808	2117.0	10.048633499882438	1246.0	-0.5744916110854357	2075.0	320.0	-0.19619865113427343	9.613733905579398	-15680.0	-1344.0	-0.8240343347639485	0.0	57302.0	1748.71826171875	1237.0	0.7304347826086957	0.1898989898989899	-663.0	-0.6866267465069861	-417.0	-5.796274644234962	221.0	0.13628872990062402	55.0	-2.634052462683126	332.0	
-0.07521994218876452	2123.0	10.124190461337063	1240.0	-0.6464982466157457	2079.0	320.0	-0.19619865113427343	9.692213366033108	-15808.0	-1344.0	-0.8240343347639485	0.0	57942.0	1768.24951171875	1237.0	0.7304347826086957	0.18787878787878787	-664.0	-0.6686626746506987	-426.0	-4.952732589642738	223.0	0.10877994043527994	53.0	-2.6729061341796183	277.0	
-0.09984421541800353	2123.0	10.10030240536505	1242.0	-0.6469833699077583	2081.0	512.0	-0.3139178418148375	9.652973635806253	-15744.0	-1408.0	-0.8632740649908032	0.0	58582.0	1787.78076171875	1238.0	0.7326086956521739	0.1797979797979798	-668.0	-0.6666666666666667	-427.0	-6.153834763159416	217.0	-0.3809886808308133	91.0	-2.5696403595927406	355.0	
0.010113838173478662	2120.0	10.15832236688003	1237.0	-0.6091590114434405	2072.0	384.0	-0.23543838136112813	9.692213366033108	-15808.0	-1472.0	-0.9025137952176578	0.0	59222.0	1807.31201171875	1238.0	0.7326086956521739	0.18787878787878787	-664.0	-0.6806387225548903	-420.0	-8.202488390012848	156.0	-0.5153927145315252	107.0	-1.6213971693318108	489.0	
-0.025743005664373167	2117.0	10.268057934006839	1228.0	-0.5722756458972981	2075.0	256.0	-0.15695892090741875	9.731453096259962	-15872.0	-1280.0	-0.7847946045370937	0.0	59862.0	1826.84326171875	1243.0	0.7434782608695653	0.19797979797979798	-659.0	-0.6766467065868265	-422.0	-6.912189977659421	129.0	-0.8165258882702691	120.0	-1.2236537656226456	405.0	
0.04765144609593529	2119.0	10.26705749388015	1228.0	-0.5956480913231306	2069.0	256.0	-0.15695892090741875	9.888412017167381	-16128.0	-1472.0	-0.9025137952176578	0.0	60502.0	1846.37451171875	1241.0	0.7391304347826088	0.19393939393939394	-661.0	-0.6746506986027945	-423.0	-4.368790245431364	169.0	-0.6393768264141149	98.0	-1.8574527819563327	239.0	
0.05984291133892354	2119.0	10.266811275525912	1228.0	-0.595528638854243	2068.0	320.0	-0.19619865113427343	9.888412017167381	-16128.0	-1408.0	-0.8632740649908032	0.0	61142.0	1865.90576171875	1236.0	0.7282608695652174	0.2080808080808081	-654.0	-0.6826347305389222	-419.0	-1.4640792116770998	138.0	-0.7104789924715059	88.0	-1.415017002560035	50.0	
-0.061595531943108614	2116.0	10.353889878451897	1221.0	-0.5597276589445505	2078.0	192.0	-0.11771919068056406	10.006131207847945	-16320.0	-1472.0	-0.9025137952176578	0.0	61782.0	1885.43701171875	1240.0	0.7369565217391304	0.20404040404040405	-656.0	-0.6626746506986029	-429.0	2.65527045943981	74.0	-1.0661060982942248	90.0	-0.48282646885295327	-218.0	
-0.19532668282373644	2122.0	10.32145815132398	1224.0	-0.6336784443511418	2089.0	704.0	-0.4316370324954016	9.927651747394236	-16192.0	-1472.0	-0.9025137952176578	0.0	62422.0	1904.96826171875	1238.0	0.7326086956521739	0.19393939393939394	-661.0	-0.6926147704590819	-414.0	3.747543073770073	87.0	-0.609481895820055	55.0	-0.6914678261749632	-289.0	
-0.09839615895842845	2123.0	10.246585361447984	1230.0	-0.6455060597823331	2081.0	512.0	-0.3139178418148375	9.770692826486817	-15936.0	-1600.0	-0.9809932556713672	0.0	63062.0	1924.49951171875	1235.0	0.7260869565217392	0.2080808080808081	-654.0	-0.6906187624750499	-415.0	-3.514696904050089	49.0	0.06775468463943202	42.0	-0.04089865833592497	185.0	
0.059496008680937226	2126.0	10.146577857119043	1238.0	-0.6810717914624819	2068.0	320.0	-0.19619865113427343	9.809932556713672	-16000.0	-1600.0	-0.9809932556713672	0.0	63702.0	1944.03076171875	1237.0	0.7304347826086957	0.2080808080808081	-654.0	-0.660678642714571	-430.0	-8.797778235722795	-43.0	-0.1452500676096048	77.0	1.4111716987070377	530.0	
0.21663608395625866	2116.0	10.128802422180032	1239.0	-0.5591962173482754	2055.0	0.0	0.0	9.770692826486817	-15936.0	-1408.0	-0.8632740649908032	0.0	64342.0	1963.56201171875	1241.0	0.7391304347826088	0.19393939393939394	-661.0	-0.6906187624750499	-415.0	-8.730451594119556	-123.0	-0.7683203458148885	115.0	2.6272284703138196	526.0	
0.3609942898077848	2112.0	9.978611105848776	1251.0	-0.5110617773687354	2043.0	-512.0	0.3139178418148375	9.613733905579398	-15680.0	-1216.0	-0.745554874310239	0.0	64982.0	1983.09326171875	1236.0	0.7282608695652174	0.21212121212121213	-652.0	-0.6826347305389222	-419.0	-4.0464485680214715	-117.0	-1.915264472464173	170.0	2.489133687201128	220.0	
0.0805970655577295	2115.0	9.94841869397361	1254.0	-0.5503122520432406	2066.0	-64.0	0.03923973022685469	9.496014714898834	-15488.0	-1344.0	-0.8240343347639485	0.0	86.0	2002.62451171875	1242.0	0.741304347826087	0.20606060606060606	-655.0	-0.6526946107784432	-434.0	6.149246388211799	-29.0	-1.626820983613071	107.0	1.0487736958136995	-445.0	
-0.004260505656663263	2115.0	9.99890320781425	1250.0	-0.5506559826169781	2073.0	512.0	-0.3139178418148375	9.574494175352545	-15616.0	-1216.0	-0.745554874310239	0.0	726.0	2022.15576171875	1241.0	0.7391304347826088	0.19797979797979798	-659.0	-0.6826347305389222	-419.0	10.209734908802332	-8.0	-1.9716178379875626	112.0	0.6887771756268057	-710.0	
-0.13716854473145434	2111.0	10.171321318476815	1236.0	-0.5020681108167631	2084.0	256.0	-0.15695892090741875	9.692213366033108	-15808.0	-1344.0	-0.8240343347639485	0.0	1366.0	2041.68701171875	1239.0	0.7347826086956522	0.1898989898989899	-663.0	-0.6766467065868265	-422.0	4.259659155039267	-89.0	-1.1869800271180506	84.0	1.9802170966625352	-321.0	
-0.12386513178908627	2123.0	10.137365581094258	1239.0	-0.646852947314177	2083.0	640.0	-0.39239730226854685	9.652973635806253	-15744.0	-1280.0	-0.7847946045370937	0.0	2006.0	2061.21826171875	1241.0	0.7391304347826088	0.20606060606060606	-655.0	-0.6546906187624751	-433.0	-3.8229155804336252	-185.0	-0.547903333621099	75.0	3.5211188896446406	207.0	
0.034492451100338745	2118.0	10.18173355285331	1235.0	-0.5845847279122706	2070.0	320.0	-0.19619865113427343	9.888412017167381	-16128.0	-1344.0	-0.8240343347639485	0.0	2646.0	2080.74951171875	1240.0	0.7369565217391304	0.2	-658.0	-0.6766467065868265	-422.0	-7.574455505829993	-192.0	-1.325537468567281	144.0	3.6650981672256004	451.0	
0.3765775061337975	2118.0	10.247980916976124	1229.0	-0.5805014037207077	2042.0	-128.0	0.07847946045370938	9.849172286940528	-16064.0	-1408.0	-0.8632740649908032	0.0	3286.0	2100.28076171875	1237.0	0.7304347826086957	0.18787878787878787	-664.0	-0.722554890219561	-399.0	-3.498910039311483	-166.0	-1.6233629500389248	146.0	3.2289054502030012	185.0	
0.08228862354012531	2116.0	10.107130331396156	1241.0	-0.5607564128602756	2066.0	-192.0	0.11771919068056406	9.770692826486817	-15936.0	-1472.0	-0.9025137952176578	0.0	3926.0	2119.81201171875	1239.0	0.7347826086956522	0.19393939393939394	-661.0	-0.6766467065868265	-422.0	4.708292530389191	-136.0	-1.5466481408984603	104.0	2.6905596602474393	-350.0	
-0.13775894891226137	2117.0	10.038659218730333	1247.0	-0.575689792482542	2084.0	576.0	-0.3531575720416922	9.613733905579398	-15680.0	-1344.0	-0.8240343347639485	0.0	4566.0	2139.34326171875	1244.0	0.7456521739130435	0.19595959595959597	-660.0	-0.6886227544910181	-416.0	1.409678529236064	-227.0	-1.282470800659485	98.0	4.10757621850992	-134.0	
-0.1508145427726923	2108.0	10.061140014770748	1245.0	-0.4671618055209831	2085.0	448.0	-0.27467811158798283	9.770692826486817	-15936.0	-1280.0	-0.7847946045370937	0.0	5206.0	2158.87451171875	1239.0	0.7347826086956522	0.1898989898989899	-663.0	-0.6726546906187626	-424.0	-4.992834459435528	-276.0	-0.7467257525944935	90.0	4.91684849668561	284.0	
0.16592005202218163	2107.0	10.04230965622096	1246.0	-0.45213457038744786	2059.0	320.0	-0.19619865113427343	9.652973635806253	-15744.0	-1152.0	-0.7063151440833844	0.0	5846.0	2178.40576171875	1238.0	0.7326086956521739	0.19393939393939394	-661.0	-0.6766467065868265	-422.0	-9.28906362212957	-257.0	-0.346194245021016	84.0	4.670837404282133	564.0	
0.006599256939264733	2113.0	9.888467902399077	1259.0	-0.5275553525030019	2072.0	384.0	-0.23543838136112813	9.496014714898834	-15488.0	-1408.0	-0.8632740649908032	0.0	6486.0	2197.93701171875	1240.0	0.7369565217391304	0.20606060606060606	-655.0	-0.6946107784431139	-413.0	-10.29340923431645	-168.0	0.3325753349598657	47.0	3.3272686931036213	629.0	
0.20129852793262487	2112.0	9.859909481051421	1261.0	-0.5138457512354606	2056.0	0.0	0.0	9.417535254445125	-15360.0	-1216.0	-0.745554874310239	0.0	7126.0	2217.46826171875	1238.0	0.7326086956521739	0.2080808080808081	-654.0	-0.6926147704590819	-414.0	-13.234364325662922	-206.0	0.3342378936176357	59.0	3.934625012077922	821.0	
0.2868650159198977	2105.0	9.966229124638382	1252.0	-0.42758954052212783	2049.0	-256.0	0.15695892090741875	9.53525444512569	-15552.0	-1088.0	-0.6670754138565297	0.0	7766.0	2236.99951171875	1244.0	0.7456521739130435	0.2202020202020202	-648.0	-0.6427145708582835	-439.0	-11.309446336390382	-181.0	-0.17433237041172245	85.0	3.5351476953030674	695.0	
0.21395540842567248	2104.0	10.004038738785173	1249.0	-0.4158923476845178	2055.0	0.0	0.0	9.574494175352545	-15616.0	-1152.0	-0.7063151440833844	0.0	8406.0	2256.53076171875	1241.0	0.7391304347826088	0.23434343434343435	-641.0	-0.6706586826347306	-425.0	-8.517883020101442	-98.0	-0.6179809556100045	105.0	2.2448746476915087	512.0	
0.2244531569067067	2102.0	9.857032694349268	1261.0	-0.393161045101898	2054.0	0.0	0.0	9.53525444512569	-15552.0	-1088.0	-0.6670754138565297	0.0	9046.0	2276.06201171875	1243.0	0.7434782608695653	0.23434343434343435	-641.0	-0.6407185628742516	-440.0	-7.433700980284431	-47.0	-0.3925483421454198	87.0	1.4583674280537948	441.0	
0.4941264013893727	2108.0	9.926187978593715	1255.0	-0.46206191644113276	2032.0	-640.0	0.39239730226854685	9.574494175352545	-15616.0	-1152.0	-0.7063151440833844	0.0	9686.0	2295.59326171875	1247.0	0.7521739130434782	0.21818181818181817	-649.0	-0.660678642714571	-430.0	-3.612219509381566	36.0	0.8612362113740292	-11.0	0.15779519889609703	192.0	
0.3486735180749324	2108.0	10.014474323226276	1248.0	-0.4626335818279515	2044.0	-320.0	0.19619865113427343	9.652973635806253	-15744.0	-1280.0	-0.7847946045370937	0.0	10326.0	2315.12451171875	1241.0	0.7391304347826088	0.21616161616161617	-650.0	-0.6846307385229542	-418.0	1.0275003710391886	201.0	0.7736244695667601	-20.0	-2.398107703330164	-112.0	
0.3134308249930279	2110.0	10.125402065349926	1239.0	-0.4859731168797028	2047.0	-256.0	0.15695892090741875	9.770692826486817	-15936.0	-1216.0	-0.745554874310239	0.0	10966.0	2334.65576171875	1243.0	0.7434782608695653	0.23232323232323232	-642.0	-0.6387225548902197	-441.0	0.5321118562206549	273.0	-0.09262194456498259	43.0	-3.488210852402511	-81.0	
0.35013236843229856	2113.0	10.100998222604828	1241.0	-0.5219947181860141	2044.0	-256.0	0.15695892090741875	9.731453096259962	-15872.0	-1344.0	-0.8240343347639485	0.0	11606.0	2354.18701171875	1245.0	0.7478260869565218	0.22626262626262628	-645.0	-0.6467065868263474	-437.0	-2.835727295331587	260.0	-0.960581858477288	116.0	-3.2568138297082814	138.0	
0.4727775254306433	2116.0	10.135822083081289	1238.0	-0.556564606324519	2034.0	-512.0	0.3139178418148375	9.770692826486817	-15936.0	-1408.0	-0.8632740649908032	0.0	12246.0	2373.71826171875	1239.0	0.7347826086956522	0.23232323232323232	-642.0	-0.6626746506986029	-429.0	-3.0808780445411346	183.0	-0.5555808641005298	87.0	-2.0832596606192277	155.0	
0.47360711357515467	2109.0	10.304816486849138	1224.0	-0.47052901700780503	2034.0	-320.0	0.19619865113427343	9.849172286940528	-16064.0	-1216.0	-0.745554874310239	0.0	12886.0	2393.24951171875	1246.0	0.75	0.23030303030303031	-643.0	-0.6487025948103793	-436.0	1.7486090013278441	179.0	-1.1190341787909452	102.0	-2.0707180291767764	-160.0	
-0.0018686660196201854	2105.0	10.362226248027907	1220.0	-0.4265169061076278	2073.0	192.0	-0.11771919068056406	9.966891477621092	-16256.0	-1152.0	-0.7063151440833844	0.0	13526.0	2412.78076171875	1245.0	0.7478260869565218	0.22626262626262628	-645.0	-0.6506986027944113	-435.0	3.3857664400246015	278.0	-1.6525123195821403	134.0	-3.5927930256169764	-268.0	
-0.14827612640931948	2110.0	10.293231565234128	1226.0	-0.4889118913948842	2085.0	576.0	-0.3531575720416922	9.927651747394236	-16192.0	-1088.0	-0.6670754138565297	0.0	14166.0	2432.31201171875	1240.0	0.7369565217391304	0.24646464646464647	-635.0	-0.656686626746507	-432.0	-7.72069935447608	293.0	-0.9003618324959735	136.0	-3.7098652498012474	456.0	
0.583459607251913	2113.0	10.266983522637737	1227.0	-0.5180015927974888	2025.0	-640.0	0.39239730226854685	9.888412017167381	-16128.0	-1280.0	-0.7847946045370937	0.0	14806.0	2451.84326171875	1244.0	0.7456521739130435	0.24848484848484848	-634.0	-0.656686626746507	-432.0	-18.361964898039503	207.0	0.3276809926335935	100.0	-2.295467803491088	1151.0	
0.8034037785691341	2120.0	10.227649898236304	1230.0	-0.6005328367259213	2007.0	-896.0	0.5493562231759657	9.809932556713672	-16000.0	-1344.0	-0.8240343347639485	0.0	15446.0	2471.37451171875	1243.0	0.7434782608695653	0.24242424242424243	-637.0	-0.6666666666666667	-427.0	-11.02186098704856	178.0	0.2789272948173229	68.0	-1.9278042038177277	673.0	
0.7668444942970768	2127.0	10.14472587391288	1237.0	-0.6860650192094664	2010.0	-896.0	0.5493562231759657	9.770692826486817	-15936.0	-1536.0	-0.9417535254445125	0.0	16086.0	2490.90576171875	1239.0	0.7347826086956522	0.2545454545454545	-631.0	-0.6666666666666667	-427.0	-2.110247701019893	159.0	-0.5477824739771264	81.0	-1.7279469526475961	92.0	
0.6349212552113597	2132.0	10.307099653229509	1224.0	-0.746001477662579	2021.0	-704.0	0.4316370324954016	9.888412017167381	-16128.0	-1664.0	-1.020232985898222	0.0	16726.0	2510.43701171875	1240.0	0.7369565217391304	0.24848484848484848	-634.0	-0.6427145708582835	-439.0	3.3462120594797784	167.0	-2.691800595434673	199.0	-1.904184554054874	-265.0	
0.26880017234991077	2125.0	10.361578144222038	1220.0	-0.6647805541836779	2051.0	0.0	0.0	9.927651747394236	-16192.0	-1536.0	-0.9417535254445125	0.0	17366.0	2529.96826171875	1244.0	0.7456521739130435	0.24444444444444444	-636.0	-0.6826347305389222	-419.0	6.528870704771194	143.0	-4.022367171216422	272.0	-1.5709921291009439	-473.0	
0.07336823800853026	2122.0	10.364802332891735	1220.0	-0.6305580533271418	2067.0	256.0	-0.15695892090741875	9.966891477621092	-16256.0	-1536.0	-0.9417535254445125	0.0	18006.0	2549.49951171875	1237.0	0.7304347826086957	0.2545454545454545	-631.0	-0.6746506986027945	-423.0	4.4634408776146595	35.0	-3.4795490611076554	241.0	0.09224772050141995	-337.0	
-0.03708977130594264	2117.0	10.35363587674279	1221.0	-0.5715333341263542	2076.0	448.0	-0.27467811158798283	9.927651747394236	-16192.0	-1344.0	-0.8240343347639485	0.0	18646.0	2569.03076171875	1240.0	0.7369565217391304	0.2545454545454545	-631.0	-0.6526946107784432	-434.0	0.13603484456767415	-122.0	-2.734144774259842	205.0	2.5233544804516614	-53.0	
-0.002090579746858834	2114.0	10.230279453279529	1231.0	-0.536272328132143	2073.0	256.0	-0.15695892090741875	9.809932556713672	-16000.0	-1408.0	-0.8632740649908032	0.0	19286.0	2588.56201171875	1244.0	0.7456521739130435	0.2505050505050505	-633.0	-0.6966067864271458	-412.0	-7.746359158777663	-205.0	-1.8312268470055535	178.0	3.8645358349337844	462.0	
0.5949227267059973	2111.0	10.217499448923787	1231.0	-0.4942854167979188	2024.0	-640.0	0.39239730226854685	9.809932556713672	-16000.0	-1152.0	-0.7063151440833844	0.0	19926.0	2608.09326171875	1240.0	0.7369565217391304	0.2606060606060606	-628.0	-0.6347305389221558	-443.0	-13.919262861610715	-253.0	-1.3408392477121647	172.0	4.656302894775802	865.0	
0.4959364719638416	2108.0	10.109041673697384	1240.0	-0.4602152787843514	2032.0	-576.0	0.3531575720416922	9.809932556713672	-16000.0	-1216.0	-0.745554874310239	0.0	20566.0	2627.62451171875	1239.0	0.7347826086956522	0.25656565656565655	-630.0	-0.6506986027944113	-435.0	-6.43464256126252	-171.0	-0.5974900854592631	91.0	3.3343084027989374	377.0	
0.44631727627223694	2104.0	10.072502068096128	1243.0	-0.41288409571294266	2036.0	-320.0	0.19619865113427343	9.692213366033108	-15808.0	-1152.0	-0.7063151440833844	0.0	21206.0	2647.15576171875	1240.0	0.7369565217391304	0.2585858585858586	-629.0	-0.6666666666666667	-427.0	2.0208371076955776	-69.0	-0.6891556297839312	62.0	1.6984228076302685	-175.0	
0.15493098293638952	2105.0	10.188361960659398	1234.0	-0.42668755249175283	2060.0	0.0	0.0	9.731453096259962	-15872.0	-1152.0	-0.7063151440833844	0.0	21846.0	2666.68701171875	1238.0	0.7326086956521739	0.24646464646464647	-635.0	-0.7025948103792417	-409.0	7.610874507081603	40.0	-0.2173077470582807	9.0	-0.015272243169675346	-540.0	
0.3145168673377092	2110.0	10.235114282412127	1230.0	-0.484865134285634	2047.0	-192.0	0.11771919068056406	9.849172286940528	-16064.0	-1280.0	-0.7847946045370937	0.0	22486.0	2686.21826171875	1246.0	0.75	0.24444444444444444	-636.0	-0.6447105788423154	-438.0	1.47605154572955	133.0	0.08634383284237193	21.0	-1.3683726827576759	-141.0	
0.5710375931634533	2118.0	10.183090191607103	1234.0	-0.5792057101041015	2026.0	-640.0	0.39239730226854685	9.809932556713672	-16000.0	-1408.0	-0.8632740649908032	0.0	23126.0	2705.74951171875	1244.0	0.7456521739130435	0.2505050505050505	-633.0	-0.6666666666666667	-427.0	-4.861278453927711	169.0	0.7592181939766911	7.0	-1.8525278998713695	272.0	
0.7407548943717971	2119.0	10.070169352584944	1243.0	-0.5906859382533239	2012.0	-1088.0	0.6670754138565297	9.574494175352545	-15616.0	-1280.0	-0.7847946045370937	0.0	23766.0	2725.28076171875	1243.0	0.7434782608695653	0.2545454545454545	-631.0	-0.6327345309381238	-444.0	-2.845332260413622	146.0	0.9497435296777447	-16.0	-1.5228774758749513	141.0	
0.5454393138429314	2114.0	10.109487410276639	1240.0	-0.532004949626274	2028.0	-512.0	0.3139178418148375	9.809932556713672	-16000.0	-1408.0	-0.8632740649908032	0.0	24406.0	2744.81201171875	1239.0	0.7347826086956522	0.24444444444444444	-636.0	-0.6746506986027945	-423.0	4.720565333905894	100.0	0.20026971751294437	-3.0	-0.8989166799550287	-352.0	
0.2171187694427837	2116.0	10.17756340754101	1235.0	-0.5587037806398004	2055.0	0.0	0.0	9.770692826486817	-15936.0	-1408.0	-0.8632740649908032	0.0	25046.0	2764.34326171875	1243.0	0.7434782608695653	0.24848484848484848	-634.0	-0.6786427145708583	-421.0	9.521204539387991	65.0	-0.6499001705421646	30.0	-0.4146036803748685	-665.0	
0.31513533565277296	2117.0	10.212402834727213	1232.0	-0.5694234134769228	2047.0	-256.0	0.15695892090741875	9.888412017167381	-16128.0	-1408.0	-0.8632740649908032	0.0	25686.0	2783.87451171875	1245.0	0.7478260869565218	0.2545454545454545	-631.0	-0.6327345309381238	-444.0	3.996747598528488	66.0	-0.5646396774018506	50.0	-0.3745682364415587	-305.0	
0.39926671985782	2116.0	10.10072865418598	1241.0	-0.5576506486692003	2040.0	-320.0	0.19619865113427343	9.770692826486817	-15936.0	-1280.0	-0.7847946045370937	0.0	26326.0	2803.40576171875	1243.0	0.7434782608695653	0.25252525252525254	-632.0	-0.6387225548902197	-441.0	0.7209488723794778	96.0	-0.7831607516834412	81.0	-0.7980840134386238	-92.0	
0.3509792268132756	2114.0	10.174378135645663	1235.0	-0.5333006432428803	2044.0	-192.0	0.11771919068056406	9.770692826486817	-15936.0	-1280.0	-0.7847946045370937	0.0	26966.0	2822.93701171875	1238.0	0.7326086956521739	0.2404040404040404	-638.0	-0.6746506986027945	-423.0	2.1810173659960523	111.0	-0.350918412369576	46.0	-1.040821580504067	-187.0	
0.13154148755771977	2118.0	10.13100282065843	1239.0	-0.5841215448696455	2062.0	64.0	-0.03923973022685469	9.731453096259962	-15872.0	-1408.0	-0.8632740649908032	0.0	27606.0	2842.46826171875	1240.0	0.7369565217391304	0.2606060606060606	-628.0	-0.6367265469061877	-442.0	8.661118162157017	99.0	-0.19454115433735264	5.0	-0.9231130827622547	-609.0	
-0.14898072562308312	2119.0	10.112523785124772	1241.0	-0.5991597501278745	2085.0	576.0	-0.3531575720416922	9.731453096259962	-15872.0	-1536.0	-0.9417535254445125	0.0	28246.0	2861.99951171875	1247.0	0.7521739130434782	0.23636363636363636	-640.0	-0.6686626746506987	-426.0	10.617151840811824	60.0	-0.09953477039503122	-12.0	-0.349517526012681	-736.0	
0.15483621691945676	2117.0	10.032749978228631	1247.0	-0.5728229332292418	2060.0	0.0	0.0	9.652973635806253	-15744.0	-1408.0	-0.8632740649908032	0.0	28886.0	2881.53076171875	1243.0	0.7434782608695653	0.25656565656565655	-630.0	-0.656686626746507	-432.0	1.3829549087221422	-36.0	0.48476229425331563	-12.0	1.2029004889355923	-133.0	
0.49583738838779234	2118.0	9.977333313948371	1251.0	-0.5820152809284453	2032.0	-640.0	0.39239730226854685	9.53525444512569	-15552.0	-1408.0	-0.8632740649908032	0.0	29526.0	2901.06201171875	1242.0	0.741304347826087	0.24444444444444444	-636.0	-0.6866267465069861	-417.0	-3.295087329017368	12.0	1.5142182235782002	-57.0	0.5196428884992992	172.0	
0.5441162463141039	2116.0	9.951491077852195	1253.0	-0.5576945291679754	2028.0	-512.0	0.3139178418148375	9.496014714898834	-15488.0	-1344.0	-0.8240343347639485	0.0	30166.0	2920.59326171875	1240.0	0.7369565217391304	0.24848484848484848	-634.0	-0.6726546906187626	-424.0	5.859759612506755	54.0	1.3823523271866303	-89.0	-0.21068885087791928	-425.0	
0.07937524038450947	2108.0	9.9101789099573	1257.0	-0.46636951873754556	2066.0	256.0	-0.15695892090741875	9.613733905579398	-15680.0	-1088.0	-0.6670754138565297	0.0	30806.0	2940.12451171875	1243.0	0.7434782608695653	0.25252525252525254	-632.0	-0.6766467065868265	-422.0	5.929469151561618	109.0	1.5159081455509207	-96.0	-1.0478878474091524	-430.0	
0.14177846427946764	2107.0	10.067182585609924	1244.0	-0.4521272569709853	2061.0	-64.0	0.03923973022685469	9.613733905579398	-15680.0	-1152.0	-0.7063151440833844	0.0	31446.0	2959.65576171875	1245.0	0.7478260869565218	0.2383838383838384	-639.0	-0.6407185628742516	-440.0	0.21728088779764185	163.0	2.0512756859723913	-103.0	-1.8120587404369122	-58.0	
0.46034039988527614	2114.0	10.135591431436792	1238.0	-0.532594898554249	2035.0	-384.0	0.23543838136112813	9.692213366033108	-15808.0	-1344.0	-0.8240343347639485	0.0	32086.0	2979.18701171875	1243.0	0.7434782608695653	0.24444444444444444	-636.0	-0.6387225548902197	-441.0	0.26622699439160774	286.0	2.6774205729725136	-140.0	-3.683270634962928	-62.0	
0.35038450507335206	2118.0	10.065619658580932	1244.0	-0.5825869463152641	2044.0	-384.0	0.23543838136112813	9.731453096259962	-15872.0	-1280.0	-0.7847946045370937	0.0	32726.0	2998.71826171875	1240.0	0.7369565217391304	0.25656565656565655	-630.0	-0.6506986027944113	-435.0	2.9133500841828748	354.0	2.909362220918965	-165.0	-4.743962398180232	-235.0	
0.2789186364795856	2115.0	10.27361585149241	1227.0	-0.5450770647588341	2050.0	-128.0	0.07847946045370938	9.849172286940528	-16064.0	-1408.0	-0.8632740649908032	0.0	33366.0	3018.24951171875	1244.0	0.7456521739130435	0.24848484848484848	-634.0	-0.6526946107784432	-434.0	0.9094960352923246	390.0	2.5909714834661286	-133.0	-5.2714523748015925	-105.0	
0.36548071835372337	2122.0	10.310132107029055	1224.0	-0.6281836307823165	2043.0	-320.0	0.19619865113427343	9.927651747394236	-16192.0	-1344.0	-0.8240343347639485	0.0	34006.0	3037.78076171875	1245.0	0.7478260869565218	0.24242424242424243	-637.0	-0.6826347305389222	-419.0	-2.6975967679262776	376.0	2.3387554086158278	-100.0	-5.022453690115414	130.0	
0.46313095288970246	2121.0	10.332304417876276	1222.0	-0.6149372125574002	2035.0	-320.0	0.19619865113427343	9.927651747394236	-16192.0	-1472.0	-0.9025137952176578	0.0	34646.0	3057.31201171875	1242.0	0.741304347826087	0.24848484848484848	-634.0	-0.6626746506986029	-429.0	-1.4625865912508302	390.0	1.7365781794009685	-65.0	-5.24773154853616	49.0	
0.22038984915417686	2122.0	10.434989190682352	1214.0	-0.6283859686377791	2055.0	-128.0	0.07847946045370938	10.006131207847945	-16320.0	-1472.0	-0.9025137952176578	0.0	35286.0	3076.84326171875	1243.0	0.7434782608695653	0.24242424242424243	-637.0	-0.6626746506986029	-429.0	0.8494659621320995	406.0	1.4354681245084397	-55.0	-5.514198081674554	-102.0	
0.3916888308710762	2129.0	10.408830686038112	1216.0	-0.7112719132646428	2041.0	-448.0	0.27467811158798283	9.966891477621092	-16256.0	-1600.0	-0.9809932556713672	0.0	35926.0	3096.37451171875	1241.0	0.7391304347826088	0.24646464646464647	-635.0	-0.6846307385229542	-418.0	1.5501032004843198	326.0	1.2180945412132052	-47.0	-4.304474416035261	-147.0	
0.3798550621838653	2127.0	10.469551266094836	1211.0	-0.686686659608779	2042.0	-384.0	0.23543838136112813	10.123850398528509	-16512.0	-1600.0	-0.9809932556713672	0.0	36566.0	3115.90576171875	1241.0	0.7391304347826088	0.2545454545454545	-631.0	-0.6467065868263474	-437.0	5.868298156292944	240.0	0.4604311794545436	-20.0	-3.0396715747188234	-428.0	
0.13481904360778763	2127.0	10.352573169777141	1221.0	-0.6903068007577168	2062.0	64.0	-0.03923973022685469	10.0453709380748	-16384.0	-1600.0	-0.9809932556713672	0.0	37206.0	3135.43701171875	1236.0	0.7282608695652174	0.23636363636363636	-640.0	-0.6966067864271458	-412.0	6.4006936240982695	164.0	0.3621482097023	-19.0	-1.8891019932752033	-462.0	
0.15908346150169106	2128.0	10.327938675387545	1223.0	-0.702358694293758	2060.0	64.0	-0.03923973022685469	9.770692826486817	-15936.0	-1664.0	-1.020232985898222	0.0	37846.0	3154.96826171875	1240.0	0.7369565217391304	0.23434343434343435	-641.0	-0.6766467065868265	-422.0	1.9570656001893842	39.0	0.7153191227749401	-27.0	0.056474971374532015	-171.0	
0.21761224882709973	2121.0	10.166565336197605	1236.0	-0.6190497904148129	2055.0	0.0	0.0	9.731453096259962	-15872.0	-1344.0	-0.8240343347639485	0.0	38486.0	3174.49951171875	1241.0	0.7391304347826088	0.25656565656565655	-630.0	-0.6487025948103793	-436.0	-1.641928799881721	-11.0	0.7254958295955556	-13.0	0.8529211891395017	64.0	
0.2894228612992944	2116.0	10.090754373033874	1242.0	-0.5588488300663067	2049.0	-192.0	0.11771919068056406	9.652973635806253	-15744.0	-1408.0	-0.8632740649908032	0.0	39126.0	3194.03076171875	1244.0	0.7456521739130435	0.2545454545454545	-631.0	-0.6467065868263474	-437.0	-1.69820291824296	-16.0	1.161153291834093	-42.0	0.9295295576995399	68.0	
0.2285970003537754	2121.0	10.044416654440923	1246.0	-0.6201614297171131	2054.0	-192.0	0.11771919068056406	9.692213366033108	-15808.0	-1408.0	-0.8632740649908032	0.0	39766.0	3213.56201171875	1241.0	0.7391304347826088	0.2505050505050505	-633.0	-0.6746506986027945	-423.0	-0.7426815973009957	42.0	0.9050466227773049	-27.0	0.0378450669235803	5.0	
0.19276174431150567	2128.0	10.034634108158965	1247.0	-0.7049549571379456	2057.0	0.0	0.0	9.652973635806253	-15744.0	-1472.0	-0.9025137952176578	0.0	40406.0	3233.09326171875	1240.0	0.7369565217391304	0.24242424242424243	-637.0	-0.6946107784431139	-413.0	-2.1577094873400977	47.0	0.6767393065603128	-5.0	-0.02405028155245454	97.0	
0.38782518819931777	2128.0	10.030694614491164	1247.0	-0.7030437176357456	2041.0	-320.0	0.19619865113427343	9.613733905579398	-15680.0	-1536.0	-0.9417535254445125	0.0	41046.0	3252.62451171875	1243.0	0.7434782608695653	0.24444444444444444	-636.0	-0.6487025948103793	-436.0	-4.272938603353553	-10.0	0.08463477078928008	42.0	0.8640221616989348	235.0	
0.37551089280514005	2127.0	10.030702397846033	1247.0	-0.6911185899850543	2042.0	-384.0	0.23543838136112813	9.613733905579398	-15680.0	-1536.0	-0.9417535254445125	0.0	41686.0	3272.15576171875	1237.0	0.7304347826086957	0.2545454545454545	-631.0	-0.6846307385229542	-418.0	-2.7858943108802645	17.0	0.3273974260052178	20.0	0.4385053309415023	138.0	
0.40049502136971465	2126.0	10.103113004179658	1241.0	-0.678096449864988	2040.0	-256.0	0.15695892090741875	9.770692826486817	-15936.0	-1536.0	-0.9417535254445125	0.0	42326.0	3291.68701171875	1242.0	0.741304347826087	0.2505050505050505	-633.0	-0.6526946107784432	-434.0	-0.37091831501706546	48.0	-0.19663818142065564	45.0	-0.05712731875097003	-20.0	
0.2548137479893611	2132.0	10.095307988086471	1242.0	-0.7519204693862295	2052.0	0.0	0.0	9.692213366033108	-15808.0	-1600.0	-0.9809932556713672	0.0	42966.0	3311.21826171875	1237.0	0.7304347826086957	0.22828282828282828	-644.0	-0.6866267465069861	-417.0	2.3585677289783775	74.0	-0.04095783712967134	23.0	-0.4798594415483389	-198.0	
0.011462811057004571	2130.0	10.172896963213953	1236.0	-0.7294817034621095	2072.0	256.0	-0.15695892090741875	9.770692826486817	-15936.0	-1600.0	-0.9809932556713672	0.0	43606.0	3330.74951171875	1239.0	0.7347826086956522	0.2404040404040404	-638.0	-0.7105788423153694	-405.0	2.5663543893888736	40.0	0.26872338686626684	0.0	0.03517295800725195	-211.0	
0.20677191524719563	2132.0	10.169434339544889	1236.0	-0.751659624199067	2056.0	64.0	-0.03923973022685469	9.770692826486817	-15936.0	-1664.0	-1.020232985898222	0.0	44246.0	3350.28076171875	1245.0	0.7478260869565218	0.25656565656565655	-630.0	-0.6626746506986029	-429.0	-3.908920116360136	-40.0	0.7307033059379892	-4.0	1.316655741087556	212.0	
0.47389379068913956	2130.0	10.078208941371216	1243.0	-0.7258042738842154	2034.0	-512.0	0.3139178418148375	9.731453096259962	-15872.0	-1728.0	-1.0594727161250765	0.0	44886.0	3369.81201171875	1243.0	0.7434782608695653	0.22828282828282828	-644.0	-0.6726546906187626	-424.0	-6.445661850346003	-63.0	1.4779757813630547	-43.0	1.6918330443589733	378.0	
0.3519942497161644	2137.0	9.997008445527452	1250.0	-0.8121726236499731	2044.0	-192.0	0.11771919068056406	9.574494175352545	-15616.0	-1792.0	-1.0987124463519313	0.0	45526.0	3389.34326171875	1241.0	0.7391304347826088	0.26464646464646463	-626.0	-0.6686626746506987	-426.0	-2.825884446228392	-76.0	1.0532129875599354	-32.0	1.8533539014965046	142.0	
0.35126374514770226	2134.0	9.959722401508616	1253.0	-0.7764082108225931	2044.0	-192.0	0.11771919068056406	9.613733905579398	-15680.0	-1792.0	-1.0987124463519313	0.0	46166.0	3408.87451171875	1245.0	0.7478260869565218	0.26262626262626265	-627.0	-0.6427145708582835	-439.0	-3.034403287802041	-138.0	0.7451496965403612	-13.0	2.7984048693799215	156.0	
0.35089525469413385	2131.0	9.959007096510513	1253.0	-0.7402744704638569	2044.0	-192.0	0.11771919068056406	9.574494175352545	-15616.0	-1728.0	-1.0594727161250765	0.0	46806.0	3428.40576171875	1242.0	0.741304347826087	0.2585858585858586	-629.0	-0.6846307385229542	-418.0	-3.481975217914673	-126.0	0.6786535568674558	-6.0	2.620371082977626	185.0	
0.39977746947860177	2129.0	9.994116092115561	1250.0	-0.715338172817793	2040.0	-384.0	0.23543838136112813	9.652973635806253	-15744.0	-1600.0	-0.9809932556713672	0.0	47446.0	3447.93701171875	1239.0	0.7347826086956522	0.26666666666666666	-625.0	-0.6646706586826349	-428.0	-3.1879514148204846	-107.0	1.2094785704658506	-42.0	2.3284574609162663	166.0	
0.37502173097994035	2124.0	10.017796846507686	1248.0	-0.6551079588034368	2042.0	-320.0	0.19619865113427343	9.652973635806253	-15744.0	-1472.0	-0.9025137952176578	0.0	48086.0	3467.46826171875	1247.0	0.7521739130434782	0.2545454545454545	-631.0	-0.656686626746507	-432.0	1.0618006537078981	-92.0	1.2826413917364687	-66.0	2.0578230581017043	-111.0	
0.07012306365183554	2128.0	9.963954813659873	1253.0	-0.7068881368895333	2067.0	128.0	-0.07847946045370938	9.652973635806253	-15744.0	-1664.0	-1.020232985898222	0.0	48726.0	3486.99951171875	1244.0	0.7456521739130435	0.24444444444444444	-636.0	-0.6846307385229542	-418.0	4.086150620793123	-62.0	1.82503026825585	-115.0	1.571305794172297	-308.0	
0.2896814742790226	2124.0	10.019520374987348	1248.0	-0.6559441260856493	2049.0	-128.0	0.07847946045370938	9.574494175352545	-15616.0	-1600.0	-0.9809932556713672	0.0	49366.0	3506.53076171875	1242.0	0.741304347826087	0.26666666666666666	-625.0	-0.6387225548902197	-441.0	-3.1766328468014633	-62.0	1.490939787705381	-59.0	1.6439336288482427	165.0	
0.44804769228668045	2123.0	10.016081101382893	1248.0	-0.642346663870533	2036.0	-448.0	0.27467811158798283	9.692213366033108	-15808.0	-1472.0	-0.9025137952176578	0.0	50006.0	3526.06201171875	1237.0	0.7304347826086957	0.2585858585858586	-629.0	-0.6866267465069861	-417.0	-7.191792895181749	-66.0	2.022834030714744	-76.0	1.7449217312331864	427.0	
0.6544535842569457	2121.0	9.950467287660897	1253.0	-0.6168423575458816	2019.0	-768.0	0.47087676272225626	9.574494175352545	-15616.0	-1408.0	-0.8632740649908032	0.0	50646.0	3545.59326171875	1242.0	0.741304347826087	0.25252525252525254	-632.0	-0.6666666666666667	-427.0	-5.113110300920336	-117.0	1.9220936249251979	-81.0	2.4998003045301163	292.0	
0.7652671313476377	2123.0	10.034059916853208	1246.0	-0.6389946813252202	2010.0	-960.0	0.5885959534028203	9.652973635806253	-15744.0	-1408.0	-0.8632740649908032	0.0	51286.0	3565.12451171875	1242.0	0.741304347826087	0.26262626262626265	-627.0	-0.6347305389221558	-443.0	2.4593748339331727	-164.0	1.8162306160896353	-111.0	3.1389043505199843	-201.0	
-0.06388828800410251	2116.0	10.122275197987252	1240.0	-0.5620667333098068	2078.0	256.0	-0.15695892090741875	9.692213366033108	-15808.0	-1408.0	-0.8632740649908032	0.0	51926.0	3584.65576171875	1246.0	0.75	0.26262626262626265	-627.0	-0.6367265469061877	-442.0	12.023112421604653	-113.0	1.271576118446038	-117.0	2.267601575403725	-825.0	
-0.08779932690134504	2111.0	10.231287676761088	1231.0	-0.5009747550556192	2080.0	448.0	-0.27467811158798283	9.809932556713672	-16000.0	-1216.0	-0.745554874310239	0.0	52566.0	3604.18701171875	1244.0	0.7456521739130435	0.2505050505050505	-633.0	-0.6686626746506987	-426.0	2.9133579027347385	-98.0	0.6403776896538504	-32.0	2.130562238463147	-232.0	
0.47143502888579203	2109.0	10.085392052724737	1242.0	-0.4727449821959427	2034.0	-576.0	0.3531575720416922	9.731453096259962	-15872.0	-1216.0	-0.745554874310239	0.0	53206.0	3623.71826171875	1243.0	0.7434782608695653	0.26464646464646463	-626.0	-0.6447105788423154	-438.0	-14.00813135955064	-98.0	1.338353222368883	0.0	2.299777131086001	871.0	
0.4229169869957762	2112.0	10.074901984799546	1243.0	-0.5094796416073477	2038.0	-448.0	0.27467811158798283	9.652973635806253	-15744.0	-1280.0	-0.7847946045370937	0.0	53846.0	3643.24951171875	1249.0	0.7565217391304347	0.2545454545454545	-631.0	-0.660678642714571	-430.0	-11.091042436022926	-43.0	2.2782291866983004	-74.0	1.4341043407100391	681.0	
0.43682159801674225	2123.0	10.113849290459088	1240.0	-0.6414812429224704	2037.0	-384.0	0.23543838136112813	9.770692826486817	-15936.0	-1472.0	-0.9025137952176578	0.0	54486.0	3662.78076171875	1245.0	0.7478260869565218	0.26262626262626265	-627.0	-0.6666666666666667	-427.0	-2.8059850811017064	80.0	2.346133234562972	-112.0	-0.5194686662992491	140.0	
0.41365185758575296	2126.0	10.200388756547378	1233.0	-0.6769921239791504	2039.0	-448.0	0.27467811158798283	9.809932556713672	-16000.0	-1600.0	-0.9809932556713672	0.0	55126.0	3682.31201171875	1242.0	0.741304347826087	0.25252525252525254	-632.0	-0.6786427145708583	-421.0	1.7745009844992052	149.0	2.5490687106489656	-144.0	-1.6147031847499351	-159.0	
0.2930602726846978	2124.0	10.360847272514194	1220.0	-0.6524970691263241	2049.0	-192.0	0.11771919068056406	9.849172286940528	-16064.0	-1472.0	-0.9025137952176578	0.0	55766.0	3701.84326171875	1245.0	0.7478260869565218	0.26262626262626265	-627.0	-0.6526946107784432	-434.0	2.6004236086424783	204.0	1.5655243321741616	-80.0	-2.4594643121320523	-214.0	
0.3423217718205251	2130.0	10.336912516412962	1222.0	-0.7245329583224842	2045.0	-256.0	0.15695892090741875	9.888412017167381	-16128.0	-1728.0	-1.0594727161250765	0.0	56406.0	3721.37451171875	1240.0	0.7369565217391304	0.27070707070707073	-623.0	-0.6646706586826349	-428.0	0.015565678366567927	241.0	1.4830823786103942	-61.0	-2.9963533754148446	-46.0	
0.4396251036985179	2136.0	10.238851408853314	1230.0	-0.7968296927058067	2037.0	-384.0	0.23543838136112813	9.809932556713672	-16000.0	-1792.0	-1.0987124463519313	0.0	57046.0	3740.90576171875	1238.0	0.7326086956521739	0.26464646464646463	-626.0	-0.6886227544910181	-416.0	-3.3913474544659112	278.0	2.072548120817727	-83.0	-3.5250218866720715	176.0	
0.38988091907616557	2130.0	10.214025179593568	1232.0	-0.7252862402181217	2041.0	-384.0	0.23543838136112813	9.770692826486817	-15936.0	-1664.0	-1.020232985898222	0.0	57686.0	3760.43701171875	1245.0	0.7478260869565218	0.26666666666666666	-625.0	-0.6347305389221558	-443.0	-3.1645335925541285	292.0	1.9453389563098193	-75.0	-3.740217781945182	161.0	
0.524465404676445	2128.0	10.283981385739686	1226.0	-0.699144447758489	2030.0	-576.0	0.3531575720416922	9.809932556713672	-16000.0	-1536.0	-0.9417535254445125	0.0	58326.0	3779.96826171875	1238.0	0.7326086956521739	0.2767676767676768	-620.0	-0.6626746506986029	-429.0	-1.284157565407238	171.0	0.9012724076249632	-19.0	-1.9187173597071445	39.0	
0.4132898434708592	2126.0	10.163818017526644	1236.0	-0.6773614515105066	2039.0	-320.0	0.19619865113427343	9.770692826486817	-15936.0	-1664.0	-1.020232985898222	0.0	58966.0	3799.49951171875	1241.0	0.7391304347826088	0.25252525252525254	-632.0	-0.660678642714571	-430.0	0.9109477116307335	101.0	1.410555205174241	-66.0	-0.8760296292075621	-103.0	
0.20531090611027128	2126.0	10.094862251507214	1242.0	-0.6801307985443069	2056.0	-128.0	0.07847946045370938	9.692213366033108	-15808.0	-1536.0	-0.9417535254445125	0.0	59606.0	3819.03076171875	1245.0	0.7478260869565218	0.26464646464646463	-626.0	-0.6726546906187626	-424.0	-3.20895195857885	39.0	1.3297465085833502	-44.0	0.10813514696221435	166.0	
0.5938625897160145	2123.0	9.964365495771064	1252.0	-0.6414056709523579	2024.0	-512.0	0.3139178418148375	9.53525444512569	-15552.0	-1536.0	-0.9417535254445125	0.0	60246.0	3838.56201171875	1238.0	0.7326086956521739	0.2727272727272727	-622.0	-0.6746506986027945	-423.0	-6.256902649011358	-21.0	1.0406143593048642	-13.0	1.0511621823836497	365.0	
0.6440808247066591	2125.0	10.085759955755297	1242.0	-0.6637859295447779	2020.0	-832.0	0.510116492949111	9.731453096259962	-15872.0	-1536.0	-0.9417535254445125	0.0	60886.0	3858.09326171875	1247.0	0.7521739130434782	0.2686868686868687	-624.0	-0.6387225548902197	-441.0	-2.254474173335546	-2.0	0.9984918289809336	-28.0	0.7221645135964733	104.0	
0.6189803423295696	2128.0	9.977255480399673	1251.0	-0.7012665574353579	2022.0	-704.0	0.4316370324954016	9.45677498467198	-15424.0	-1536.0	-0.9417535254445125	0.0	61526.0	3877.62451171875	1243.0	0.7434782608695653	0.26666666666666666	-625.0	-0.6407185628742516	-440.0	1.4283499243234659	-2.0	0.9370698205095034	-41.0	0.6853362726198832	-136.0	
0.41232231371825095	2125.0	10.078247858145565	1243.0	-0.6661786356307592	2039.0	-448.0	0.27467811158798283	9.652973635806253	-15744.0	-1472.0	-0.9025137952176578	0.0	62166.0	3897.15576171875	1241.0	0.7391304347826088	0.2727272727272727	-622.0	-0.6546906187624751	-433.0	0.9142544529148285	-11.0	0.037840347764633964	21.0	0.8273593566115361	-103.0	
0.42463876789198685	2127.0	10.066288263449817	1244.0	-0.6902714525781479	2038.0	-384.0	0.23543838136112813	9.652973635806253	-15744.0	-1536.0	-0.9417535254445125	0.0	62806.0	3916.68701171875	1240.0	0.7369565217391304	0.2686868686868687	-624.0	-0.6626746506986029	-429.0	-5.956991367842485	-5.0	0.5796992619959153	17.0	0.8048170619673983	345.0	
0.7177123016511138	2125.0	10.13304363099085	1238.0	-0.6625767780229778	2014.0	-896.0	0.5493562231759657	9.652973635806253	-15744.0	-1664.0	-1.020232985898222	0.0	63446.0	3936.21826171875	1244.0	0.7456521739130435	0.2767676767676768	-620.0	-0.6746506986027945	-423.0	-5.727390039425471	56.0	-0.08882589671600616	63.0	-0.12523560530916739	329.0	
0.5471546184004674	2126.0	10.136729122949543	1238.0	-0.6762936927069816	2028.0	-512.0	0.3139178418148375	9.731453096259962	-15872.0	-1536.0	-0.9417535254445125	0.0	64086.0	3955.74951171875	1242.0	0.741304347826087	0.26464646464646463	-626.0	-0.7085828343313374	-406.0	-2.031066959044733	146.0	-0.5012321838732421	77.0	-1.5310201288886403	87.0	
0.5109422367863965	2126.0	10.174038517032988	1235.0	-0.6762827225822879	2031.0	-640.0	0.39239730226854685	9.809932556713672	-16000.0	-1472.0	-0.9025137952176578	0.0	64726.0	3975.28076171875	1241.0	0.7391304347826088	0.2909090909090909	-613.0	-0.6407185628742516	-440.0	-2.815149830471011	159.0	-0.4387512707748248	77.0	-1.720897931353085	138.0	
0.5483764435736875	2133.0	10.17496890696585	1235.0	-0.7602364260126767	2028.0	-576.0	0.3531575720416922	9.809932556713672	-16000.0	-1728.0	-1.0594727161250765	0.0	65366.0	3994.81201171875	1242.0	0.741304347826087	0.2727272727272727	-622.0	-0.6786427145708583	-421.0	-2.041878456672142	154.0	0.07410235894250244	39.0	-1.6525850177146475	88.0	
0.5489776416522856	2132.0	10.247871950007948	1229.0	-0.7474531908303854	2028.0	-576.0	0.3531575720416922	9.849172286940528	-16064.0	-1664.0	-1.020232985898222	0.0	470.0	4014.34326171875	1241.0	0.7391304347826088	0.296969696969697	-610.0	-0.6666666666666667	-427.0	-1.013385907575145	158.0	0.1548777750826564	29.0	-1.723706445106758	21.0	
0.5736083912201992	2135.0	10.235904571957334	1230.0	-0.7834711354284654	2026.0	-576.0	0.3531575720416922	9.849172286940528	-16064.0	-1792.0	-1.0987124463519313	0.0	1110.0	4033.87451171875	1245.0	0.7478260869565218	0.28484848484848485	-616.0	-0.656686626746507	-432.0	-1.8911307296390092	173.0	0.09016175625033905	38.0	-1.943065879015397	78.0	
0.6349298903295926	2136.0	10.259292407866	1228.0	-0.7946722348493691	2021.0	-832.0	0.510116492949111	9.809932556713672	-16000.0	-1792.0	-1.0987124463519313	0.0	1750.0	4053.40576171875	1237.0	0.7304347826086957	0.27070707070707073	-623.0	-0.6686626746506987	-426.0	-1.9237716195872752	106.0	0.4114931958719966	14.0	-0.9237280632718079	81.0	
0.5250946668892997	2140.0	10.201510881350389	1233.0	-0.8445411734332655	2030.0	-576.0	0.3531575720416922	9.770692826486817	-15936.0	-1856.0	-1.137952176578786	0.0	2390.0	4072.93701171875	1239.0	0.7347826086956522	0.28888888888888886	-614.0	-0.6307385229540919	-445.0	-2.0968305325958863	42.0	0.5495202762300512	3.0	0.0513865562765292	93.0	
0.6342015445406886	2134.0	10.21005455250629	1232.0	-0.7710755113186866	2021.0	-768.0	0.47087676272225626	9.809932556713672	-16000.0	-1728.0	-1.0594727161250765	0.0	3030.0	4092.46826171875	1242.0	0.741304347826087	0.296969696969697	-610.0	-0.6367265469061877	-442.0	-3.280560939383735	-42.0	0.6107902584417793	1.0	1.3407904002683622	171.0	
0.5000975856473759	2135.0	10.200811143062024	1233.0	-0.7845571777731467	2032.0	-448.0	0.27467811158798283	9.731453096259962	-15872.0	-1856.0	-1.137952176578786	0.0	3670.0	4111.99951171875	1240.0	0.7369565217391304	0.2909090909090909	-613.0	-0.6826347305389222	-419.0	-2.616882749258692	-82.0	0.37534611441923454	12.0	1.9425186373785184	128.0	
0.49924856848684074	2133.0	10.139383041362066	1238.0	-0.7610835634195829	2032.0	-512.0	0.3139178418148375	9.770692826486817	-15936.0	-1664.0	-1.020232985898222	0.0	4310.0	4131.53076171875	1239.0	0.7347826086956522	0.2808080808080808	-618.0	-0.6526946107784432	-434.0	-5.181458911941045	-145.0	0.8003711903586005	-7.0	2.9263393039483083	296.0	
0.5835071004021937	2135.0	10.00404367313845	1249.0	-0.7856907573248342	2025.0	-640.0	0.39239730226854685	9.53525444512569	-15552.0	-1728.0	-1.0594727161250765	0.0	4950.0	4151.06201171875	1239.0	0.7347826086956522	0.2767676767676768	-620.0	-0.6926147704590819	-414.0	-5.084224979409211	-215.0	1.7855009159442758	-76.0	3.990005747892952	291.0	
0.730043867281757	2134.0	10.037421356908965	1246.0	-0.7718434200472492	2013.0	-960.0	0.5885959534028203	9.652973635806253	-15744.0	-1728.0	-1.0594727161250765	0.0	5590.0	4170.59326171875	1240.0	0.7369565217391304	0.2868686868686869	-615.0	-0.6726546906187626	-424.0	-3.813274013468254	-257.0	2.3911315778263513	-124.0	4.6160795081955195	209.0	
0.8396507006561365	2136.0	9.99911152269883	1249.0	-0.7952268355977754	2004.0	-1216.0	0.745554874310239	9.613733905579398	-15680.0	-1728.0	-1.0594727161250765	0.0	6230.0	4190.12451171875	1241.0	0.7391304347826088	0.298989898989899	-609.0	-0.6467065868263474	-437.0	1.1611800296629016	-250.0	2.6788532889787917	-166.0	4.459871089437212	-115.0	
0.5220584535824945	2131.0	10.004321024912166	1249.0	-0.7381096991909568	2030.0	-512.0	0.3139178418148375	9.574494175352545	-15616.0	-1664.0	-1.020232985898222	0.0	6870.0	4209.65576171875	1243.0	0.7434782608695653	0.28484848484848485	-616.0	-0.660678642714571	-430.0	6.422408354324736	-177.0	1.9522848427707606	-139.0	3.296992646494776	-459.0	
0.42391473966219934	2127.0	9.99314678540835	1250.0	-0.6910101076408605	2038.0	-384.0	0.23543838136112813	9.574494175352545	-15616.0	-1600.0	-0.9809932556713672	0.0	7510.0	4229.18701171875	1243.0	0.7434782608695653	0.28484848484848485	-616.0	-0.6686626746506987	-426.0	2.660146831807484	-91.0	1.5168324489666456	-89.0	2.026630470845423	-215.0	
0.6073879163856213	2126.0	10.062356553136887	1244.0	-0.6764350854252565	2023.0	-576.0	0.3531575720416922	9.692213366033108	-15808.0	-1536.0	-0.9417535254445125	0.0	8150.0	4248.71826171875	1238.0	0.7326086956521739	0.28888888888888886	-614.0	-0.6746506986027945	-423.0	-1.4923413089680826	-6.0	1.9475116726693502	-95.0	0.7753796868539394	55.0	
0.4968178708177499	2125.0	9.991192605284189	1250.0	-0.6662042325883779	2032.0	-512.0	0.3139178418148375	9.574494175352545	-15616.0	-1536.0	-0.9417535254445125	0.0	8790.0	4268.24951171875	1243.0	0.7434782608695653	0.2828282828282828	-617.0	-0.6407185628742516	-440.0	0.559032179258073	123.0	1.8532301578450292	-93.0	-1.2071112343401094	-80.0	
0.46071968423663556	2122.0	10.07654767973051	1243.0	-0.6295670853964729	2035.0	-384.0	0.23543838136112813	9.652973635806253	-15744.0	-1408.0	-0.8632740649908032	0.0	9430.0	4287.78076171875	1239.0	0.7347826086956522	0.298989898989899	-609.0	-0.6646706586826349	-428.0	2.2358793375519483	229.0	2.3257459188273923	-128.0	-2.8360470063032763	-190.0	
0.4490195395984052	2126.0	10.077747638082219	1243.0	-0.6778648583436754	2036.0	-320.0	0.19619865113427343	9.652973635806253	-15744.0	-1664.0	-1.020232985898222	0.0	10070.0	4307.31201171875	1243.0	0.7434782608695653	0.2727272727272727	-622.0	-0.6986027944111778	-411.0	3.312975324170427	345.0	2.8310955078003515	-162.0	-4.611076521302541	-261.0	
0.4625513426066865	2132.0	10.139883261425412	1238.0	-0.7493973407066667	2035.0	-384.0	0.23543838136112813	9.692213366033108	-15808.0	-1536.0	-0.9417535254445125	0.0	10710.0	4326.84326171875	1240.0	0.7369565217391304	0.2767676767676768	-620.0	-0.6626746506986029	-429.0	3.770315816517355	403.0	3.404264923064452	-200.0	-5.49777920379255	-291.0	
0.5968944854637034	2130.0	10.185458974891041	1234.0	-0.7235017666012716	2024.0	-576.0	0.3531575720416922	9.849172286940528	-16064.0	-1536.0	-0.9417535254445125	0.0	11350.0	4346.37451171875	1236.0	0.7282608695652174	0.2828282828282828	-617.0	-0.6706586826347306	-425.0	4.897359106950565	391.0	3.8882374722509496	-238.0	-5.32654013099346	-364.0	
0.4626806490965506	2136.0	10.104266262402149	1241.0	-0.7979449887163381	2035.0	-384.0	0.23543838136112813	9.731453096259962	-15872.0	-1792.0	-1.0987124463519313	0.0	11990.0	4365.90576171875	1242.0	0.741304347826087	0.29292929292929293	-612.0	-0.6387225548902197	-441.0	5.799488910176165	415.0	3.915012517143351	-243.0	-5.700580440432561	-423.0	
0.6822476948419705	2136.0	10.112024578366118	1240.0	-0.7956717350992442	2017.0	-768.0	0.47087676272225626	9.809932556713672	-16000.0	-1792.0	-1.0987124463519313	0.0	12630.0	4385.43701171875	1246.0	0.75	0.27474747474747474	-621.0	-0.6626746506986029	-429.0	1.361101107626783	313.0	3.6071484375809653	-206.0	-4.104865763927979	-133.0	
0.7062707699926114	2137.0	10.063009591296032	1244.0	-0.8079698469895229	2015.0	-896.0	0.5493562231759657	9.652973635806253	-15744.0	-1728.0	-1.0594727161250765	0.0	13270.0	4404.96826171875	1237.0	0.7304347826086957	0.2868686868686869	-615.0	-0.6786427145708583	-421.0	-0.7241079313543645	180.0	3.326538852958639	-183.0	-2.0611999853252394	4.0	
0.6205469113812176	2127.0	10.14768049416373	1237.0	-0.6874984488361165	2022.0	-768.0	0.47087676272225626	9.731453096259962	-15872.0	-1600.0	-0.9809932556713672	0.0	13910.0	4424.49951171875	1243.0	0.7434782608695653	0.27474747474747474	-621.0	-0.6546906187624751	-433.0	-0.5202865504586244	66.0	3.55784185139164	-204.0	-0.32939789495168753	-8.0	
0.7419875134428081	2131.0	10.048650079896868	1245.0	-0.7354671180425066	2012.0	-1024.0	0.627835683629675	9.731453096259962	-15872.0	-1600.0	-0.9809932556713672	0.0	14550.0	4444.03076171875	1243.0	0.7434782608695653	0.27070707070707073	-623.0	-0.6506986027944113	-435.0	-0.30679744661961394	20.0	2.720395520239246	-151.0	0.3680869858730403	-22.0	
0.5833648412349802	2125.0	10.111371540206973	1240.0	-0.6641369735349778	2025.0	-704.0	0.4316370324954016	9.652973635806253	-15744.0	-1472.0	-0.9025137952176578	0.0	15190.0	4463.56201171875	1241.0	0.7391304347826088	0.29494949494949496	-611.0	-0.660678642714571	-430.0	2.767444895053351	-30.0	2.431032491063859	-148.0	1.0978008362205693	-222.0	
0.4735188238968965	2124.0	10.113349070395742	1240.0	-0.6531674656353866	2034.0	-448.0	0.27467811158798283	9.692213366033108	-15808.0	-1536.0	-0.9417535254445125	0.0	15830.0	4483.09326171875	1240.0	0.7369565217391304	0.27070707070707073	-623.0	-0.6986027944111778	-411.0	4.650824737888619	-87.0	1.1258421630613031	-72.0	1.9458871898834713	-345.0	
0.46072400179575196	2124.0	10.052644057048758	1245.0	-0.653902463989868	2035.0	-448.0	0.27467811158798283	9.574494175352545	-15616.0	-1472.0	-0.9025137952176578	0.0	16470.0	4502.62451171875	1245.0	0.7478260869565218	0.2686868686868687	-624.0	-0.6706586826347306	-425.0	1.2560764596580207	-157.0	1.3045385881472285	-71.0	3.0444734559357394	-123.0	
0.5826321778869599	2121.0	10.086037307529013	1242.0	-0.6162048714109003	2025.0	-640.0	0.39239730226854685	9.652973635806253	-15744.0	-1408.0	-0.8632740649908032	0.0	17110.0	4522.15576171875	1239.0	0.7347826086956522	0.28484848484848485	-616.0	-0.6706586826347306	-425.0	-0.8451767272503593	-179.0	1.10756669707903	-49.0	3.400086748261097	14.0	
0.5699709798347958	2127.0	9.965811672477011	1252.0	-0.689822896368448	2026.0	-640.0	0.39239730226854685	9.613733905579398	-15680.0	-1472.0	-0.9025137952176578	0.0	17750.0	4541.68701171875	1240.0	0.7369565217391304	0.2686868686868687	-624.0	-0.6726546906187626	-424.0	1.2906569962689627	-92.0	1.1467729603092112	-58.0	2.0555344946760936	-126.0	
0.5578958684043225	2125.0	10.002151759853247	1249.0	-0.6654838610668217	2027.0	-448.0	0.27467811158798283	9.613733905579398	-15680.0	-1536.0	-0.9417535254445125	0.0	18390.0	4561.21826171875	1248.0	0.7543478260869565	0.26666666666666666	-625.0	-0.6786427145708583	-421.0	2.311568164727182	-73.0	0.6974713808944616	-32.0	1.7563519989610932	-193.0	
0.4610968098084368	2129.0	10.029455739365106	1247.0	-0.7143715829419993	2035.0	-448.0	0.27467811158798283	9.652973635806253	-15744.0	-1664.0	-1.020232985898222	0.0	19030.0	4580.74951171875	1242.0	0.741304347826087	0.28484848484848485	-616.0	-0.6646706586826349	-428.0	5.349253774956435	-33.0	-0.3441896504602166	25.0	1.1176101238473939	-392.0	
0.3019914521140839	2123.0	10.043416214314233	1246.0	-0.6435338751429456	2048.0	-192.0	0.11771919068056406	9.613733905579398	-15680.0	-1472.0	-0.9025137952176578	0.0	19670.0	4600.28076171875	1245.0	0.7478260869565218	0.2787878787878788	-619.0	-0.6427145708582835	-439.0	6.789648743310694	-16.0	-0.31415890494947163	17.0	0.8446510410840035	-486.0	
0.4120788121954302	2124.0	10.065819176805952	1244.0	-0.6542571646882992	2039.0	-320.0	0.19619865113427343	9.731453096259962	-15872.0	-1536.0	-0.9417535254445125	0.0	20310.0	4619.81201171875	1242.0	0.741304347826087	0.26262626262626265	-627.0	-0.6886227544910181	-416.0	1.4789314225860155	3.0	-0.06790657779895062	26.0	0.6087848302608319	-140.0	
0.6553112365357137	2127.0	9.964088143997348	1252.0	-0.6889867290862354	2019.0	-768.0	0.47087676272225626	9.574494175352545	-15616.0	-1472.0	-0.9025137952176578	0.0	20950.0	4639.34326171875	1244.0	0.7456521739130435	0.27474747474747474	-621.0	-0.6407185628742516	-440.0	0.4670904159497616	191.0	-0.16796739137731564	45.0	-2.240412349026418	-76.0	
0.5580294924533029	2131.0	9.942631138148231	1254.0	-0.738366887669888	2027.0	-704.0	0.4316370324954016	9.574494175352545	-15616.0	-1664.0	-1.020232985898222	0.0	21590.0	4658.87451171875	1242.0	0.741304347826087	0.2828282828282828	-617.0	-0.6387225548902197	-441.0	5.5842144162935945	220.0	-0.6264166662349232	53.0	-2.732648227813126	-410.0	
0.45013580485690136	2140.0	10.020134496372146	1248.0	-0.8471045259033719	2036.0	-448.0	0.27467811158798283	9.613733905579398	-15680.0	-1920.0	-1.1771919068056407	0.0	22230.0	4678.40576171875	1242.0	0.741304347826087	0.27474747474747474	-621.0	-0.6786427145708583	-421.0	5.0592017606952515	192.0	-1.3715276970920207	104.0	-2.3015425879491582	-376.0	
0.4870722147007599	2140.0	10.055966580330166	1245.0	-0.8463768409653531	2033.0	-448.0	0.27467811158798283	9.574494175352545	-15616.0	-1792.0	-1.0987124463519313	0.0	22870.0	4697.93701171875	1244.0	0.7456521739130435	0.2727272727272727	-622.0	-0.6407185628742516	-440.0	4.185309893478317	158.0	-1.7961568499720137	135.0	-1.7756934031172928	-319.0	
0.5224377379338538	2139.0	9.945277273205885	1254.0	-0.8350818860331807	2030.0	-512.0	0.3139178418148375	9.45677498467198	-15424.0	-1920.0	-1.1771919068056407	0.0	23510.0	4717.46826171875	1247.0	0.7521739130434782	0.2727272727272727	-622.0	-0.6427145708582835	-439.0	6.200862531797334	111.0	-2.0100099807369314	138.0	-1.0810200321620798	-450.0	
0.3879652885869729	2137.0	9.935318558763518	1255.0	-0.8124298121289045	2041.0	-320.0	0.19619865113427343	9.496014714898834	-15488.0	-1856.0	-1.137952176578786	0.0	24150.0	4736.99951171875	1242.0	0.741304347826087	0.2686868686868687	-624.0	-0.6786427145708583	-421.0	8.098304547501643	49.0	-1.9848880274830214	125.0	-0.15702867285144229	-573.0	
0.35126158636814403	2133.0	9.971674212849493	1252.0	-0.7642405215258956	2044.0	-448.0	0.27467811158798283	9.53525444512569	-15552.0	-1664.0	-1.020232985898222	0.0	24790.0	4756.53076171875	1246.0	0.75	0.2686868686868687	-624.0	-0.6367265469061877	-442.0	5.674069183278625	-75.0	-2.266411102193662	150.0	1.7531452397261493	-414.0	
0.18022121763097287	2134.0	9.926598719447208	1256.0	-0.7784498729183746	2058.0	64.0	-0.03923973022685469	9.53525444512569	-15552.0	-1856.0	-1.137952176578786	0.0	25430.0	4776.06201171875	1245.0	0.7478260869565218	0.2585858585858586	-629.0	-0.6646706586826349	-428.0	3.47729685730411	-196.0	-1.242600179474282	87.0	3.6154171454954	-269.0	
0.14363602800421707	2129.0	9.987096431214304	1251.0	-0.7179697838415494	2061.0	64.0	-0.03923973022685469	9.53525444512569	-15552.0	-1536.0	-0.9417535254445125	0.0	26070.0	4795.59326171875	1247.0	0.7521739130434782	0.26666666666666666	-625.0	-0.6726546906187626	-424.0	-2.770508701183693	-286.0	-1.2073333505214539	110.0	5.046716493855944	139.0	
0.3380982738134311	2130.0	9.910253894504404	1257.0	-0.7288417795216406	2045.0	-320.0	0.19619865113427343	9.496014714898834	-15488.0	-1536.0	-0.9417535254445125	0.0	26710.0	4815.12451171875	1247.0	0.7521739130434782	0.2767676767676768	-620.0	-0.6307385229540919	-445.0	-5.514772584062731	-346.0	-0.28821679425933466	59.0	5.986706661201844	319.0	
0.34932005052425286	2128.0	9.836389328109965	1263.0	-0.7053718218763081	2044.0	-128.0	0.07847946045370938	9.417535254445125	-15360.0	-1472.0	-0.9025137952176578	0.0	27350.0	4834.65576171875	1246.0	0.75	0.26464646464646463	-626.0	-0.6467065868263474	-437.0	-4.4936919094395495	-384.0	-0.05256679747677097	37.0	6.554442622516449	253.0	
0.4708597361618924	2122.0	9.869067273592117	1260.0	-0.6315404889386043	2034.0	-512.0	0.3139178418148375	9.417535254445125	-15360.0	-1600.0	-0.9809932556713672	0.0	27990.0	4854.18701171875	1245.0	0.7478260869565218	0.28484848484848485	-616.0	-0.6506986027944113	-435.0	-2.1426652274000166	-429.0	-0.4534697328759989	51.0	7.215343002083887	100.0	
0.37440973900355123	2120.0	10.004652860169971	1249.0	-0.6070527475022405	2042.0	-256.0	0.15695892090741875	9.613733905579398	-15680.0	-1472.0	-0.9025137952176578	0.0	28630.0	4873.71826171875	1246.0	0.75	0.26464646464646463	-626.0	-0.6407185628742516	-440.0	-0.0023363971644215567	-318.0	-1.1346082522751675	91.0	5.505726786024877	-41.0	
0.1319142955704046	2123.0	10.107814502974781	1241.0	-0.6445906638217769	2062.0	128.0	-0.07847946045370938	9.770692826486817	-15936.0	-1408.0	-0.8632740649908032	0.0	29270.0	4893.24951171875	1245.0	0.7478260869565218	0.26464646464646463	-626.0	-0.6546906187624751	-433.0	-2.5614425843057798	-199.0	-0.46430891944024544	63.0	3.7214319163373544	125.0	
0.26650525750935866	2124.0	10.141915275098269	1238.0	-0.6549519392522367	2051.0	-64.0	0.03923973022685469	9.731453096259962	-15872.0	-1536.0	-0.9417535254445125	0.0	29910.0	4912.78076171875	1245.0	0.7478260869565218	0.2828282828282828	-617.0	-0.656686626746507	-432.0	-10.697150750139542	-139.0	0.3033558112718542	52.0	2.890241469478582	655.0	
0.46181867925866615	2128.0	10.11454902874745	1240.0	-0.7014652385825892	2035.0	-512.0	0.3139178418148375	9.652973635806253	-15744.0	-1536.0	-0.9417535254445125	0.0	30550.0	4932.31201171875	1242.0	0.741304347826087	0.2828282828282828	-617.0	-0.6746506986027945	-423.0	-11.743602546182283	-62.0	-0.34158472841411547	103.0	1.7296033258420511	722.0	
0.5482471370838234	2129.0	10.210585905989113	1232.0	-0.7116887780030053	2028.0	-576.0	0.3531575720416922	9.770692826486817	-15936.0	-1536.0	-0.9417535254445125	0.0	31190.0	4951.84326171875	1250.0	0.7586956521739131	0.2828282828282828	-617.0	-0.6506986027944113	-435.0	-8.20260947626907	1.0	0.18492183377581434	54.0	0.7360184901999531	491.0	
0.5744444557033852	2131.0	10.36904354170255	1219.0	-0.733938614001844	2026.0	-640.0	0.39239730226854685	10.006131207847945	-16320.0	-1600.0	-0.9809932556713672	0.0	31830.0	4971.37451171875	1249.0	0.7565217391304347	0.29292929292929293	-612.0	-0.6646706586826349	-428.0	-4.242099168439975	-6.0	0.1598843249359705	37.0	0.8028772654486585	233.0	
0.4521656303790507	2130.0	10.34688679756507	1221.0	-0.7233347769253778	2036.0	-576.0	0.3531575720416922	9.966891477621092	-16256.0	-1536.0	-0.9417535254445125	0.0	32470.0	4990.90576171875	1250.0	0.7586956521739131	0.2909090909090909	-613.0	-0.6227544910179642	-449.0	-1.611443905779277	41.0	-0.03959363669605588	40.0	0.06174181548364829	61.0	
0.3556014381877529	2131.0	10.43442670378005	1214.0	-0.7354732125562253	2044.0	-320.0	0.19619865113427343	10.0453709380748	-16384.0	-1664.0	-1.020232985898222	0.0	33110.0	5010.43701171875	1244.0	0.7456521739130435	0.2787878787878788	-619.0	-0.6766467065868265	-422.0	-3.948122465938534	63.0	-0.08846433471260967	55.0	-0.24949215937103292	213.0	
0.501427129514878	2136.0	10.322952041463838	1223.0	-0.7953706661215378	2032.0	-320.0	0.19619865113427343	9.966891477621092	-16256.0	-1856.0	-1.137952176578786	0.0	33750.0	5029.96826171875	1241.0	0.7391304347826088	0.30505050505050507	-606.0	-0.6367265469061877	-442.0	-8.330617233277554	60.0	0.5595597922440485	32.0	-0.16003983527178722	499.0	
0.6227276311888131	2131.0	10.319297682924622	1223.0	-0.733953240834769	2022.0	-640.0	0.39239730226854685	9.888412017167381	-16128.0	-1664.0	-1.020232985898222	0.0	34390.0	5049.49951171875	1249.0	0.7565217391304347	0.30707070707070705	-605.0	-0.6347305389221558	-443.0	-8.01167849303283	0.0	0.8456873409892278	9.0	0.7493183058428758	479.0	
0.681986923082684	2127.0	10.19521038775352	1233.0	-0.686408749783204	2017.0	-768.0	0.47087676272225626	9.731453096259962	-15872.0	-1600.0	-0.9809932556713672	0.0	35030.0	5069.03076171875	1250.0	0.7586956521739131	0.301010101010101	-608.0	-0.658682634730539	-431.0	-5.732014189819491	-63.0	0.7086657242803645	5.0	1.6846965677537082	331.0	
0.7428235779259941	2127.0	10.181789049642088	1234.0	-0.6859345966158853	2012.0	-960.0	0.5885959534028203	9.809932556713672	-16000.0	-1536.0	-0.9417535254445125	0.0	35670.0	5088.56201171875	1246.0	0.75	0.3111111111111111	-603.0	-0.6427145708582835	-439.0	-1.2593313382345168	-93.0	0.9038536784241158	-30.0	2.096243503496414	40.0	
0.5965281537896931	2128.0	10.172791858552062	1235.0	-0.6995357155392329	2024.0	-640.0	0.39239730226854685	9.770692826486817	-15936.0	-1600.0	-0.9809932556713672	0.0	36310.0	5108.09326171875	1251.0	0.7608695652173914	0.301010101010101	-608.0	-0.6227544910179642	-449.0	2.4958920358438172	-78.0	0.6366231031253089	-29.0	1.8305543876263528	-205.0	
0.5588655569364889	2127.0	10.07577010789345	1243.0	-0.6888343662432665	2027.0	-704.0	0.4316370324954016	9.652973635806253	-15744.0	-1600.0	-0.9809932556713672	0.0	36950.0	5127.62451171875	1245.0	0.7478260869565218	0.29494949494949496	-611.0	-0.6666666666666667	-427.0	2.335082773097779	-65.0	0.10100153437892176	8.0	1.6344438490751059	-195.0	
0.6070194259320529	2123.0	10.061641248138784	1244.0	-0.6403013450665203	2023.0	-832.0	0.510116492949111	9.613733905579398	-15680.0	-1664.0	-1.020232985898222	0.0	37590.0	5147.15576171875	1247.0	0.7521739130434782	0.31313131313131315	-602.0	-0.6147704590818364	-453.0	1.8367973196818772	-130.0	-0.06877906552845817	19.0	2.628019859502801	-162.0	
0.6301848488039257	2118.0	9.999005404732246	1249.0	-0.5804550854164452	2021.0	-704.0	0.4316370324954016	9.613733905579398	-15680.0	-1344.0	-0.8240343347639485	0.0	38230.0	5166.68701171875	1252.0	0.7630434782608696	0.30707070707070705	-605.0	-0.6247504990019961	-448.0	2.2836399212070475	-199.0	0.5927761867517738	-30.0	3.6729810912822267	-190.0	
0.6914998715746444	2116.0	10.058248674663547	1244.0	-0.5551531169472564	2016.0	-896.0	0.5493562231759657	9.692213366033108	-15808.0	-1408.0	-0.8632740649908032	0.0	38870.0	5186.21826171875	1250.0	0.7586956521739131	0.2828282828282828	-617.0	-0.6487025948103793	-436.0	3.3615028463245125	-217.0	0.671723898050778	-41.0	3.935966720586185	-260.0	
0.48413076741088734	2119.0	10.014388706322709	1248.0	-0.5938099859855555	2033.0	-512.0	0.3139178418148375	9.652973635806253	-15744.0	-1216.0	-0.745554874310239	0.0	39510.0	5205.74951171875	1249.0	0.7565217391304347	0.29494949494949496	-611.0	-0.660678642714571	-430.0	3.6077413792497763	-130.0	0.527603407835661	-29.0	2.610310418907122	-277.0	
0.6305490216983778	2119.0	10.023624332412103	1247.0	-0.5922534471817865	2021.0	-704.0	0.4316370324954016	9.692213366033108	-15808.0	-1408.0	-0.8632740649908032	0.0	40150.0	5225.28076171875	1247.0	0.7521739130434782	0.30505050505050507	-606.0	-0.62874251497006	-446.0	-2.44163818791426	-134.0	0.2265665857241874	19.0	2.7316407164799035	117.0	
0.8141558224707801	2124.0	10.033313478435625	1246.0	-0.6505614515692489	2006.0	-1024.0	0.627835683629675	9.652973635806253	-15744.0	-1408.0	-0.8632740649908032	0.0	40790.0	5244.81201171875	1244.0	0.7456521739130435	0.30505050505050507	-606.0	-0.6447105788423154	-438.0	-4.055218517953748	-147.0	-0.17878209598849426	53.0	2.9454951509590055	222.0	
1.046629726570743	2120.0	10.16177429945033	1235.0	-0.598759333233765	1987.0	-1344.0	0.8240343347639485	9.809932556713672	-16000.0	-1408.0	-0.8632740649908032	0.0	41430.0	5264.34326171875	1246.0	0.75	0.30505050505050507	-606.0	-0.6107784431137725	-455.0	2.8926105889782163	-241.0	-0.5396272686405201	41.0	4.305674654566492	-230.0	
0.9499621332442796	2129.0	10.141509468598052	1237.0	-0.7083623924153114	1995.0	-1216.0	0.745554874310239	9.849172286940528	-16064.0	-1536.0	-0.9417535254445125	0.0	42070.0	5283.87451171875	1255.0	0.7695652173913043	0.2868686868686869	-615.0	-0.6127744510978045	-454.0	17.78530074121425	-234.0	-1.4219749106218087	31.0	4.0502838747171355	-1201.0	
0.26892300250110024	2126.0	10.361816579221406	1220.0	-0.6768251343032566	2051.0	-192.0	0.11771919068056406	9.927651747394236	-16192.0	-1472.0	-0.9025137952176578	0.0	42710.0	5303.40576171875	1251.0	0.7608695652173914	0.28888888888888886	-614.0	-0.6487025948103793	-436.0	33.42590407930966	-290.0	-2.1398317428184885	4.0	4.745588867952151	-2220.0	
-0.2315498583355985	2117.0	10.418526602111811	1216.0	-0.5728290277429606	2092.0	640.0	-0.39239730226854685	10.0453709380748	-16384.0	-1408.0	-0.8632740649908032	0.0	43350.0	5322.93701171875	1259.0	0.7782608695652175	0.2909090909090909	-613.0	-0.6207584830339322	-450.0	31.378236335139494	-305.0	-3.0109372942338535	71.0	4.99420242752313	-2087.0	
-0.19620376411852836	2107.0	10.415403597055422	1216.0	-0.4520248691405104	2089.0	640.0	-0.39239730226854685	10.006131207847945	-16320.0	-1088.0	-0.6670754138565297	0.0	43990.0	5342.46826171875	1253.0	0.7652173913043478	0.2686868686868687	-624.0	-0.62874251497006	-446.0	9.65295139331588	-373.0	-1.8100913510419723	89.0	6.245675809260757	-670.0	
0.1315220585416959	2109.0	10.238569122726322	1230.0	-0.47461234119936785	2062.0	128.0	-0.07847946045370938	9.966891477621092	-16256.0	-1216.0	-0.745554874310239	0.0	44630.0	5361.99951171875	1255.0	0.7695652173913043	0.2828282828282828	-617.0	-0.6207584830339322	-450.0	-5.431263131386008	-363.0	0.13041135120682368	30.0	6.244426699754925	314.0	
0.3849914596037272	2101.0	10.073017854869212	1243.0	-0.377347617698644	2041.0	-448.0	0.27467811158798283	9.731453096259962	-15872.0	-1024.0	-0.627835683629675	0.0	45270.0	5381.53076171875	1256.0	0.7717391304347826	0.27070707070707073	-623.0	-0.6487025948103793	-436.0	-7.1626457859417085	-336.0	2.3662919642148394	-110.0	5.851094138467782	428.0	
0.518871345990243	2108.0	9.962266280905974	1252.0	-0.4614536839720015	2030.0	-448.0	0.27467811158798283	9.574494175352545	-15616.0	-1216.0	-0.745554874310239	0.0	45910.0	5401.06201171875	1257.0	0.7739130434782608	0.2686868686868687	-624.0	-0.6127744510978045	-454.0	5.075506088017664	-263.0	2.5484324875514113	-176.0	4.618446460032372	-370.0	
-0.029634712470388333	2103.0	10.04529540989129	1246.0	-0.405867489411333	2075.0	256.0	-0.15695892090741875	9.731453096259962	-15872.0	-1088.0	-0.6670754138565297	0.0	46550.0	5420.59326171875	1258.0	0.7760869565217391	0.27474747474747474	-621.0	-0.6227544910179642	-449.0	18.863034418792644	-256.0	1.6530490858550562	-180.0	4.374107298397625	-1269.0	
0.008038678280607003	2109.0	10.082558103845518	1243.0	-0.47740728519078673	2072.0	320.0	-0.19619865113427343	9.692213366033108	-15808.0	-1280.0	-0.7847946045370937	0.0	47190.0	5440.12451171875	1257.0	0.7739130434782608	0.2767676767676768	-620.0	-0.5928143712574852	-464.0	18.458725927292395	-195.0	0.5188989231730945	-100.0	3.4503937293202323	-1244.0	
-0.02928349225328558	2098.0	10.141625205616407	1238.0	-0.34465971539648915	2075.0	384.0	-0.23543838136112813	9.770692826486817	-15936.0	-1024.0	-0.627835683629675	0.0	47830.0	5459.65576171875	1257.0	0.7739130434782608	0.24848484848484848	-634.0	-0.6387225548902197	-441.0	6.0525474414405585	-147.0	0.721915294287137	-54.0	2.8444174913650624	-436.0	
0.18812010392100448	2102.0	9.882151842092469	1259.0	-0.393273184154323	2057.0	-64.0	0.03923973022685469	9.53525444512569	-15552.0	-1024.0	-0.627835683629675	0.0	48470.0	5479.18701171875	1258.0	0.7760869565217391	0.27474747474747474	-621.0	-0.6227544910179642	-449.0	-4.13844328722199	-19.0	1.1192738739842363	-28.0	0.9995593378151857	227.0	
0.283835278951767	2099.0	9.733183834177531	1271.0	-0.35766113416991174	2049.0	-320.0	0.19619865113427343	9.37829552421827	-15296.0	-1024.0	-0.627835683629675	0.0	49110.0	5498.71826171875	1263.0	0.7869565217391304	0.2828282828282828	-617.0	-0.5928143712574852	-464.0	-6.958948977731909	120.0	2.0448214688557274	-71.0	-1.0863040463443538	410.0	
0.3688113627582328	2098.0	9.70684137801801	1273.0	-0.34502660512235794	2042.0	-384.0	0.23543838136112813	9.299816063764561	-15168.0	-960.0	-0.5885959534028203	0.0	49750.0	5518.24951171875	1257.0	0.7739130434782608	0.26262626262626265	-627.0	-0.6387225548902197	-441.0	-3.5829284182057375	204.0	1.7410130695246564	-63.0	-2.39763079186357	189.0	
0.02998875231793449	2100.0	9.945827042400042	1254.0	-0.3701213601251092	2070.0	256.0	-0.15695892090741875	9.53525444512569	-15552.0	-1024.0	-0.627835683629675	0.0	50390.0	5537.78076171875	1255.0	0.7695652173913043	0.2787878787878788	-619.0	-0.5988023952095809	-461.0	-3.5080620489796486	361.0	0.8717954383312517	1.0	-4.786212155175604	182.0	
0.16532317150269998	2110.0	9.945502990497108	1254.0	-0.48925318416313424	2059.0	-64.0	0.03923973022685469	9.574494175352545	-15616.0	-1216.0	-0.745554874310239	0.0	51030.0	5557.31201171875	1261.0	0.782608695652174	0.27474747474747474	-621.0	-0.6626746506986029	-429.0	-5.775666583847858	467.0	1.333987465943303	-15.0	-6.37570341020715	329.0	
0.17995181075345368	2121.0	10.057591774198116	1245.0	-0.6205161304155443	2058.0	-64.0	0.03923973022685469	9.652973635806253	-15744.0	-1408.0	-0.8632740649908032	0.0	51670.0	5576.84326171875	1259.0	0.7782608695652175	0.2727272727272727	-622.0	-0.6027944111776448	-459.0	-5.699016754282131	396.0	1.7802113451438746	-48.0	-5.296621999757559	325.0	
0.4016866236291198	2119.0	10.30867814696824	1224.0	-0.5916915330169177	2040.0	-384.0	0.23543838136112813	9.849172286940528	-16064.0	-1408.0	-0.8632740649908032	0.0	52310.0	5596.37451171875	1255.0	0.7695652173913043	0.28484848484848485	-616.0	-0.6107784431137725	-455.0	-5.2148843071959465	357.0	2.02263956604775	-68.0	-4.7083074306923	294.0	
0.4489936342437067	2114.0	10.22116937417274	1231.0	-0.5318525867833052	2036.0	-256.0	0.15695892090741875	9.809932556713672	-16000.0	-1216.0	-0.745554874310239	0.0	52950.0	5615.90576171875	1258.0	0.7760869565217391	0.2808080808080808	-618.0	-0.6027944111776448	-459.0	-0.31696943100966785	425.0	1.7231135119579606	-68.0	-5.791507111773553	-26.0	
0.27844026855217696	2117.0	10.20095124344968	1233.0	-0.5699048800607042	2050.0	-192.0	0.11771919068056406	9.809932556713672	-16000.0	-1344.0	-0.8240343347639485	0.0	53590.0	5635.43701171875	1254.0	0.7673913043478261	0.27474747474747474	-621.0	-0.6307385229540919	-445.0	0.38576887396138365	408.0	1.1391230894243738	-33.0	-5.539979361743416	-72.0	
0.3523174057990104	2119.0	10.248711788683968	1229.0	-0.5927848887780616	2044.0	-256.0	0.15695892090741875	9.770692826486817	-15936.0	-1280.0	-0.7847946045370937	0.0	54230.0	5654.96826171875	1252.0	0.7630434782608696	0.28888888888888886	-614.0	-0.6247504990019961	-448.0	-0.24834933771750037	331.0	1.0164735805083382	-25.0	-4.362535518029669	-30.0	
0.3279258401948011	2115.0	10.29701147075595	1225.0	-0.5443530365290464	2046.0	-192.0	0.11771919068056406	9.927651747394236	-16192.0	-1280.0	-0.7847946045370937	0.0	54870.0	5674.49951171875	1254.0	0.7673913043478261	0.27474747474747474	-621.0	-0.62874251497006	-446.0	2.2949693843797054	250.0	0.8801360533992043	-31.0	-3.156029541752542	-195.0	
0.2791556616637316	2113.0	10.321899966854653	1223.0	-0.5204954678112015	2050.0	-128.0	0.07847946045370938	9.809932556713672	-16000.0	-1280.0	-0.7847946045370937	0.0	55510.0	5694.03076171875	1257.0	0.7739130434782608	0.2787878787878788	-619.0	-0.6546906187624751	-433.0	3.4159177379307604	188.0	1.5290171079677664	-82.0	-2.2242732458203722	-267.0	
0.3512205695565381	2114.0	10.198758628326152	1233.0	-0.5330544248886427	2044.0	-256.0	0.15695892090741875	9.849172286940528	-16064.0	-1344.0	-0.8240343347639485	0.0	56150.0	5713.56201171875	1255.0	0.7695652173913043	0.26666666666666666	-625.0	-0.6207584830339322	-450.0	1.7476866055986473	202.0	2.208365743724901	-119.0	-2.4205186911510435	-158.0	
0.48496899067363153	2116.0	10.135575864727052	1238.0	-0.5564451538556315	2033.0	-384.0	0.23543838136112813	9.770692826486817	-15936.0	-1280.0	-0.7847946045370937	0.0	56790.0	5733.09326171875	1255.0	0.7695652173913043	0.2808080808080808	-618.0	-0.6307385229540919	-445.0	1.6718378816445747	186.0	2.0539859371266624	-109.0	-2.1764141963069403	-153.0	
0.3398845978127597	2119.0	10.224577514357717	1231.0	-0.5931505596011866	2045.0	-384.0	0.23543838136112813	9.809932556713672	-16000.0	-1344.0	-0.8240343347639485	0.0	57430.0	5752.62451171875	1255.0	0.7695652173913043	0.2868686868686869	-615.0	-0.6387225548902197	-441.0	3.4247621886756385	175.0	0.6809125790537223	-26.0	-2.026643059149114	-268.0	
0.12080239633342303	2120.0	10.253628372413848	1229.0	-0.607099065806503	2063.0	128.0	-0.07847946045370938	9.809932556713672	-16000.0	-1472.0	-0.9025137952176578	0.0	58070.0	5772.15576171875	1256.0	0.7717391304347826	0.2868686868686869	-615.0	-0.6087824351297406	-456.0	-0.20740199559109979	138.0	0.6413366331089984	-8.0	-1.4275837747208953	-31.0	
0.19371632138676467	2123.0	10.191915135585305	1234.0	-0.643131637237508	2057.0	64.0	-0.03923973022685469	9.809932556713672	-16000.0	-1600.0	-0.9809932556713672	0.0	58710.0	5791.68701171875	1260.0	0.7804347826086957	0.2787878787878788	-619.0	-0.6027944111776448	-459.0	-8.69115104388212	100.0	0.41408499749694544	45.0	-0.7647995161771485	522.0	
0.4747298551723255	2126.0	10.211347911116434	1232.0	-0.6762717524575941	2034.0	-512.0	0.3139178418148375	9.849172286940528	-16064.0	-1536.0	-0.9417535254445125	0.0	59350.0	5811.21826171875	1250.0	0.7586956521739131	0.27474747474747474	-621.0	-0.656686626746507	-432.0	-10.250685832597252	135.0	0.00419125952438415	81.0	-1.2815235599249781	623.0	
0.3302596130674009	2134.0	10.301541735743937	1225.0	-0.7732000588010429	2046.0	-192.0	0.11771919068056406	9.966891477621092	-16256.0	-1728.0	-1.0594727161250765	0.0	59990.0	5830.74951171875	1255.0	0.7695652173913043	0.2868686868686869	-615.0	-0.6646706586826349	-428.0	-5.965520807309297	136.0	0.33623729620464315	39.0	-1.339584335653143	344.0	
0.25698367389916554	2131.0	10.326684233551749	1223.0	-0.7375368149013942	2052.0	-64.0	0.03923973022685469	9.966891477621092	-16256.0	-1792.0	-1.0987124463519313	0.0	60630.0	5850.28076171875	1254.0	0.7673913043478261	0.28888888888888886	-614.0	-0.6407185628742516	-440.0	-6.106296899136052	0.0	1.0728928720090345	-15.0	0.730264489903908	355.0	
0.29173072881719575	2123.0	10.238706374112382	1230.0	-0.6416835807779329	2049.0	-256.0	0.15695892090741875	9.809932556713672	-16000.0	-1536.0	-0.9417535254445125	0.0	61270.0	5869.81201171875	1251.0	0.7608695652173914	0.296969696969697	-610.0	-0.6506986027944113	-435.0	-6.104344447780578	-37.0	0.7054198894843748	8.0	1.2929826079759048	355.0	
0.2783325498578949	2123.0	10.117050129064175	1240.0	-0.643034125018008	2050.0	-128.0	0.07847946045370938	9.652973635806253	-15744.0	-1600.0	-0.9809932556713672	0.0	61910.0	5889.34326171875	1260.0	0.7804347826086957	0.29292929292929293	-612.0	-0.6087824351297406	-456.0	-7.094077426569858	-42.0	1.415941140882467	-35.0	1.3789255651402235	420.0	
0.4730404559694879	2126.0	10.04068446235301	1246.0	-0.6779952809372567	2034.0	-448.0	0.27467811158798283	9.652973635806253	-15744.0	-1600.0	-0.9809932556713672	0.0	62550.0	5908.87451171875	1253.0	0.7652173913043478	0.2909090909090909	-613.0	-0.6267465069860281	-447.0	-7.267976588361343	-29.0	1.106118185331532	-13.0	1.1829459255794308	431.0	
0.5088800295708741	2121.0	10.026563385953214	1247.0	-0.6175371321098192	2031.0	-448.0	0.27467811158798283	9.652973635806253	-15744.0	-1408.0	-0.8632740649908032	0.0	63190.0	5928.40576171875	1251.0	0.7608695652173914	0.31313131313131315	-602.0	-0.6207584830339322	-450.0	-4.100262306755516	-53.0	1.3508046308155226	-45.0	1.5162877941702169	225.0	
0.5339826707275217	2119.0	10.12311604996796	1239.0	-0.5922241935159366	2029.0	-640.0	0.39239730226854685	9.731453096259962	-15872.0	-1408.0	-0.8632740649908032	0.0	63830.0	5947.93701171875	1255.0	0.7695652173913043	0.2909090909090909	-613.0	-0.6407185628742516	-440.0	-0.46825954244493184	-81.0	1.9205632277822389	-101.0	1.9058232798350958	-11.0	
0.5940931385614859	2118.0	10.048505045155938	1245.0	-0.5803210061146328	2024.0	-640.0	0.39239730226854685	9.809932556713672	-16000.0	-1408.0	-0.8632740649908032	0.0	64470.0	5967.46826171875	1254.0	0.7673913043478261	0.298989898989899	-609.0	-0.6626746506986029	-429.0	3.204813312295251	-8.0	1.9941855746945478	-120.0	0.7588263915918765	-251.0	
0.3255210478804088	2119.0	10.005399298587552	1249.0	-0.5954859772582117	2046.0	-320.0	0.19619865113427343	9.574494175352545	-15616.0	-1408.0	-0.8632740649908032	0.0	65110.0	5986.99951171875	1252.0	0.7630434782608696	0.2868686868686869	-615.0	-0.6267465069860281	-447.0	7.153893070168477	112.0	1.2226182833991543	-82.0	-1.1057594630210765	-510.0	
0.30235130744941946	2122.0	10.091938764675843	1242.0	-0.6309968583148918	2048.0	-128.0	0.07847946045370938	9.652973635806253	-15744.0	-1600.0	-0.9809932556713672	0.0	214.0	6006.53076171875	1256.0	0.7717391304347826	0.3090909090909091	-604.0	-0.6187624750499002	-451.0	1.906046169927425	161.0	0.5382180437224232	-10.0	-1.7985281423076394	-169.0	
0.46132304109479183	2122.0	10.137498911431733	1238.0	-0.6289515395108791	2035.0	-448.0	0.27467811158798283	9.770692826486817	-15936.0	-1536.0	-0.9417535254445125	0.0	854.0	6026.06201171875	1250.0	0.7586956521739131	0.29494949494949496	-611.0	-0.6646706586826349	-428.0	-4.598176286406663	163.0	0.887181130484417	-3.0	-1.763904168694869	255.0	
0.4370672583191212	2125.0	10.114326160457823	1240.0	-0.665570403161628	2037.0	-448.0	0.27467811158798283	9.731453096259962	-15872.0	-1600.0	-0.9809932556713672	0.0	1494.0	6045.59326171875	1253.0	0.7652173913043478	0.30505050505050507	-606.0	-0.6467065868263474	-437.0	-2.0162752000136663	74.0	1.417954019333872	-54.0	-0.43611101225841853	88.0	
0.5344739913322796	2123.0	10.124069789965432	1239.0	-0.6404025139942516	2029.0	-576.0	0.3531575720416922	9.692213366033108	-15808.0	-1408.0	-0.8632740649908032	0.0	2134.0	6065.12451171875	1253.0	0.7652173913043478	0.29494949494949496	-611.0	-0.6107784431137725	-455.0	2.504177135684462	34.0	1.6337185746894856	-91.0	0.1270494833960071	-206.0	
0.4236798732576115	2130.0	9.932910858705231	1255.0	-0.7277593938851906	2038.0	-384.0	0.23543838136112813	9.496014714898834	-15488.0	-1536.0	-0.9417535254445125	0.0	2774.0	6084.65576171875	1254.0	0.7673913043478261	0.296969696969697	-610.0	-0.6686626746506987	-426.0	6.357698611320333	45.0	1.926928133875014	-128.0	-0.0787861115884885	-457.0	
0.25298424839886835	2123.0	10.020020595050694	1248.0	-0.6442579033727331	2052.0	-192.0	0.11771919068056406	9.613733905579398	-15680.0	-1472.0	-0.9025137952176578	0.0	3414.0	6104.18701171875	1256.0	0.7717391304347826	0.3090909090909091	-604.0	-0.6047904191616768	-458.0	7.66036920829583	26.0	1.4498907312611544	-103.0	0.1971605664721748	-542.0	
0.14325674365285762	2121.0	10.046140182920585	1246.0	-0.6209975969993256	2061.0	0.0	0.0	9.692213366033108	-15808.0	-1408.0	-0.8632740649908032	0.0	4054.0	6123.71826171875	1250.0	0.7586956521739131	0.2868686868686869	-615.0	-0.660678642714571	-430.0	3.8391382536887777	7.0	1.1945443429043068	-69.0	0.5243462600486636	-293.0	
0.3256438780315982	2120.0	10.005637733586921	1249.0	-0.6075305573777905	2046.0	-128.0	0.07847946045370938	9.652973635806253	-15744.0	-1408.0	-0.8632740649908032	0.0	4694.0	6143.24951171875	1253.0	0.7652173913043478	0.3111111111111111	-603.0	-0.6427145708582835	-439.0	-2.589495818316877	-27.0	2.415895562320187	-122.0	1.105742866928416	127.0	
0.4358519094845758	2121.0	10.040230942418884	1246.0	-0.6181307377460254	2037.0	-320.0	0.19619865113427343	9.652973635806253	-15744.0	-1408.0	-0.8632740649908032	0.0	5334.0	6162.78076171875	1255.0	0.7695652173913043	0.2909090909090909	-613.0	-0.6626746506986029	-429.0	-4.204702649649273	42.0	3.095028775277117	-157.0	0.07246527744706309	232.0	
0.6798083620546468	2124.0	10.011641387651748	1248.0	-0.6521216470812491	2017.0	-768.0	0.47087676272225626	9.574494175352545	-15616.0	-1536.0	-0.9417535254445125	0.0	5974.0	6182.31201171875	1253.0	0.7652173913043478	0.29292929292929293	-612.0	-0.6487025948103793	-436.0	-1.1771079700483615	121.0	3.1722490820488094	-173.0	-1.1593315818964745	34.0	
0.4492651999007841	2128.0	10.078224508080956	1243.0	-0.7019540185828329	2036.0	-512.0	0.3139178418148375	9.574494175352545	-15616.0	-1728.0	-1.0594727161250765	0.0	6614.0	6201.84326171875	1254.0	0.7673913043478261	0.29494949494949496	-611.0	-0.6526946107784432	-434.0	6.6830138617054375	231.0	1.9874570784880805	-126.0	-2.910936602495381	-480.0	
0.1946989625962804	2131.0	10.193822615580247	1234.0	-0.7394882781941381	2057.0	-64.0	0.03923973022685469	9.770692826486817	-15936.0	-1664.0	-1.020232985898222	0.0	7254.0	6221.37451171875	1255.0	0.7695652173913043	0.29292929292929293	-612.0	-0.6147704590818364	-453.0	11.6061588151076	286.0	0.9436335821187467	-77.0	-3.7966699531700874	-802.0	
0.07326915443248108	2132.0	10.233093973142724	1231.0	-0.7523580554712357	2067.0	192.0	-0.11771919068056406	9.809932556713672	-16000.0	-1600.0	-0.9809932556713672	0.0	7894.0	6240.90576171875	1258.0	0.7760869565217391	0.2787878787878788	-619.0	-0.6187624750499002	-451.0	6.752716505080205	308.0	0.920004603611756	-52.0	-4.082736290526087	-486.0	
0.2930753841416053	2131.0	10.277184593128057	1227.0	-0.7376708942032068	2049.0	-64.0	0.03923973022685469	9.888412017167381	-16128.0	-1792.0	-1.0987124463519313	0.0	8534.0	6260.43701171875	1254.0	0.7673913043478261	0.2868686868686869	-615.0	-0.656686626746507	-432.0	-3.3346463428897613	239.0	1.0103927290898929	-14.0	-2.932433004251711	172.0	
0.4021865793521105	2127.0	10.261824641602203	1228.0	-0.6885406106820229	2040.0	-320.0	0.19619865113427343	9.849172286940528	-16064.0	-1536.0	-0.9417535254445125	0.0	9174.0	6279.96826171875	1257.0	0.7739130434782608	0.2808080808080808	-618.0	-0.6227544910179642	-449.0	-6.759099300512754	187.0	1.5619272601587566	-37.0	-2.107313949960652	396.0	
0.32843874859514105	2129.0	10.178447097344655	1235.0	-0.7142082499743367	2046.0	-256.0	0.15695892090741875	9.809932556713672	-16000.0	-1536.0	-0.9417535254445125	0.0	9814.0	6299.49951171875	1256.0	0.7717391304347826	0.2868686868686869	-615.0	-0.6487025948103793	-436.0	-2.5733279891322955	180.0	1.0414514655317078	-22.0	-2.0427077847474604	123.0	
0.25432674494371965	2130.0	10.070450625407247	1244.0	-0.7280775275013094	2052.0	-128.0	0.07847946045370938	9.692213366033108	-15808.0	-1536.0	-0.9417535254445125	0.0	10454.0	6319.03076171875	1250.0	0.7586956521739131	0.30303030303030304	-607.0	-0.6387225548902197	-441.0	1.442592959946992	125.0	1.2232359151183179	-55.0	-1.2463650930975692	-138.0	
0.216521888923302	2119.0	10.080756741817158	1243.0	-0.5958223944154867	2055.0	0.0	0.0	9.652973635806253	-15744.0	-1408.0	-0.8632740649908032	0.0	11094.0	6338.56201171875	1258.0	0.7760869565217391	0.2868686868686869	-615.0	-0.6167664670658684	-452.0	2.401139116266221	28.0	1.982067416933823	-114.0	0.21933461644190055	-199.0	
0.2662595972069797	2122.0	10.141438405099533	1238.0	-0.6308627790130792	2051.0	-64.0	0.03923973022685469	9.770692826486817	-15936.0	-1408.0	-0.8632740649908032	0.0	11734.0	6358.09326171875	1256.0	0.7717391304347826	0.2868686868686869	-615.0	-0.6526946107784432	-434.0	1.6075677226041793	-34.0	1.4898362273177124	-80.0	1.1702361098462015	-147.0	
0.4256106152037116	2130.0	10.127954800149144	1239.0	-0.7257896470512905	2038.0	-448.0	0.27467811158798283	9.692213366033108	-15808.0	-1600.0	-0.9809932556713672	0.0	12374.0	6377.62451171875	1254.0	0.7673913043478261	0.29292929292929293	-612.0	-0.6467065868263474	-437.0	-2.2692677982749125	22.0	1.4189198269323875	-55.0	0.3572934384390229	105.0	
0.46181867925866615	2128.0	10.11454902874745	1240.0	-0.7014652385825892	2035.0	-448.0	0.27467811158798283	9.731453096259962	-15872.0	-1664.0	-1.020232985898222	0.0	13014.0	6397.15576171875	1258.0	0.7760869565217391	0.2787878787878788	-619.0	-0.6167664670658684	-452.0	0.13969937568281784	25.0	1.403005844163223	-65.0	0.28757639027359005	-52.0	
0.36355429396673966	2124.0	10.091184542903392	1242.0	-0.6544887562096118	2043.0	-256.0	0.15695892090741875	9.692213366033108	-15808.0	-1600.0	-0.9809932556713672	0.0	13654.0	6416.68701171875	1255.0	0.7695652173913043	0.2868686868686869	-615.0	-0.6626746506986029	-429.0	1.846178031872482	-6.0	1.220398102858691	-62.0	0.7419944934455338	-163.0	
0.3157494864087203	2122.0	10.21359500972405	1232.0	-0.6296463140748166	2047.0	-128.0	0.07847946045370938	9.809932556713672	-16000.0	-1472.0	-0.9025137952176578	0.0	14294.0	6436.21826171875	1254.0	0.7673913043478261	0.30303030303030304	-607.0	-0.6546906187624751	-433.0	0.9396195365344033	25.0	1.5872114609379677	-81.0	0.2795771886650742	-104.0	
